Subject,Block,bTrial,nTrial,Choice,Choice2,Amount,GambleAdviceNum,GambleAdviceType,Response Key (advisor) ,Response Time,Reponse key (safe or gamble),Choice,Response time,Age,Gender
101,1,1,1,IA75_L15.bmp,IA75_L15.bmp,IA75.bmp,1,risk,left,0.616258605,right,1,0.390852478,19,1
101,1,2,2,IA25_G20.bmp,IA25_G20.bmp,IA25.bmp,0,safe,,0.3969433,right,1,0.348775718,19,1
101,1,3,3,IA100_L20.bmp,IA100_L20.bmp,IA100.bmp,1,risk,,0.427579472,right,1,0.337997724,19,1
101,1,4,4,IA75_L45.bmp,IA75_L45.bmp,IA75.bmp,0,safe,,1.216781007,left,0,0.957658631,19,1
101,1,5,5,IA20_10_G95p.bmp,IA20_10_G95p.bmp,IA20.bmp,1,risk,,0.587758245,left,0,0.283056978,19,1
101,1,6,6,IA25_L5.bmp,IA25_L5.bmp,IA25.bmp,0,safe,,0.681856549,left,0,0.324175884,19,1
101,1,7,7,IA100_G60.bmp,IA100_G60.bmp,IA100.bmp,0,safe,,0.762976903,right,1,0.491181544,19,1
101,1,8,8,IA75_G45.bmp,IA75_G45.bmp,IA75.bmp,0,safe,,0.985270265,left,0,0.601517183,19,1
101,1,9,9,IA50_L20.bmp,IA50_L20.bmp,IA50.bmp,1,risk,,0.951599827,left,0,0.375972547,19,1
101,1,10,10,IA100_G40.bmp,IA100_G40.bmp,IA100.bmp,1,risk,,0.718788516,left,0,0.297109812,19,1
101,1,11,11,IA50_L30.bmp,IA50_L30.bmp,IA50.bmp,1,risk,,0.759201286,left,0,0.271394231,19,1
101,1,12,12,IA25_G10.bmp,IA25_G10.bmp,IA25.bmp,1,risk,,0.974195649,left,0,0.260438549,19,1
101,1,13,13,IA75_L60.bmp,IA75_L60.bmp,IA75.bmp,1,risk,,0.378526295,left,0,0.291781734,19,1
101,1,14,14,IA75_G60.bmp,IA75_G60.bmp,IA75.bmp,1,risk,,0.48185872,right,1,0.254142864,19,1
101,1,15,15,IA50_L40.bmp,IA50_L40.bmp,IA50.bmp,0,safe,,0.756237764,left,0,0.251714712,19,1
101,1,16,16,IA80_40_L95p.bmp,IA80_40_L95p.bmp,IA80.bmp,0,safe,,0.801798852,right,1,1.225156757,19,1
101,1,17,17,IA50_G10.bmp,IA50_G10.bmp,IA50.bmp,0,safe,,0.967254626,left,0,0.408201246,19,1
101,1,18,18,IA100_G20.bmp,IA100_G20.bmp,IA100.bmp,1,risk,,0.959008129,left,0,0.391383437,19,1
101,1,19,19,IA50_G30.bmp,IA50_G30.bmp,IA50.bmp,1,risk,,0.566194486,left,0,0.29561146,19,1
101,1,20,20,IA25_G15.bmp,IA25_G15.bmp,IA25.bmp,1,risk,,0.461690017,left,0,0.250683312,19,1
101,2,1,21,IA50_G20.bmp,IA50_G20.bmp,IA50.bmp,1,risk,right,0.435145539,left,0,0.794137371,19,1
101,2,2,22,IA50_G10.bmp,IA50_G10.bmp,IA50.bmp,0,safe,,1.440228882,left,0,0.354568349,19,1
101,2,3,23,IA110_55_L95p.bmp,IA110_55_L95p.bmp,IA110.bmp,1,risk,,0.328655565,right,1,0.34861896,19,1
101,2,4,24,IA25_L20.bmp,IA25_L20.bmp,IA25.bmp,0,safe,,1.187422186,left,0,0.313136758,19,1
101,2,5,25,IA25_G20.bmp,IA25_G20.bmp,IA25.bmp,0,safe,,0.77594195,left,0,0.230707213,19,1
101,2,6,26,IA75_G45.bmp,IA75_G45.bmp,IA75.bmp,0,safe,,0.308801623,left,0,0.552766469,19,1
101,2,7,27,IA25_L15.bmp,IA25_L15.bmp,IA25.bmp,1,risk,,1.654840021,left,0,0.311949304,19,1
101,2,8,28,IA75_G30.bmp,IA75_G30.bmp,IA75.bmp,1,risk,,1.115189089,left,0,0.316466321,19,1
101,2,9,29,IA80_40_G95p.bmp,IA80_40_G95p.bmp,IA80.bmp,1,risk,,0.347264773,left,0,0.477806907,19,1
101,2,10,30,IA25_G5.bmp,IA25_G5.bmp,IA25.bmp,0,safe,,0.348609594,left,0,0.245152042,19,1
101,2,11,31,IA25_G15.bmp,IA25_G15.bmp,IA25.bmp,1,risk,,0.771250435,left,0,0.314724414,19,1
101,2,12,32,IA75_G15.bmp,IA75_G15.bmp,IA75.bmp,1,risk,,0.729524992,left,0,0.35585646,19,1
101,2,13,33,IA80_40_L95p.bmp,IA80_40_L95p.bmp,IA80.bmp,0,safe,,1.353930674,right,1,0.071129465,19,1
101,2,14,34,IA25_L10.bmp,IA25_L10.bmp,IA25.bmp,1,risk,,0.373926448,left,0,0.615047066,19,1
101,2,15,35,IA100_G80.bmp,IA100_G80.bmp,IA100.bmp,1,risk,,0.869133157,left,0,0.330356927,19,1
101,2,16,36,IA100_G40.bmp,IA100_G40.bmp,IA100.bmp,1,risk,,0.448446957,left,0,0.294865335,19,1
101,2,17,37,IA100_L60.bmp,IA100_L60.bmp,IA100.bmp,0,safe,,0.565655618,left,0,0.254392242,19,1
101,2,18,38,IA100_G60.bmp,IA100_G60.bmp,IA100.bmp,0,safe,,0.388473263,left,0,0.228303422,19,1
101,2,19,39,IA75_L45.bmp,IA75_L45.bmp,IA75.bmp,0,safe,,0.562393215,left,0,0.555116057,19,1
101,2,20,40,IA50_L20.bmp,IA50_L20.bmp,IA50.bmp,1,risk,,0.673218685,left,0,1.053517613,19,1
101,3,1,41,IA25_G10.bmp,IA25_G10.bmp,IA25.bmp,1,risk,left,1.1433349,left,0,0.271181495,19,1
101,3,2,42,IA100_G20.bmp,IA100_G20.bmp,IA100.bmp,1,risk,,0.534012288,left,0,0.136836437,19,1
101,3,3,43,IA110_55_G95p.bmp,IA110_55_G95p.bmp,IA110.bmp,1,risk,,0.527636927,left,0,1.163071001,19,1
101,3,4,44,IA25_L5.bmp,IA25_L5.bmp,IA25.bmp,0,safe,,1.497157808,right,1,0.410081526,19,1
101,3,5,45,IA50_G10.bmp,IA50_G10.bmp,IA50.bmp,0,safe,,0.944889404,left,0,0.874554863,19,1
101,3,6,46,IA80_40_G95p.bmp,IA80_40_G95p.bmp,IA80.bmp,1,risk,,0.785380939,left,0,0.43342781,19,1
101,3,7,47,IA75_L60.bmp,IA75_L60.bmp,IA75.bmp,1,risk,,0.999508823,left,0,1.063025919,19,1
101,3,8,48,IA50_L30.bmp,IA50_L30.bmp,IA50.bmp,1,risk,,0.725133205,left,0,0.910631547,19,1
101,3,9,49,IA50_L20.bmp,IA50_L20.bmp,IA50.bmp,1,risk,,0.333420217,right,1,0.551928493,19,1
101,3,10,50,IA50_G40.bmp,IA50_G40.bmp,IA50.bmp,0,safe,,0.630772233,right,1,0.475814337,19,1
101,3,11,51,IA20_10_L95p.bmp,IA20_10_L95p.bmp,IA20.bmp,0,safe,,0.786613314,right,1,0.225397029,19,1
101,3,12,52,IA80_40_L95p.bmp,IA80_40_L95p.bmp,IA80.bmp,0,safe,,0.871488135,right,1,0.169279945,19,1
101,3,13,53,IA50_G30.bmp,IA50_G30.bmp,IA50.bmp,1,risk,,0.567357402,left,0,0.328660106,19,1
101,3,14,54,IA50_G20.bmp,IA50_G20.bmp,IA50.bmp,1,risk,,0.798761875,left,0,0.26224238,19,1
101,3,15,55,IA25_G5.bmp,IA25_G5.bmp,IA25.bmp,0,safe,,0.804328356,left,0,0.256980182,19,1
101,3,16,56,IA75_G30.bmp,IA75_G30.bmp,IA75.bmp,1,risk,,0.711778679,left,0,0.298814089,19,1
101,3,17,57,IA25_L20.bmp,IA25_L20.bmp,IA25.bmp,0,safe,,0.544903232,left,0,0.152935986,19,1
101,3,18,58,IA50_L10.bmp,IA50_L10.bmp,IA50.bmp,0,safe,,1.223014142,right,1,0.217873088,19,1
101,3,19,59,IA25_L15.bmp,IA25_L15.bmp,IA25.bmp,1,risk,,1.19197122,left,0,0.437693422,19,1
101,3,20,60,IA20_10_G95p.bmp,IA20_10_G95p.bmp,IA20.bmp,1,risk,,1.444500427,left,0,0.287547333,19,1
101,4,1,61,IA50_G10.bmp,IA50_G10.bmp,IA50.bmp,0,safe,left,0.790699131,left,0,0.316037653,19,1
101,4,2,62,IA20_10_G95p.bmp,IA20_10_G95p.bmp,IA20.bmp,1,risk,,0.610135555,left,0,0.080730857,19,1
101,4,3,63,IA100_G60.bmp,IA100_G60.bmp,IA100.bmp,0,safe,,0.422820423,left,0,1.005229934,19,1
101,4,4,64,IA25_L10.bmp,IA25_L10.bmp,IA25.bmp,1,risk,,1.16402985,left,0,0.354455401,19,1
101,4,5,65,IA100_G80.bmp,IA100_G80.bmp,IA100.bmp,1,risk,,1.152547715,left,0,0.161102362,19,1
101,4,6,66,IA25_L5.bmp,IA25_L5.bmp,IA25.bmp,0,safe,,0.591199352,right,1,0.525661128,19,1
101,4,7,67,IA50_G40.bmp,IA50_G40.bmp,IA50.bmp,0,safe,,0.683751349,right,1,0.655502031,19,1
101,4,8,68,IA100_L40.bmp,IA100_L40.bmp,IA100.bmp,1,risk,,1.254314499,right,1,0.489174299,19,1
101,4,9,69,IA50_L20.bmp,IA50_L20.bmp,IA50.bmp,1,risk,,1.759273738,left,0,0.324818101,19,1
101,4,10,70,IA25_G5.bmp,IA25_G5.bmp,IA25.bmp,0,safe,,0.939618664,left,0,0.250531725,19,1
101,4,11,71,IA50_L40.bmp,IA50_L40.bmp,IA50.bmp,0,safe,,0.569389485,left,0,0.265394314,19,1
101,4,12,72,IA75_L15.bmp,IA75_L15.bmp,IA75.bmp,1,risk,,0.383481618,right,1,0.184746082,19,1
101,4,13,73,IA80_40_L95p.bmp,IA80_40_L95p.bmp,IA80.bmp,0,safe,,0.502835583,right,1,0.193680096,19,1
101,4,14,74,IA25_L15.bmp,IA25_L15.bmp,IA25.bmp,1,risk,,0.576503305,left,0,0.263785686,19,1
101,4,15,75,IA75_L45.bmp,IA75_L45.bmp,IA75.bmp,0,safe,,0.693884813,left,0,0.256214677,19,1
101,4,16,76,IA25_G20.bmp,IA25_G20.bmp,IA25.bmp,0,safe,,0.934296916,left,0,1.096095921,19,1
101,4,17,77,IA100_G20.bmp,IA100_G20.bmp,IA100.bmp,1,risk,,1.246199965,left,0,0.482466184,19,1
101,4,18,78,IA100_G40.bmp,IA100_G40.bmp,IA100.bmp,1,risk,,0.761292391,left,0,0.490200876,19,1
101,4,19,79,IA25_L20.bmp,IA25_L20.bmp,IA25.bmp,0,safe,,0.488298215,left,0,0.163851771,19,1
101,4,20,80,IA75_G60.bmp,IA75_G60.bmp,IA75.bmp,1,risk,,0.313948692,right,1,0.365201857,19,1
101,5,1,81,IA50_G40.bmp,IA50_G40.bmp,IA50.bmp,0,safe,left,1.187284219,right,1,0.20829065,19,1
101,5,2,82,IA25_L5.bmp,IA25_L5.bmp,IA25.bmp,0,safe,,0.287083657,right,1,0.16251929,19,1
101,5,3,83,IA40_20_G95p.bmp,IA40_20_G95p.bmp,IA40.bmp,0,safe,,0.433285729,left,0,0.141541192,19,1
101,5,4,84,IA80_40_L95p.bmp,IA80_40_L95p.bmp,IA80.bmp,0,safe,,0.276366167,right,1,0.313030491,19,1
101,5,5,85,IA50_L10.bmp,IA50_L10.bmp,IA50.bmp,0,safe,,0.391856208,right,1,0.367539756,19,1
101,5,6,86,IA25_L15.bmp,IA25_L15.bmp,IA25.bmp,1,risk,,0.725641982,left,0,0.229838234,19,1
101,5,7,87,IA100_G20.bmp,IA100_G20.bmp,IA100.bmp,1,risk,,0.92393219,left,0,0.245705543,19,1
101,5,8,88,IA40_20_L95p.bmp,IA40_20_L95p.bmp,IA40.bmp,1,risk,,0.796529476,right,1,0.116019461,19,1
101,5,9,89,IA20_10_G95p.bmp,IA20_10_G95p.bmp,IA20.bmp,1,risk,,1.090828801,left,0,0.196805999,19,1
101,5,10,90,IA110_55_G95p.bmp,IA110_55_G95p.bmp,IA110.bmp,1,risk,,0.978824873,left,0,0.267263433,19,1
101,5,11,91,IA25_G15.bmp,IA25_G15.bmp,IA25.bmp,1,risk,,0.561362636,left,0,0.22608644,19,1
101,5,12,92,IA75_G30.bmp,IA75_G30.bmp,IA75.bmp,1,risk,,0.58419109,left,0,0.184894618,19,1
101,5,13,93,IA80_40_G95p.bmp,IA80_40_G95p.bmp,IA80.bmp,1,risk,,0.398993237,left,0,0.127542284,19,1
101,5,14,94,IA100_L80.bmp,IA100_L80.bmp,IA100.bmp,1,risk,,0.341635548,left,0,0.298309064,19,1
101,5,15,95,IA50_L40.bmp,IA50_L40.bmp,IA50.bmp,0,safe,,0.480406704,left,0,0.075259677,19,1
101,5,16,96,IA75_L45.bmp,IA75_L45.bmp,IA75.bmp,0,safe,,0.738071497,left,0,0.266965586,19,1
101,5,17,97,IA25_L10.bmp,IA25_L10.bmp,IA25.bmp,1,risk,,1.297069545,right,1,0.530511735,19,1
101,5,18,98,IA75_G45.bmp,IA75_G45.bmp,IA75.bmp,0,safe,,0.968601017,left,0,0.28898026,19,1
101,5,19,99,IA100_L20.bmp,IA100_L20.bmp,IA100.bmp,1,risk,,0.319086964,right,1,0.041761354,19,1
101,5,20,100,IA75_G15.bmp,IA75_G15.bmp,IA75.bmp,1,risk,,1.272570396,left,0,0.19543177,19,1
101,6,1,101,IA50_G10.bmp,IA50_G10.bmp,IA50.bmp,0,safe,left,1.229516453,left,0,0.089796582,19,1
101,6,2,102,IA50_G20.bmp,IA50_G20.bmp,IA50.bmp,1,risk,,0.463875358,left,0,0.572878856,19,1
101,6,3,103,IA25_L5.bmp,IA25_L5.bmp,IA25.bmp,0,safe,,0.859694148,right,1,0.174906354,19,1
101,6,4,104,IA50_G30.bmp,IA50_G30.bmp,IA50.bmp,1,risk,,0.78971112,left,0,0.117186422,19,1
101,6,5,105,IA100_G40.bmp,IA100_G40.bmp,IA100.bmp,1,risk,,0.52329469,left,0,0.118147611,19,1
101,6,6,106,IA75_L15.bmp,IA75_L15.bmp,IA75.bmp,1,risk,,0.40424596,right,1,0.019364858,19,1
101,6,7,107,IA25_L10.bmp,IA25_L10.bmp,IA25.bmp,1,risk,,0.593461698,left,0,0.06546623,19,1
101,6,8,108,IA75_G30.bmp,IA75_G30.bmp,IA75.bmp,1,risk,,0.351564773,left,0,0.041544666,19,1
101,6,9,109,IA100_L20.bmp,IA100_L20.bmp,IA100.bmp,1,risk,,0.624328982,left,0,0.085502233,19,1
101,6,10,110,IA100_G20.bmp,IA100_G20.bmp,IA100.bmp,1,risk,,0.811596487,left,0,0.49836463,19,1
101,6,11,111,IA50_L20.bmp,IA50_L20.bmp,IA50.bmp,1,risk,,0.528471562,left,0,0.379177824,19,1
101,6,12,112,IA75_G15.bmp,IA75_G15.bmp,IA75.bmp,1,risk,,0.593999194,left,0,0.297267757,19,1
101,6,13,113,IA25_L15.bmp,IA25_L15.bmp,IA25.bmp,1,risk,,1.00739841,left,0,0.356928605,19,1
101,6,14,114,IA110_55_G95p.bmp,IA110_55_G95p.bmp,IA110.bmp,1,risk,,0.859026155,left,0,0.191700731,19,1
101,6,15,115,IA80_40_L95p.bmp,IA80_40_L95p.bmp,IA80.bmp,0,safe,,0.565752587,right,1,0.062479096,19,1
101,6,16,116,IA100_G80.bmp,IA100_G80.bmp,IA100.bmp,1,risk,,0.27657885,right,1,0.042106898,19,1
101,6,17,117,IA75_G45.bmp,IA75_G45.bmp,IA75.bmp,0,safe,,0.496914507,left,0,0.117204105,19,1
101,6,18,118,IA50_L30.bmp,IA50_L30.bmp,IA50.bmp,1,risk,,0.363268744,left,0,0.06709748,19,1
101,6,19,119,IA100_L60.bmp,IA100_L60.bmp,IA100.bmp,0,safe,,0.793909402,left,0,0.231972181,19,1
101,6,20,120,IA50_L40.bmp,IA50_L40.bmp,IA50.bmp,0,safe,,0.718061408,left,0,0.071684126,19,1
101,7,1,121,IA110_55_G95p.bmp,IA110_55_G95p.bmp,IA110.bmp,1,risk,left,0.314848262,left,0,0.638231006,19,1
101,7,2,122,IA75_L45.bmp,IA75_L45.bmp,IA75.bmp,0,safe,,0.349036982,left,0,0.055001101,19,1
101,7,3,123,IA75_G15.bmp,IA75_G15.bmp,IA75.bmp,1,risk,,0.48510122,left,0,0.241376028,19,1
101,7,4,124,IA75_G60.bmp,IA75_G60.bmp,IA75.bmp,1,risk,,0.600175536,left,0,0.215439624,19,1
101,7,5,125,IA110_55_L95p.bmp,IA110_55_L95p.bmp,IA110.bmp,1,risk,,0.398281151,right,1,0.086822286,19,1
101,7,6,126,IA50_L20.bmp,IA50_L20.bmp,IA50.bmp,1,risk,,0.788924347,left,0,0.268410933,19,1
101,7,7,127,IA100_G20.bmp,IA100_G20.bmp,IA100.bmp,1,risk,,0.491223034,left,0,0.135484014,19,1
101,7,8,128,IA25_L5.bmp,IA25_L5.bmp,IA25.bmp,0,safe,,0.5263001,right,1,0.135767804,19,1
101,7,9,129,IA100_G60.bmp,IA100_G60.bmp,IA100.bmp,0,safe,,0.534543876,right,1,0.064675294,19,1
101,7,10,130,IA50_G10.bmp,IA50_G10.bmp,IA50.bmp,0,safe,,0.286777806,left,0,0.538158172,19,1
101,7,11,131,IA20_10_G95p.bmp,IA20_10_G95p.bmp,IA20.bmp,1,risk,,0.456973024,left,0,0.173951599,19,1
101,7,12,132,IA80_40_L95p.bmp,IA80_40_L95p.bmp,IA80.bmp,0,safe,,0.468767324,right,1,0.169042838,19,1
101,7,13,133,IA75_L60.bmp,IA75_L60.bmp,IA75.bmp,1,risk,,0.983838292,left,0,0.311512109,19,1
101,7,14,134,IA50_L30.bmp,IA50_L30.bmp,IA50.bmp,1,risk,,1.190321464,left,0,0.23606054,19,1
101,7,15,135,IA25_G10.bmp,IA25_G10.bmp,IA25.bmp,1,risk,,0.578866735,left,0,0.106851057,19,1
101,7,16,136,IA40_20_G95p.bmp,IA40_20_G95p.bmp,IA40.bmp,0,safe,,0.425666072,left,0,0.176065974,19,1
101,7,17,137,IA100_L40.bmp,IA100_L40.bmp,IA100.bmp,1,risk,,0.742874562,right,1,0.600358348,19,1
101,7,18,138,IA50_G40.bmp,IA50_G40.bmp,IA50.bmp,0,safe,,0.494471406,right,1,0.113308246,19,1
101,7,19,139,IA50_L10.bmp,IA50_L10.bmp,IA50.bmp,0,safe,,0.368135792,right,1,0.073373802,19,1
101,7,20,140,IA100_L20.bmp,IA100_L20.bmp,IA100.bmp,1,risk,,0.400191966,right,1,0.078585586,19,1
101,8,1,141,IA75_G30.bmp,IA75_G30.bmp,IA75.bmp,1,risk,right,1.985236661,left,0,1.126132265,19,1
101,8,2,142,IA50_L20.bmp,IA50_L20.bmp,IA50.bmp,1,risk,,1.452933116,left,0,0.135936801,19,1
101,8,3,143,IA50_L10.bmp,IA50_L10.bmp,IA50.bmp,0,safe,,0.830820977,right,1,0.124148768,19,1
101,8,4,144,IA25_L15.bmp,IA25_L15.bmp,IA25.bmp,1,risk,,0.426252883,left,0,0.103220703,19,1
101,8,5,145,IA75_G15.bmp,IA75_G15.bmp,IA75.bmp,1,risk,,0.558038198,left,0,0.167475692,19,1
101,8,6,146,IA25_L10.bmp,IA25_L10.bmp,IA25.bmp,1,risk,,0.894288699,right,1,0.040788063,19,1
101,8,7,147,IA40_20_L95p.bmp,IA40_20_L95p.bmp,IA40.bmp,1,risk,,0.407595093,right,1,0.255423135,19,1
101,8,8,148,IA50_G10.bmp,IA50_G10.bmp,IA50.bmp,0,safe,,0.333522789,left,0,0.080193541,19,1
101,8,9,149,IA20_10_L95p.bmp,IA20_10_L95p.bmp,IA20.bmp,0,safe,,0.44699367,right,1,0.227982707,19,1
101,8,10,150,IA100_G40.bmp,IA100_G40.bmp,IA100.bmp,1,risk,,0.682796583,left,0,0.02325033,19,1
101,8,11,151,IA80_40_L95p.bmp,IA80_40_L95p.bmp,IA80.bmp,0,safe,,0.326061131,right,1,0.52800601,19,1
101,8,12,152,IA50_L30.bmp,IA50_L30.bmp,IA50.bmp,1,risk,,0.966833022,left,0,0.045785923,19,1
101,8,13,153,IA100_G20.bmp,IA100_G20.bmp,IA100.bmp,1,risk,,0.699891834,left,0,0.496922853,19,1
101,8,14,154,IA80_40_G95p.bmp,IA80_40_G95p.bmp,IA80.bmp,1,risk,,1.015746331,left,0,0.260565186,19,1
101,8,15,155,IA110_55_L95p.bmp,IA110_55_L95p.bmp,IA110.bmp,1,risk,,0.602654471,right,1,0.233946873,19,1
101,8,16,156,IA25_G5.bmp,IA25_G5.bmp,IA25.bmp,0,safe,,0.696069122,left,0,0.067097777,19,1
101,8,17,157,IA25_L5.bmp,IA25_L5.bmp,IA25.bmp,0,safe,,0.769198759,right,1,0.080669622,19,1
101,8,18,158,IA75_G45.bmp,IA75_G45.bmp,IA75.bmp,0,safe,,0.743485908,left,0,0.05567918,19,1
101,8,19,159,IA25_L20.bmp,IA25_L20.bmp,IA25.bmp,0,safe,,0.973772055,left,0,0.220730001,19,1
101,8,20,160,IA50_L40.bmp,IA50_L40.bmp,IA50.bmp,0,safe,,0.522823573,left,0,0.180963916,19,1
101,9,1,161,IA50_L10.bmp,IA50_L10.bmp,IA50.bmp,0,safe,right,0.296371771,right,1,0.093167261,19,1
101,9,2,162,IA100_G20.bmp,IA100_G20.bmp,IA100.bmp,1,risk,,0.267263952,left,0,0.065498277,19,1
101,9,3,163,IA50_G40.bmp,IA50_G40.bmp,IA50.bmp,0,safe,,0.279599529,right,1,0.467685023,19,1
101,9,4,164,IA40_20_L95p.bmp,IA40_20_L95p.bmp,IA40.bmp,1,risk,,0.329783926,right,1,0.236460139,19,1
101,9,5,165,IA100_G60.bmp,IA100_G60.bmp,IA100.bmp,0,safe,,0.475282398,left,0,0.711548055,19,1
101,9,6,166,IA75_L45.bmp,IA75_L45.bmp,IA75.bmp,0,safe,,1.774357578,left,0,0.339196436,19,1
101,9,7,167,IA20_10_L95p.bmp,IA20_10_L95p.bmp,IA20.bmp,0,safe,,0.362006286,right,1,0.195962442,19,1
101,9,8,168,IA100_L60.bmp,IA100_L60.bmp,IA100.bmp,0,safe,,1.410775504,left,0,0.487267026,19,1
101,9,9,169,IA25_L15.bmp,IA25_L15.bmp,IA25.bmp,1,risk,,0.67735012,left,0,0.223688907,19,1
101,9,10,170,IA75_L60.bmp,IA75_L60.bmp,IA75.bmp,1,risk,,0.437778222,left,0,0.140221457,19,1
101,9,11,171,IA25_G10.bmp,IA25_G10.bmp,IA25.bmp,1,risk,,0.370999091,left,0,0.219540814,19,1
101,9,12,172,IA100_L40.bmp,IA100_L40.bmp,IA100.bmp,1,risk,,0.617645354,right,1,0.054801043,19,1
101,9,13,173,IA75_L15.bmp,IA75_L15.bmp,IA75.bmp,1,risk,,0.693603709,left,0,0.105356245,19,1
101,9,14,174,IA25_L10.bmp,IA25_L10.bmp,IA25.bmp,1,risk,,0.432148497,right,1,0.181867489,19,1
101,9,15,175,IA75_G60.bmp,IA75_G60.bmp,IA75.bmp,1,risk,,0.323963269,right,1,0.245208643,19,1
101,9,16,176,IA80_40_L95p.bmp,IA80_40_L95p.bmp,IA80.bmp,0,safe,,0.27602218,right,1,0.279396293,19,1
101,9,17,177,IA50_L20.bmp,IA50_L20.bmp,IA50.bmp,1,risk,,0.646200253,right,1,0.311813173,19,1
101,9,18,178,IA50_G20.bmp,IA50_G20.bmp,IA50.bmp,1,risk,,0.374632341,left,0,0.183888779,19,1
101,9,19,179,IA50_G10.bmp,IA50_G10.bmp,IA50.bmp,0,safe,,0.381975916,left,0,0.118511891,19,1
101,9,20,180,IA75_L30.bmp,IA75_L30.bmp,IA75.bmp,0,safe,,0.492656105,right,1,0.16819008,19,1
101,10,1,181,IA25_L5.bmp,IA25_L5.bmp,IA25.bmp,0,safe,left,0.955029958,right,1,0.218691774,19,1
101,10,2,182,IA100_L80.bmp,IA100_L80.bmp,IA100.bmp,1,risk,,0.552803556,left,0,0.122936864,19,1
101,10,3,183,IA20_10_G95p.bmp,IA20_10_G95p.bmp,IA20.bmp,1,risk,,0.409037476,left,0,0.096152141,19,1
101,10,4,184,IA75_G60.bmp,IA75_G60.bmp,IA75.bmp,1,risk,,2.206231906,right,1,0.632608851,19,1
101,10,5,185,IA80_40_L95p.bmp,IA80_40_L95p.bmp,IA80.bmp,0,safe,,0.33471776,right,1,0.168672406,19,1
101,10,6,186,IA25_L10.bmp,IA25_L10.bmp,IA25.bmp,1,risk,,0.510653238,right,1,0.048927055,19,1
101,10,7,187,IA110_55_G95p.bmp,IA110_55_G95p.bmp,IA110.bmp,1,risk,,0.519017709,left,0,0.178569353,19,1
101,10,8,188,IA50_G20.bmp,IA50_G20.bmp,IA50.bmp,1,risk,,0.481384464,left,0,0.174370942,19,1
101,10,9,189,IA100_G40.bmp,IA100_G40.bmp,IA100.bmp,1,risk,,0.341187273,left,0,0.175846692,19,1
101,10,10,190,IA75_G15.bmp,IA75_G15.bmp,IA75.bmp,1,risk,,0.838673877,left,0,0.332729962,19,1
101,10,11,191,IA50_L20.bmp,IA50_L20.bmp,IA50.bmp,1,risk,,0.338839254,right,1,0.077501709,19,1
101,10,12,192,IA25_L15.bmp,IA25_L15.bmp,IA25.bmp,1,risk,,0.252306469,left,0,0.617024311,19,1
101,10,13,193,IA75_G45.bmp,IA75_G45.bmp,IA75.bmp,0,safe,,0.551778146,left,0,0.223812413,19,1
101,10,14,194,IA25_G5.bmp,IA25_G5.bmp,IA25.bmp,0,safe,,0.525907841,left,0,0.128043152,19,1
101,10,15,195,IA100_L60.bmp,IA100_L60.bmp,IA100.bmp,0,safe,,0.894852894,left,0,0.217364784,19,1
101,10,16,196,IA50_L10.bmp,IA50_L10.bmp,IA50.bmp,0,safe,,0.319465141,right,1,0.162849566,19,1
101,10,17,197,IA75_L45.bmp,IA75_L45.bmp,IA75.bmp,0,safe,,0.512944241,right,1,0.059805078,19,1
101,10,18,198,IA100_G20.bmp,IA100_G20.bmp,IA100.bmp,1,risk,,1.377908137,left,0,0.176512228,19,1
101,10,19,199,IA25_G15.bmp,IA25_G15.bmp,IA25.bmp,1,risk,,0.518611458,right,1,0.264018656,19,1
101,10,20,200,IA75_L15.bmp,IA75_L15.bmp,IA75.bmp,1,risk,,0.286139655,right,1,0.186271672,19,1
107,1,1,1,IA50_G30.bmp,IA50_G30.bmp,IA50.bmp,1,risk,left,0.774734965,left,0,795.0835405,18,1
107,1,2,2,IA25_G10.bmp,IA25_G10.bmp,IA25.bmp,1,risk,,0.474155064,right,1,805.160118,18,1
107,1,3,3,IA50_G10.bmp,IA50_G10.bmp,IA50.bmp,0,safe,,0.443276895,left,0,815.8550023,18,1
107,1,4,4,IA100_G60.bmp,IA100_G60.bmp,IA100.bmp,0,safe,,0.381982229,left,0,825.9482811,18,1
107,1,5,5,IA50_L20.bmp,IA50_L20.bmp,IA50.bmp,1,risk,,0.951758046,left,0,836.6264637,18,1
107,1,6,6,IA75_L45.bmp,IA75_L45.bmp,IA75.bmp,0,safe,,,None,NA,849.3433201,18,1
107,1,7,7,IA20_10_L95p.bmp,IA20_10_L95p.bmp,IA20.bmp,0,safe,,1.142958201,right,1,861.4753187,18,1
107,1,8,8,IA50_G40.bmp,IA50_G40.bmp,IA50.bmp,0,safe,,0.352283184,left,0,873.1059954,18,1
107,1,9,9,IA100_G40.bmp,IA100_G40.bmp,IA100.bmp,1,risk,,1.165158806,right,1,884.6531153,18,1
107,1,10,10,IA80_40_L95p.bmp,IA80_40_L95p.bmp,IA80.bmp,0,safe,,1.074208916,right,1,896.3840674,18,1
107,1,11,11,IA50_L10.bmp,IA50_L10.bmp,IA50.bmp,0,safe,,1.119805172,left,0,907.9144664,18,1
107,1,12,12,IA40_20_G95p.bmp,IA40_20_G95p.bmp,IA40.bmp,0,safe,,0.668521857,left,0,921.5337299,18,1
107,1,13,13,IA80_40_G95p.bmp,IA80_40_G95p.bmp,IA80.bmp,1,risk,,1.042691336,left,0,933.6155841,18,1
107,1,14,14,IA100_L40.bmp,IA100_L40.bmp,IA100.bmp,1,risk,,0.578941512,right,1,945.647324,18,1
107,1,15,15,IA25_G5.bmp,IA25_G5.bmp,IA25.bmp,0,safe,,0.801256237,left,0,957.1610144,18,1
107,1,16,16,IA100_L20.bmp,IA100_L20.bmp,IA100.bmp,1,risk,,0.302318381,right,1,968.8919488,18,1
107,1,17,17,IA75_L60.bmp,IA75_L60.bmp,IA75.bmp,1,risk,,1.030769419,right,1,981.1074961,18,1
107,1,18,18,IA75_G45.bmp,IA75_G45.bmp,IA75.bmp,0,safe,,0.720991047,left,0,992.9052833,18,1
107,1,19,19,IA75_G30.bmp,IA75_G30.bmp,IA75.bmp,1,risk,,1.022943861,left,0,1004.80333,18,1
107,1,20,20,IA100_G20.bmp,IA100_G20.bmp,IA100.bmp,1,risk,,0.671572647,left,0,1016.450703,18,1
107,2,1,21,IA25_G10.bmp,IA25_G10.bmp,IA25.bmp,1,risk,right,0.643174634,left,0,1041.383103,18,1
107,2,2,22,IA40_20_G95p.bmp,IA40_20_G95p.bmp,IA40.bmp,0,safe,,0.331259701,left,0,1053.231012,18,1
107,2,3,23,IA25_L10.bmp,IA25_L10.bmp,IA25.bmp,1,risk,,1.548211543,left,0,1062.990062,18,1
107,2,4,24,IA25_G5.bmp,IA25_G5.bmp,IA25.bmp,0,safe,,,None,NA,1075.506406,18,1
107,2,5,25,IA20_10_L95p.bmp,IA20_10_L95p.bmp,IA20.bmp,0,safe,,0.570098963,right,1,1087.304174,18,1
107,2,6,26,IA80_40_G95p.bmp,IA80_40_G95p.bmp,IA80.bmp,1,risk,,1.189407104,left,0,1098.700869,18,1
107,2,7,27,IA100_G60.bmp,IA100_G60.bmp,IA100.bmp,0,safe,,0.361886985,left,0,1108.37638,18,1
107,2,8,28,IA50_L40.bmp,IA50_L40.bmp,IA50.bmp,0,safe,,1.366087761,left,0,1119.940186,18,1
107,2,9,29,IA100_L20.bmp,IA100_L20.bmp,IA100.bmp,1,risk,,1.31869681,right,1,1130.835577,18,1
107,2,10,30,IA100_L60.bmp,IA100_L60.bmp,IA100.bmp,0,safe,,1.233468439,left,0,1142.432802,18,1
107,2,11,31,IA25_L5.bmp,IA25_L5.bmp,IA25.bmp,0,safe,,1.113584657,left,0,1155.032688,18,1
107,2,12,32,IA75_L15.bmp,IA75_L15.bmp,IA75.bmp,1,risk,,0.252686262,right,1,1165.493589,18,1
107,2,13,33,IA80_40_L95p.bmp,IA80_40_L95p.bmp,IA80.bmp,0,safe,,0.731896228,right,1,1177.174374,18,1
107,2,14,34,IA110_55_G95p.bmp,IA110_55_G95p.bmp,IA110.bmp,1,risk,,1.107447907,left,0,1187.718828,18,1
107,2,15,35,IA50_G40.bmp,IA50_G40.bmp,IA50.bmp,0,safe,,0.237476953,left,0,1197.828796,18,1
107,2,16,36,IA50_L20.bmp,IA50_L20.bmp,IA50.bmp,1,risk,,0.277900328,right,1,1208.540366,18,1
107,2,17,37,IA110_55_L95p.bmp,IA110_55_L95p.bmp,IA110.bmp,1,risk,,0.285508303,right,1,1220.588778,18,1
107,2,18,38,IA100_L40.bmp,IA100_L40.bmp,IA100.bmp,1,risk,,0.295863041,right,1,1230.314405,18,1
107,2,19,39,IA75_L30.bmp,IA75_L30.bmp,IA75.bmp,0,safe,,0.248621134,right,1,1239.889644,18,1
107,2,20,40,IA25_L20.bmp,IA25_L20.bmp,IA25.bmp,0,safe,,0.514320235,left,0,1251.887944,18,1
107,3,1,41,IA40_20_G95p.bmp,IA40_20_G95p.bmp,IA40.bmp,0,safe,left,0.268753095,left,0,1278.54152,18,1
107,3,2,42,IA40_20_L95p.bmp,IA40_20_L95p.bmp,IA40.bmp,1,risk,,0.29339567,right,1,1290.188872,18,1
107,3,3,43,IA20_10_G95p.bmp,IA20_10_G95p.bmp,IA20.bmp,1,risk,,0.227145464,left,0,1300.399122,18,1
107,3,4,44,IA20_10_L95p.bmp,IA20_10_L95p.bmp,IA20.bmp,0,safe,,0.562870731,right,1,1310.375413,18,1
107,3,5,45,IA50_L40.bmp,IA50_L40.bmp,IA50.bmp,0,safe,,1.043323961,left,0,1322.590945,18,1
107,3,6,46,IA75_L60.bmp,IA75_L60.bmp,IA75.bmp,1,risk,,0.44274137,right,1,1334.455536,18,1
107,3,7,47,IA100_L20.bmp,IA100_L20.bmp,IA100.bmp,1,risk,,0.260195941,right,1,1344.014072,18,1
107,3,8,48,IA50_L20.bmp,IA50_L20.bmp,IA50.bmp,1,risk,,0.842355087,right,1,1356.095912,18,1
107,3,9,49,IA50_L30.bmp,IA50_L30.bmp,IA50.bmp,1,risk,,1.686413599,right,1,1368.979859,18,1
107,3,10,50,IA110_55_G95p.bmp,IA110_55_G95p.bmp,IA110.bmp,1,risk,,0.752643501,left,0,1380.77762,18,1
107,3,11,51,IA80_40_G95p.bmp,IA80_40_G95p.bmp,IA80.bmp,1,risk,,0.589504961,left,0,1390.820767,18,1
107,3,12,52,IA100_G20.bmp,IA100_G20.bmp,IA100.bmp,1,risk,,0.920457334,right,1,1402.601812,18,1
107,3,13,53,IA25_L5.bmp,IA25_L5.bmp,IA25.bmp,0,safe,,0.284258233,right,1,1412.294017,18,1
107,3,14,54,IA75_G30.bmp,IA75_G30.bmp,IA75.bmp,1,risk,,0.250901315,right,1,1422.671368,18,1
107,3,15,55,IA100_L60.bmp,IA100_L60.bmp,IA100.bmp,0,safe,,0.257708141,right,1,1432.480565,18,1
107,3,16,56,IA50_G10.bmp,IA50_G10.bmp,IA50.bmp,0,safe,,0.708660361,left,0,1444.261616,18,1
107,3,17,57,IA75_L15.bmp,IA75_L15.bmp,IA75.bmp,1,risk,,0.238141984,right,1,1453.820133,18,1
107,3,18,58,IA80_40_L95p.bmp,IA80_40_L95p.bmp,IA80.bmp,0,safe,,0.684230823,right,1,1463.646032,18,1
107,3,19,59,IA25_G20.bmp,IA25_G20.bmp,IA25.bmp,0,safe,,0.436335346,right,1,1473.237941,18,1
107,3,20,60,IA100_G40.bmp,IA100_G40.bmp,IA100.bmp,1,risk,,0.655053521,left,0,1484.83522,18,1
107,4,1,61,IA50_G30.bmp,IA50_G30.bmp,IA50.bmp,1,risk,right,0.799916116,right,1,1513.594357,18,1
107,4,2,62,IA75_G45.bmp,IA75_G45.bmp,IA75.bmp,0,safe,,1.799161982,left,0,1526.027117,18,1
107,4,3,63,IA100_G80.bmp,IA100_G80.bmp,IA100.bmp,1,risk,,0.688815293,left,0,1535.769458,18,1
107,4,4,64,IA100_G60.bmp,IA100_G60.bmp,IA100.bmp,0,safe,,0.28298755,left,0,1545.311277,18,1
107,4,5,65,IA100_L80.bmp,IA100_L80.bmp,IA100.bmp,1,risk,,1.231886472,right,1,1556.858396,18,1
107,4,6,66,IA75_G60.bmp,IA75_G60.bmp,IA75.bmp,1,risk,,0.299323553,left,0,1566.934949,18,1
107,4,7,67,IA80_40_G95p.bmp,IA80_40_G95p.bmp,IA80.bmp,1,risk,,1.54565337,left,0,1578.448623,18,1
107,4,8,68,IA50_L40.bmp,IA50_L40.bmp,IA50.bmp,0,safe,,1.855465872,left,0,1590.914809,18,1
107,4,9,69,IA100_G20.bmp,IA100_G20.bmp,IA100.bmp,1,risk,,0.444179884,right,1,1603.030089,18,1
107,4,10,70,IA75_L45.bmp,IA75_L45.bmp,IA75.bmp,0,safe,,1.248946894,right,1,1615.897325,18,1
107,4,11,71,IA75_L60.bmp,IA75_L60.bmp,IA75.bmp,1,risk,,0.571002513,right,1,1627.511272,18,1
107,4,12,72,IA50_G20.bmp,IA50_G20.bmp,IA50.bmp,1,risk,,0.24730768,left,0,1637.00296,18,1
107,4,13,73,IA50_L20.bmp,IA50_L20.bmp,IA50.bmp,1,risk,,0.391732051,right,1,1646.962539,18,1
107,4,14,74,IA25_G10.bmp,IA25_G10.bmp,IA25.bmp,1,risk,,0.665592222,right,1,1659.144676,18,1
107,4,15,75,IA110_55_L95p.bmp,IA110_55_L95p.bmp,IA110.bmp,1,risk,,0.204692641,right,1,1668.853583,18,1
107,4,16,76,IA100_L40.bmp,IA100_L40.bmp,IA100.bmp,1,risk,,0.185197819,right,1,1678.529086,18,1
107,4,17,77,IA25_L15.bmp,IA25_L15.bmp,IA25.bmp,1,risk,,0.312776992,right,1,1690.57751,18,1
107,4,18,78,IA20_10_L95p.bmp,IA20_10_L95p.bmp,IA20.bmp,0,safe,,0.244369149,right,1,1700.0859,18,1
107,4,19,79,IA75_L30.bmp,IA75_L30.bmp,IA75.bmp,0,safe,,0.249399847,right,1,1709.560883,18,1
107,4,20,80,IA80_40_L95p.bmp,IA80_40_L95p.bmp,IA80.bmp,0,safe,,0.26900945,right,1,1719.069262,18,1
107,5,1,81,IA100_G80.bmp,IA100_G80.bmp,IA100.bmp,1,risk,right,0.292790113,left,0,1747.477483,18,1
107,5,2,82,IA75_G15.bmp,IA75_G15.bmp,IA75.bmp,1,risk,,0.250010297,right,1,1757.888262,18,1
107,5,3,83,IA100_L20.bmp,IA100_L20.bmp,IA100.bmp,1,risk,,0.292930326,right,1,1767.413353,18,1
107,5,4,84,IA20_10_L95p.bmp,IA20_10_L95p.bmp,IA20.bmp,0,safe,,0.274876674,right,1,1777.055411,18,1
107,5,5,85,IA110_55_L95p.bmp,IA110_55_L95p.bmp,IA110.bmp,1,risk,,0.292308104,right,1,1786.613967,18,1
107,5,6,86,IA50_L20.bmp,IA50_L20.bmp,IA50.bmp,1,risk,,0.338994057,right,1,1798.495281,18,1
107,5,7,87,IA25_L10.bmp,IA25_L10.bmp,IA25.bmp,1,risk,,0.275758657,right,1,1808.070514,18,1
107,5,8,88,IA75_L60.bmp,IA75_L60.bmp,IA75.bmp,1,risk,,1.351579516,right,1,1820.018685,18,1
107,5,9,89,IA50_L30.bmp,IA50_L30.bmp,IA50.bmp,1,risk,,0.303510062,right,1,1831.682763,18,1
107,5,10,90,IA20_10_G95p.bmp,IA20_10_G95p.bmp,IA20.bmp,1,risk,,0.647246013,left,0,1842.411024,18,1
107,5,11,91,IA50_G20.bmp,IA50_G20.bmp,IA50.bmp,1,risk,,0.259544249,left,0,1851.902727,18,1
107,5,12,92,IA75_G60.bmp,IA75_G60.bmp,IA75.bmp,1,risk,,0.271337808,left,0,1861.594935,18,1
107,5,13,93,IA110_55_G95p.bmp,IA110_55_G95p.bmp,IA110.bmp,1,risk,,0.201177299,left,0,1871.521095,18,1
107,5,14,94,IA100_L80.bmp,IA100_L80.bmp,IA100.bmp,1,risk,,0.262796404,right,1,1883.051477,18,1
107,5,15,95,IA25_L5.bmp,IA25_L5.bmp,IA25.bmp,0,safe,,0.401697375,right,1,1892.57658,18,1
107,5,16,96,IA100_G20.bmp,IA100_G20.bmp,IA100.bmp,1,risk,,0.242443802,left,0,1902.151831,18,1
107,5,17,97,IA40_20_L95p.bmp,IA40_20_L95p.bmp,IA40.bmp,1,risk,,0.23663138,right,1,1911.693645,18,1
107,5,18,98,IA75_L15.bmp,IA75_L15.bmp,IA75.bmp,1,risk,,0.216946856,right,1,1921.185326,18,1
107,5,19,99,IA75_G30.bmp,IA75_G30.bmp,IA75.bmp,1,risk,,0.118173574,left,0,1930.844111,18,1
107,5,20,100,IA25_G15.bmp,IA25_G15.bmp,IA25.bmp,1,risk,,1.799335674,left,0,1943.042937,18,1
107,6,1,101,IA50_L10.bmp,IA50_L10.bmp,IA50.bmp,0,safe,right,0.802581027,right,1,1966.855688,18,1
107,6,2,102,IA80_40_G95p.bmp,IA80_40_G95p.bmp,IA80.bmp,1,risk,,0.276046105,left,0,1976.414212,18,1
107,6,3,103,IA20_10_L95p.bmp,IA20_10_L95p.bmp,IA20.bmp,0,safe,,0.262232414,right,1,1985.956039,18,1
107,6,4,104,IA25_L5.bmp,IA25_L5.bmp,IA25.bmp,0,safe,,0.298734832,right,1,1995.63153,18,1
107,6,5,105,IA40_20_L95p.bmp,IA40_20_L95p.bmp,IA40.bmp,1,risk,,0.215059701,right,1,2005.123213,18,1
107,6,6,106,IA80_40_L95p.bmp,IA80_40_L95p.bmp,IA80.bmp,0,safe,,0.351087493,right,1,2014.715171,18,1
107,6,7,107,IA75_G15.bmp,IA75_G15.bmp,IA75.bmp,1,risk,,0.414823141,left,0,2024.691452,18,1
107,6,8,108,IA100_G60.bmp,IA100_G60.bmp,IA100.bmp,0,safe,,0.262166181,left,0,2034.300118,18,1
107,6,9,109,IA20_10_G95p.bmp,IA20_10_G95p.bmp,IA20.bmp,1,risk,,0.273763872,left,0,2043.808508,18,1
107,6,10,110,IA100_G40.bmp,IA100_G40.bmp,IA100.bmp,1,risk,,0.248395187,left,0,2053.43387,18,1
107,6,11,111,IA75_L45.bmp,IA75_L45.bmp,IA75.bmp,0,safe,,0.233530841,right,1,2063.376742,18,1
107,6,12,112,IA100_L20.bmp,IA100_L20.bmp,IA100.bmp,1,risk,,0.26041528,right,1,2072.901857,18,1
107,6,13,113,IA25_G20.bmp,IA25_G20.bmp,IA25.bmp,0,safe,,0.093380038,right,1,2082.660905,18,1
107,6,14,114,IA75_G30.bmp,IA75_G30.bmp,IA75.bmp,1,risk,,0.174851274,left,0,2092.219422,18,1
107,6,15,115,IA50_L20.bmp,IA50_L20.bmp,IA50.bmp,1,risk,,0.210628221,right,1,2101.911637,18,1
107,6,16,116,IA50_G30.bmp,IA50_G30.bmp,IA50.bmp,1,risk,,0.550422913,left,0,2111.603856,18,1
107,6,17,117,IA25_L20.bmp,IA25_L20.bmp,IA25.bmp,0,safe,,0.353749864,left,0,2123.752528,18,1
107,6,18,118,IA100_L40.bmp,IA100_L40.bmp,IA100.bmp,1,risk,,0.517183375,right,1,2133.829081,18,1
107,6,19,119,IA25_L15.bmp,IA25_L15.bmp,IA25.bmp,1,risk,,0.652883272,right,1,2143.805387,18,1
107,6,20,120,IA75_L15.bmp,IA75_L15.bmp,IA75.bmp,1,risk,,0.705269231,right,1,2155.553007,18,1
107,7,1,121,IA25_L5.bmp,IA25_L5.bmp,IA25.bmp,0,safe,right,0.643439819,right,1,2179.014832,18,1
107,7,2,122,IA80_40_L95p.bmp,IA80_40_L95p.bmp,IA80.bmp,0,safe,,0.071240751,right,1,2188.707043,18,1
107,7,3,123,IA40_20_G95p.bmp,IA40_20_G95p.bmp,IA40.bmp,0,safe,,0.255834594,left,0,2198.850445,18,1
107,7,4,124,IA75_G60.bmp,IA75_G60.bmp,IA75.bmp,1,risk,,0.175887833,left,0,2208.442384,18,1
107,7,5,125,IA100_L80.bmp,IA100_L80.bmp,IA100.bmp,1,risk,,0.78414012,right,1,2218.970129,18,1
107,7,6,126,IA25_L10.bmp,IA25_L10.bmp,IA25.bmp,1,risk,,0.809263248,right,1,2228.913013,18,1
107,7,7,127,IA100_L20.bmp,IA100_L20.bmp,IA100.bmp,1,risk,,0.290765704,right,1,2238.471519,18,1
107,7,8,128,IA50_L30.bmp,IA50_L30.bmp,IA50.bmp,1,risk,,0.273105416,right,1,2250.737177,18,1
107,7,9,129,IA75_L15.bmp,IA75_L15.bmp,IA75.bmp,1,risk,,0.097328836,right,1,2260.512941,18,1
107,7,10,130,IA110_55_L95p.bmp,IA110_55_L95p.bmp,IA110.bmp,1,risk,,0.204600267,right,1,2270.405676,18,1
107,7,11,131,IA50_G10.bmp,IA50_G10.bmp,IA50.bmp,0,safe,,0.727891119,left,0,2282.554357,18,1
107,7,12,132,IA25_G5.bmp,IA25_G5.bmp,IA25.bmp,0,safe,,0.188600064,left,0,2292.413684,18,1
107,7,13,133,IA110_55_G95p.bmp,IA110_55_G95p.bmp,IA110.bmp,1,risk,,0.224389422,left,0,2302.105881,18,1
107,7,14,134,IA100_G20.bmp,IA100_G20.bmp,IA100.bmp,1,risk,,0.404074369,right,1,2314.622198,18,1
107,7,15,135,IA50_G30.bmp,IA50_G30.bmp,IA50.bmp,1,risk,,0.200571761,right,1,2324.297706,18,1
107,7,16,136,IA80_40_G95p.bmp,IA80_40_G95p.bmp,IA80.bmp,1,risk,,0.208457737,left,0,2333.705819,18,1
107,7,17,137,IA50_L10.bmp,IA50_L10.bmp,IA50.bmp,0,safe,,0.223963297,right,1,2343.498306,18,1
107,7,18,138,IA100_G40.bmp,IA100_G40.bmp,IA100.bmp,1,risk,,0.081456702,left,0,2353.056815,18,1
107,7,19,139,IA50_L20.bmp,IA50_L20.bmp,IA50.bmp,1,risk,,0.94035225,right,1,2362.581922,18,1
107,7,20,140,IA20_10_G95p.bmp,IA20_10_G95p.bmp,IA20.bmp,1,risk,,0.229143133,left,0,2372.909127,18,1
107,8,1,141,IA25_G20.bmp,IA25_G20.bmp,IA25.bmp,0,safe,left,0.316910889,right,1,2392.477356,18,1
107,8,2,142,IA50_G30.bmp,IA50_G30.bmp,IA50.bmp,1,risk,,0.23553711,left,0,2402.10273,18,1
107,8,3,143,IA25_G15.bmp,IA25_G15.bmp,IA25.bmp,1,risk,,0.305200298,right,1,2415.137072,18,1
107,8,4,144,IA100_G80.bmp,IA100_G80.bmp,IA100.bmp,1,risk,,0.633970275,left,0,2424.712301,18,1
107,8,5,145,IA25_L20.bmp,IA25_L20.bmp,IA25.bmp,0,safe,,0.688815639,left,0,2435.27346,18,1
107,8,6,146,IA50_G20.bmp,IA50_G20.bmp,IA50.bmp,1,risk,,1.557521512,left,0,2446.636751,18,1
107,8,7,147,IA20_10_G95p.bmp,IA20_10_G95p.bmp,IA20.bmp,1,risk,,0.240443841,left,0,2456.161834,18,1
107,8,8,148,IA25_L10.bmp,IA25_L10.bmp,IA25.bmp,1,risk,,0.636759055,right,1,2465.653516,18,1
107,8,9,149,IA50_L10.bmp,IA50_L10.bmp,IA50.bmp,0,safe,,0.257960348,right,1,2475.312311,18,1
107,8,10,150,IA75_G30.bmp,IA75_G30.bmp,IA75.bmp,1,risk,,0.218925119,left,0,2485.07135,18,1
107,8,11,151,IA75_L15.bmp,IA75_L15.bmp,IA75.bmp,1,risk,,0.152846447,right,1,2494.713434,18,1
107,8,12,152,IA25_L5.bmp,IA25_L5.bmp,IA25.bmp,0,safe,,0.323949151,right,1,2505.174322,18,1
107,8,13,153,IA75_G60.bmp,IA75_G60.bmp,IA75.bmp,1,risk,,0.284716545,left,0,2514.749552,18,1
107,8,14,154,IA50_L30.bmp,IA50_L30.bmp,IA50.bmp,1,risk,,0.205495856,right,1,2524.324786,18,1
107,8,15,155,IA110_55_G95p.bmp,IA110_55_G95p.bmp,IA110.bmp,1,risk,,0.265107395,left,0,2533.833175,18,1
107,8,16,156,IA25_L15.bmp,IA25_L15.bmp,IA25.bmp,1,risk,,0.457525346,right,1,2543.792749,18,1
107,8,17,157,IA75_L60.bmp,IA75_L60.bmp,IA75.bmp,1,risk,,1.011911949,right,1,2554.270358,18,1
107,8,18,158,IA25_G5.bmp,IA25_G5.bmp,IA25.bmp,0,safe,,0.42269084,left,0,2565.867582,18,1
107,8,19,159,IA75_G15.bmp,IA75_G15.bmp,IA75.bmp,1,risk,,0.620093165,left,0,2575.710182,18,1
107,8,20,160,IA80_40_G95p.bmp,IA80_40_G95p.bmp,IA80.bmp,1,risk,,0.765038705,left,0,2585.469232,18,1
107,9,1,161,IA50_L20.bmp,IA50_L20.bmp,IA50.bmp,1,risk,right,0.13860776,right,1,2602.079669,18,1
107,9,2,162,IA110_55_L95p.bmp,IA110_55_L95p.bmp,IA110.bmp,1,risk,,0.643771651,right,1,2613.526497,18,1
107,9,3,163,IA75_G45.bmp,IA75_G45.bmp,IA75.bmp,0,safe,,1.069457886,left,0,2624.772806,18,1
107,9,4,164,IA100_L40.bmp,IA100_L40.bmp,IA100.bmp,1,risk,,0.09495236,right,1,2634.331315,18,1
107,9,5,165,IA75_G15.bmp,IA75_G15.bmp,IA75.bmp,1,risk,,0.93571657,left,0,2643.906556,18,1
107,9,6,166,IA100_G60.bmp,IA100_G60.bmp,IA100.bmp,0,safe,,0.586616205,left,0,2653.431643,18,1
107,9,7,167,IA75_L45.bmp,IA75_L45.bmp,IA75.bmp,0,safe,,0.052111729,right,1,2662.990163,18,1
107,9,8,168,IA40_20_L95p.bmp,IA40_20_L95p.bmp,IA40.bmp,1,risk,,0.37768334,right,1,2673.016584,18,1
107,9,9,169,IA25_G15.bmp,IA25_G15.bmp,IA25.bmp,1,risk,,0.656674039,left,0,2682.25761,18,1
107,9,10,170,IA25_G20.bmp,IA25_G20.bmp,IA25.bmp,0,safe,,,None,NA,2691.598887,18,1
107,9,11,171,IA100_L20.bmp,IA100_L20.bmp,IA100.bmp,1,risk,,0.271402057,right,1,2702.226885,18,1
107,9,12,172,IA75_L60.bmp,IA75_L60.bmp,IA75.bmp,1,risk,,0.281812104,right,1,2714.208452,18,1
107,9,13,173,IA50_G30.bmp,IA50_G30.bmp,IA50.bmp,1,risk,,0.280616957,left,0,2724.017647,18,1
107,9,14,174,IA25_L15.bmp,IA25_L15.bmp,IA25.bmp,1,risk,,0.119966903,right,1,2733.626306,18,1
107,9,15,175,IA100_L60.bmp,IA100_L60.bmp,IA100.bmp,0,safe,,0.008036719,right,1,2743.218232,18,1
107,9,16,176,IA75_L30.bmp,IA75_L30.bmp,IA75.bmp,0,safe,,0.300919683,right,1,2753.261352,18,1
107,9,17,177,IA100_G20.bmp,IA100_G20.bmp,IA100.bmp,1,risk,,0.254396438,left,0,2762.819877,18,1
107,9,18,178,IA25_G10.bmp,IA25_G10.bmp,IA25.bmp,1,risk,,0.130706252,left,0,2772.311561,18,1
107,9,19,179,IA50_G10.bmp,IA50_G10.bmp,IA50.bmp,0,safe,,,None,NA,2784.159447,18,1
107,9,20,180,IA110_55_G95p.bmp,IA110_55_G95p.bmp,IA110.bmp,1,risk,,0.509217826,left,0,2793.885057,18,1
107,10,1,181,IA75_L15.bmp,IA75_L15.bmp,IA75.bmp,1,risk,right,0.254397528,right,1,2813.419878,18,1
107,10,2,182,IA75_L45.bmp,IA75_L45.bmp,IA75.bmp,0,safe,,0.316513728,right,1,2823.245767,18,1
107,10,3,183,IA100_L80.bmp,IA100_L80.bmp,IA100.bmp,1,risk,,0.646233943,right,1,2835.244035,18,1
107,10,4,184,IA25_L20.bmp,IA25_L20.bmp,IA25.bmp,0,safe,,1.745055401,left,0,2847.593215,18,1
107,10,5,185,IA25_G15.bmp,IA25_G15.bmp,IA25.bmp,1,risk,,0.188624796,right,1,2857.101644,18,1
107,10,6,186,IA20_10_G95p.bmp,IA20_10_G95p.bmp,IA20.bmp,1,risk,,0.192964832,left,0,2866.593302,18,1
107,10,7,187,IA100_G60.bmp,IA100_G60.bmp,IA100.bmp,0,safe,,0.237280839,left,0,2876.084992,18,1
107,10,8,188,IA25_L15.bmp,IA25_L15.bmp,IA25.bmp,1,risk,,0.673515825,right,1,2888.400758,18,1
107,10,9,189,IA25_G5.bmp,IA25_G5.bmp,IA25.bmp,0,safe,,0.261129812,left,0,2897.909143,18,1
107,10,10,190,IA25_G20.bmp,IA25_G20.bmp,IA25.bmp,0,safe,,0.143842213,right,1,2907.250423,18,1
107,10,11,191,IA75_L60.bmp,IA75_L60.bmp,IA75.bmp,1,risk,,0.096596105,right,1,2916.825668,18,1
107,10,12,192,IA20_10_L95p.bmp,IA20_10_L95p.bmp,IA20.bmp,0,safe,,1.168349273,right,1,2927.553929,18,1
107,10,13,193,IA50_G20.bmp,IA50_G20.bmp,IA50.bmp,1,risk,,0.670637406,left,0,2937.563637,18,1
107,10,14,194,IA75_G15.bmp,IA75_G15.bmp,IA75.bmp,1,risk,,0.550886077,left,0,2947.339385,18,1
107,10,15,195,IA100_G80.bmp,IA100_G80.bmp,IA100.bmp,1,risk,,0.209082012,left,0,2956.881203,18,1
107,10,16,196,IA25_G10.bmp,IA25_G10.bmp,IA25.bmp,1,risk,,0.483802858,left,0,2966.974461,18,1
107,10,17,197,IA110_55_G95p.bmp,IA110_55_G95p.bmp,IA110.bmp,1,risk,,0.654721963,left,0,2976.499551,18,1
107,10,18,198,IA100_G40.bmp,IA100_G40.bmp,IA100.bmp,1,risk,,0.199856362,left,0,2986.442412,18,1
107,10,19,199,IA50_L10.bmp,IA50_L10.bmp,IA50.bmp,0,safe,,0.097164942,right,1,2995.817113,18,1
107,10,20,200,IA80_40_G95p.bmp,IA80_40_G95p.bmp,IA80.bmp,1,risk,,0.313029786,left,0,3005.225241,18,1
109,1,1,1,IA25_G15.bmp,IA25_G15.bmp,IA25.bmp,1,risk,left,0.502224322,right,1,774.462582,18,1
109,1,2,2,IA75_G30.bmp,IA75_G30.bmp,IA75.bmp,1,risk,,1.066217746,left,0,785.0905894,18,1
109,1,3,3,IA40_20_L95p.bmp,IA40_20_L95p.bmp,IA40.bmp,1,risk,,0.947768303,right,1,796.9050367,18,1
109,1,4,4,IA100_G20.bmp,IA100_G20.bmp,IA100.bmp,1,risk,,0.966709199,left,0,808.6860906,18,1
109,1,5,5,IA20_10_L95p.bmp,IA20_10_L95p.bmp,IA20.bmp,0,safe,,1.329880942,left,0,820.6509345,18,1
109,1,6,6,IA40_20_G95p.bmp,IA40_20_G95p.bmp,IA40.bmp,0,safe,,0.488761153,left,0,832.7160581,18,1
109,1,7,7,IA75_L45.bmp,IA75_L45.bmp,IA75.bmp,0,safe,,1.297246955,left,0,844.9315699,18,1
109,1,8,8,IA50_L10.bmp,IA50_L10.bmp,IA50.bmp,0,safe,,,None,NA,857.6149842,18,1
109,1,9,9,IA75_L15.bmp,IA75_L15.bmp,IA75.bmp,1,risk,,0.677723331,right,1,867.7750823,18,1
109,1,10,10,IA100_L20.bmp,IA100_L20.bmp,IA100.bmp,1,risk,,0.904681479,right,1,879.5561253,18,1
109,1,11,11,IA50_L30.bmp,IA50_L30.bmp,IA50.bmp,1,risk,,0.359016359,left,0,890.3177907,18,1
109,1,12,12,IA100_L40.bmp,IA100_L40.bmp,IA100.bmp,1,risk,,1.223669837,right,1,902.7171383,18,1
109,1,13,13,IA100_G40.bmp,IA100_G40.bmp,IA100.bmp,1,risk,,1.110199655,left,0,914.414609,18,1
109,1,14,14,IA100_G60.bmp,IA100_G60.bmp,IA100.bmp,0,safe,,1.058407227,left,0,926.7304032,18,1
109,1,15,15,IA100_L60.bmp,IA100_L60.bmp,IA100.bmp,0,safe,,1.701382289,left,0,939.2634211,18,1
109,1,16,16,IA80_40_L95p.bmp,IA80_40_L95p.bmp,IA80.bmp,0,safe,,0.632028725,left,0,952.1807784,18,1
109,1,17,17,IA50_L20.bmp,IA50_L20.bmp,IA50.bmp,0,0,,,None,NA,1.318135464,18,1
109,1,18,18,IA50_G40.bmp,IA50_G40.bmp,IA50.bmp,0,safe,,1.266961599,left,0,977.129841,18,1
109,1,19,19,IA80_40_G95p.bmp,IA80_40_G95p.bmp,IA80.bmp,1,risk,,1.183415795,left,0,991.133388,18,1
109,1,20,20,IA110_55_G95p.bmp,IA110_55_G95p.bmp,IA110.bmp,1,risk,,0.802698612,left,0,1001.026115,18,1
109,2,1,21,IA50_L10.bmp,IA50_L10.bmp,IA50.bmp,0,safe,left,1.874483205,right,1,1034.514338,18,1
109,2,2,22,IA25_G5.bmp,IA25_G5.bmp,IA25.bmp,0,safe,,0.546368098,left,0,1045.426433,18,1
109,2,3,23,IA20_10_L95p.bmp,IA20_10_L95p.bmp,IA20.bmp,0,safe,,1.719268197,right,1,1056.221536,18,1
109,2,4,24,IA25_L10.bmp,IA25_L10.bmp,IA25.bmp,1,risk,,,None,NA,1068.203089,18,1
109,2,5,25,IA40_20_L95p.bmp,IA40_20_L95p.bmp,IA40.bmp,1,risk,,0.57358501,right,1,1080.90322,18,1
109,2,6,26,IA110_55_L95p.bmp,IA110_55_L95p.bmp,IA110.bmp,1,risk,,0.355586296,right,1,1092.801222,18,1
109,2,7,27,IA100_L80.bmp,IA100_L80.bmp,IA100.bmp,1,risk,,0.473937689,left,0,1105.066882,18,1
109,2,8,28,IA80_40_L95p.bmp,IA80_40_L95p.bmp,IA80.bmp,0,safe,,0.696745555,right,1,1114.876056,18,1
109,2,9,29,IA25_G15.bmp,IA25_G15.bmp,IA25.bmp,1,risk,,1.765303792,right,1,1126.807493,18,1
109,2,10,30,IA80_40_G95p.bmp,IA80_40_G95p.bmp,IA80.bmp,1,risk,,0.577318739,left,0,1137.435491,18,1
109,2,11,31,IA100_L20.bmp,IA100_L20.bmp,IA100.bmp,1,risk,,1.026360578,right,1,1150.202446,18,1
109,2,12,32,IA75_L60.bmp,IA75_L60.bmp,IA75.bmp,1,risk,,0.854878416,left,0,1159.877932,18,1
109,2,13,33,IA75_L30.bmp,IA75_L30.bmp,IA75.bmp,0,safe,,0.682004266,left,0,1171.8428,18,1
109,2,14,34,IA110_55_G95p.bmp,IA110_55_G95p.bmp,IA110.bmp,1,risk,,0.925277247,left,0,1181.735532,18,1
109,2,15,35,IA50_G30.bmp,IA50_G30.bmp,IA50.bmp,1,risk,,1.26727548,left,0,1193.63353,18,1
109,2,16,36,IA75_G30.bmp,IA75_G30.bmp,IA75.bmp,1,risk,,1.086946091,left,0,1205.397855,18,1
109,2,17,37,IA25_L5.bmp,IA25_L5.bmp,IA25.bmp,0,safe,,0.693663939,right,1,1218.031147,18,1
109,2,18,38,IA100_G60.bmp,IA100_G60.bmp,IA100.bmp,0,safe,,0.567562921,left,0,1230.213241,18,1
109,2,19,39,IA50_L30.bmp,IA50_L30.bmp,IA50.bmp,1,risk,,1.904217262,left,0,1241.860582,18,1
109,2,20,40,IA40_20_G95p.bmp,IA40_20_G95p.bmp,IA40.bmp,0,safe,,0.80654568,left,0,1252.622262,18,1
109,3,1,41,IA100_L40.bmp,IA100_L40.bmp,IA100.bmp,1,risk,right,1.479655601,left,0,1282.317163,18,1
109,3,2,42,IA75_G60.bmp,IA75_G60.bmp,IA75.bmp,1,risk,,0.895051684,right,1,1294.181765,18,1
109,3,3,43,IA20_10_G95p.bmp,IA20_10_G95p.bmp,IA20.bmp,1,risk,,1.5106256,left,0,1305.478189,18,1
109,3,4,44,IA25_G20.bmp,IA25_G20.bmp,IA25.bmp,0,safe,,0.58610669,right,1,1316.306707,18,1
109,3,5,45,IA110_55_L95p.bmp,IA110_55_L95p.bmp,IA110.bmp,1,risk,,0.282942631,right,1,1328.889856,18,1
109,3,6,46,IA75_L30.bmp,IA75_L30.bmp,IA75.bmp,0,safe,,0.360229951,left,0,1340.804576,18,1
109,3,7,47,IA50_G40.bmp,IA50_G40.bmp,IA50.bmp,0,safe,,1.168857864,left,0,1352.451939,18,1
109,3,8,48,IA80_40_G95p.bmp,IA80_40_G95p.bmp,IA80.bmp,1,risk,,1.521169456,left,0,1364.483638,18,1
109,3,9,49,IA25_G15.bmp,IA25_G15.bmp,IA25.bmp,1,risk,,1.06796014,right,1,1376.832836,18,1
109,3,10,50,IA25_G5.bmp,IA25_G5.bmp,IA25.bmp,0,safe,,0.904230791,left,0,1390.652576,18,1
109,3,11,51,IA50_L10.bmp,IA50_L10.bmp,IA50.bmp,0,safe,,0.2748266,right,1,1401.313984,18,1
109,3,12,52,IA100_L20.bmp,IA100_L20.bmp,IA100.bmp,1,risk,,1.024807089,right,1,1413.211996,18,1
109,3,13,53,IA100_G60.bmp,IA100_G60.bmp,IA100.bmp,0,safe,,0.486248909,left,0,1426.062549,18,1
109,3,14,54,IA110_55_G95p.bmp,IA110_55_G95p.bmp,IA110.bmp,1,risk,,0.335282396,left,0,1438.077516,18,1
109,3,15,55,IA50_G20.bmp,IA50_G20.bmp,IA50.bmp,1,risk,,1.137567321,left,0,1449.87525,18,1
109,3,16,56,IA40_20_G95p.bmp,IA40_20_G95p.bmp,IA40.bmp,0,safe,,0.281145346,left,0,1461.923661,18,1
109,3,17,57,IA100_G80.bmp,IA100_G80.bmp,IA100.bmp,1,risk,,0.239851636,right,1,1473.80497,18,1
109,3,18,58,IA20_10_L95p.bmp,IA20_10_L95p.bmp,IA20.bmp,0,safe,,0.232629953,right,1,1484.132176,18,1
109,3,19,59,IA75_G45.bmp,IA75_G45.bmp,IA75.bmp,0,safe,,0.76661913,left,0,1496.030178,18,1
109,3,20,60,IA50_G30.bmp,IA50_G30.bmp,IA50.bmp,1,risk,,,None,NA,1506.290545,18,1
109,4,1,61,IA75_G60.bmp,IA75_G60.bmp,IA75.bmp,1,risk,right,1.258696505,right,1,1529.418121,18,1
109,4,2,62,IA100_G80.bmp,IA100_G80.bmp,IA100.bmp,1,risk,,0.331700246,right,1,1541.433108,18,1
109,4,3,63,IA25_G20.bmp,IA25_G20.bmp,IA25.bmp,0,safe,,0.193653771,right,1,1551.827158,18,1
109,4,4,64,IA25_G5.bmp,IA25_G5.bmp,IA25.bmp,0,safe,,0.349252517,left,0,1563.591541,18,1
109,4,5,65,IA40_20_G95p.bmp,IA40_20_G95p.bmp,IA40.bmp,0,safe,,0.246287687,left,0,1574.102531,18,1
109,4,6,66,IA100_L40.bmp,IA100_L40.bmp,IA100.bmp,1,risk,,,None,NA,1586.969785,18,1
109,4,7,67,IA50_G30.bmp,IA50_G30.bmp,IA50.bmp,1,risk,,1.533824004,right,1,1598.566975,18,1
109,4,8,68,IA25_L10.bmp,IA25_L10.bmp,IA25.bmp,1,risk,,1.082202582,left,0,1610.314601,18,1
109,4,9,69,IA75_L15.bmp,IA75_L15.bmp,IA75.bmp,1,risk,,0.385577474,right,1,1619.923241,18,1
109,4,10,70,IA50_G20.bmp,IA50_G20.bmp,IA50.bmp,1,risk,,1.791192227,right,1,1631.453613,18,1
109,4,11,71,IA50_G40.bmp,IA50_G40.bmp,IA50.bmp,0,safe,,0.612468844,right,1,1643.368336,18,1
109,4,12,72,IA100_G40.bmp,IA100_G40.bmp,IA100.bmp,1,risk,,0.96156332,left,0,1655.099242,18,1
109,4,13,73,IA75_G15.bmp,IA75_G15.bmp,IA75.bmp,1,risk,,1.301938194,left,0,1666.846863,18,1
109,4,14,74,IA20_10_G95p.bmp,IA20_10_G95p.bmp,IA20.bmp,1,risk,,1.721649259,left,0,1680.115159,18,1
109,4,15,75,IA50_L40.bmp,IA50_L40.bmp,IA50.bmp,0,safe,,1.474869072,left,0,1693.065942,18,1
109,4,16,76,IA25_G15.bmp,IA25_G15.bmp,IA25.bmp,1,risk,,0.356431413,right,1,1705.632373,18,1
109,4,17,77,IA25_L5.bmp,IA25_L5.bmp,IA25.bmp,0,safe,,0.283958452,right,1,1715.424849,18,1
109,4,18,78,IA50_L30.bmp,IA50_L30.bmp,IA50.bmp,1,risk,,1.869109818,left,0,1726.871695,18,1
109,4,19,79,IA110_55_L95p.bmp,IA110_55_L95p.bmp,IA110.bmp,1,risk,,1.064145732,right,1,1740.156661,18,1
109,4,20,80,IA110_55_G95p.bmp,IA110_55_G95p.bmp,IA110.bmp,1,risk,,0.930219635,left,0,1752.522585,18,1
109,5,1,81,IA25_G5.bmp,IA25_G5.bmp,IA25.bmp,0,safe,left,0.264589425,left,0,1772.124214,18,1
109,5,2,82,IA25_L5.bmp,IA25_L5.bmp,IA25.bmp,0,safe,,0.200499519,right,1,1782.284314,18,1
109,5,3,83,IA50_G20.bmp,IA50_G20.bmp,IA50.bmp,1,risk,,1.575360004,left,0,1794.349446,18,1
109,5,4,84,IA100_L20.bmp,IA100_L20.bmp,IA100.bmp,1,risk,,0.252278439,right,1,1805.896524,18,1
109,5,5,85,IA100_G20.bmp,IA100_G20.bmp,IA100.bmp,1,risk,,1.216168067,left,0,1819.348631,18,1
109,5,6,86,IA75_L30.bmp,IA75_L30.bmp,IA75.bmp,0,safe,,0.566342913,left,0,1831.430462,18,1
109,5,7,87,IA25_L20.bmp,IA25_L20.bmp,IA25.bmp,0,safe,,1.579620564,left,0,1843.345185,18,1
109,5,8,88,IA25_G10.bmp,IA25_G10.bmp,IA25.bmp,1,risk,,,None,NA,1854.675034,18,1
109,5,9,89,IA75_G60.bmp,IA75_G60.bmp,IA75.bmp,1,risk,,0.99691259,right,1,1866.63989,18,1
109,5,10,90,IA25_G20.bmp,IA25_G20.bmp,IA25.bmp,0,safe,,0.242127188,right,1,1876.298681,18,1
109,5,11,91,IA75_G45.bmp,IA75_G45.bmp,IA75.bmp,0,safe,,0.276376225,left,0,1888.096431,18,1
109,5,12,92,IA25_L15.bmp,IA25_L15.bmp,IA25.bmp,1,risk,,1.916309434,right,1,1899.760493,18,1
109,5,13,93,IA20_10_G95p.bmp,IA20_10_G95p.bmp,IA20.bmp,1,risk,,0.65738148,left,0,1909.987427,18,1
109,5,14,94,IA50_G10.bmp,IA50_G10.bmp,IA50.bmp,0,safe,,0.243771072,left,0,1920.465029,18,1
109,5,15,95,IA20_10_L95p.bmp,IA20_10_L95p.bmp,IA20.bmp,0,safe,,1.088677796,right,1,1932.012131,18,1
109,5,16,96,IA50_L40.bmp,IA50_L40.bmp,IA50.bmp,0,safe,,0.548180438,left,0,1944.344616,18,1
109,5,17,97,IA25_G15.bmp,IA25_G15.bmp,IA25.bmp,1,risk,,0.231143336,right,1,1956.12566,18,1
109,5,18,98,IA100_G40.bmp,IA100_G40.bmp,IA100.bmp,1,risk,,0.939569847,left,0,1969.377237,18,1
109,5,19,99,IA50_L10.bmp,IA50_L10.bmp,IA50.bmp,0,safe,,1.243532708,right,1,1981.793272,18,1
109,5,20,100,IA75_L60.bmp,IA75_L60.bmp,IA75.bmp,1,risk,,0.251299542,left,0,1994.02551,18,1
109,6,1,101,IA100_L60.bmp,IA100_L60.bmp,IA100.bmp,0,safe,left,0.482122906,left,0,2011.170681,18,1
109,6,2,102,IA100_G60.bmp,IA100_G60.bmp,IA100.bmp,0,safe,,0.276192822,left,0,2022.784612,18,1
109,6,3,103,IA25_L5.bmp,IA25_L5.bmp,IA25.bmp,0,safe,,1.504040196,left,0,2034.732748,18,1
109,6,4,104,IA25_L15.bmp,IA25_L15.bmp,IA25.bmp,1,risk,,1.479646357,left,0,2046.78118,18,1
109,6,5,105,IA75_L45.bmp,IA75_L45.bmp,IA75.bmp,0,safe,,0.254655178,left,0,2056.774157,18,1
109,6,6,106,IA100_G40.bmp,IA100_G40.bmp,IA100.bmp,1,risk,,0.621890684,left,0,2069.206914,18,1
109,6,7,107,IA25_L20.bmp,IA25_L20.bmp,IA25.bmp,0,safe,,0.574863762,left,0,2078.965954,18,1
109,6,8,108,IA80_40_L95p.bmp,IA80_40_L95p.bmp,IA80.bmp,0,safe,,0.387760613,right,1,2090.513044,18,1
109,6,9,109,IA75_L30.bmp,IA75_L30.bmp,IA75.bmp,0,safe,,0.441740674,left,0,2102.411067,18,1
109,6,10,110,IA110_55_L95p.bmp,IA110_55_L95p.bmp,IA110.bmp,1,risk,,0.441494672,right,1,2113.891315,18,1
109,6,11,111,IA50_G10.bmp,IA50_G10.bmp,IA50.bmp,0,safe,,0.815686405,left,0,2126.725117,18,1
109,6,12,112,IA75_G15.bmp,IA75_G15.bmp,IA75.bmp,1,risk,,0.340602278,left,0,2138.272207,18,1
109,6,13,113,IA25_G10.bmp,IA25_G10.bmp,IA25.bmp,1,risk,,0.537879894,left,0,2150.938928,18,1
109,6,14,114,IA25_L10.bmp,IA25_L10.bmp,IA25.bmp,1,risk,,0.239522298,right,1,2162.469292,18,1
109,6,15,115,IA50_L20.bmp,IA50_L20.bmp,IA50.bmp,1,risk,,1.924791357,right,1,2174.384017,18,1
109,6,16,116,IA50_G30.bmp,IA50_G30.bmp,IA50.bmp,1,risk,,0.388727459,left,0,2186.04808,18,1
109,6,17,117,IA100_L80.bmp,IA100_L80.bmp,IA100.bmp,1,risk,,0.723591943,left,0,2198.113212,18,1
109,6,18,118,IA40_20_L95p.bmp,IA40_20_L95p.bmp,IA40.bmp,1,risk,,0.257924272,right,1,2209.62688,18,1
109,6,19,119,IA75_L15.bmp,IA75_L15.bmp,IA75.bmp,1,risk,,0.301603283,right,1,2221.391198,18,1
109,6,20,120,IA25_G5.bmp,IA25_G5.bmp,IA25.bmp,0,safe,,0.361262991,left,0,2233.155539,18,1
109,7,1,121,IA75_G15.bmp,IA75_G15.bmp,IA75.bmp,1,risk,left,,None,NA,2254.010475,18,1
109,7,2,122,IA100_G80.bmp,IA100_G80.bmp,IA100.bmp,1,risk,,1.607224159,right,1,2265.55758,18,1
109,7,3,123,IA25_L5.bmp,IA25_L5.bmp,IA25.bmp,0,safe,,1.600964456,left,0,2277.555843,18,1
109,7,4,124,IA25_G5.bmp,IA25_G5.bmp,IA25.bmp,0,safe,,0.267944515,left,0,2290.840856,18,1
109,7,5,125,IA75_G45.bmp,IA75_G45.bmp,IA75.bmp,0,safe,,0.268619087,left,0,2302.488198,18,1
109,7,6,126,IA50_G20.bmp,IA50_G20.bmp,IA50.bmp,1,risk,,1.166491654,left,0,2314.670307,18,1
109,7,7,127,IA100_L60.bmp,IA100_L60.bmp,IA100.bmp,0,safe,,0.274857728,left,0,2324.91396,18,1
109,7,8,128,IA25_G10.bmp,IA25_G10.bmp,IA25.bmp,1,risk,,0.697739435,left,0,2337.731066,18,1
109,7,9,129,IA80_40_G95p.bmp,IA80_40_G95p.bmp,IA80.bmp,1,risk,,0.309552515,left,0,2347.423256,18,1
109,7,10,130,IA100_L20.bmp,IA100_L20.bmp,IA100.bmp,1,risk,,1.122648183,right,1,2359.906158,18,1
109,7,11,131,IA100_L80.bmp,IA100_L80.bmp,IA100.bmp,1,risk,,0.485800935,left,0,2371.871016,18,1
109,7,12,132,IA110_55_G95p.bmp,IA110_55_G95p.bmp,IA110.bmp,1,risk,,1.279882577,left,0,2384.236921,18,1
109,7,13,133,IA50_L20.bmp,IA50_L20.bmp,IA50.bmp,1,risk,,0.2675361,right,1,2396.001261,18,1
109,7,14,134,IA75_L45.bmp,IA75_L45.bmp,IA75.bmp,0,safe,,0.489383156,left,0,2408.467429,18,1
109,7,15,135,IA20_10_G95p.bmp,IA20_10_G95p.bmp,IA20.bmp,1,risk,,1.644389566,left,0,2422.504413,18,1
109,7,16,136,IA40_20_L95p.bmp,IA40_20_L95p.bmp,IA40.bmp,1,risk,,0.585662707,right,1,2434.419137,18,1
109,7,17,137,IA25_G15.bmp,IA25_G15.bmp,IA25.bmp,1,risk,,0.638241948,right,1,2447.102566,18,1
109,7,18,138,IA100_L40.bmp,IA100_L40.bmp,IA100.bmp,1,risk,,0.873420642,left,0,2460.571388,18,1
109,7,19,139,IA25_L10.bmp,IA25_L10.bmp,IA25.bmp,1,risk,,1.272125763,right,1,2472.452682,18,1
109,7,20,140,IA40_20_G95p.bmp,IA40_20_G95p.bmp,IA40.bmp,0,safe,,0.241855429,left,0,2485.202951,18,1
109,8,1,141,IA110_55_G95p.bmp,IA110_55_G95p.bmp,IA110.bmp,1,risk,left,1.160544643,left,0,2503.668262,18,1
109,8,2,142,IA75_G30.bmp,IA75_G30.bmp,IA75.bmp,1,risk,,1.638529254,right,1,2515.566277,18,1
109,8,3,143,IA100_L40.bmp,IA100_L40.bmp,IA100.bmp,1,risk,,1.957577107,right,1,2527.063237,18,1
109,8,4,144,IA25_L20.bmp,IA25_L20.bmp,IA25.bmp,0,safe,,0.606955409,left,0,2539.445863,18,1
109,8,5,145,IA40_20_L95p.bmp,IA40_20_L95p.bmp,IA40.bmp,1,risk,,0.146546743,right,1,2548.954257,18,1
109,8,6,146,IA80_40_G95p.bmp,IA80_40_G95p.bmp,IA80.bmp,1,risk,,1.177941315,left,0,2560.818853,18,1
109,8,7,147,IA50_G40.bmp,IA50_G40.bmp,IA50.bmp,0,safe,,0.498404343,left,0,2572.282391,18,1
109,8,8,148,IA75_L60.bmp,IA75_L60.bmp,IA75.bmp,1,risk,,1.101191222,left,0,2583.879605,18,1
109,8,9,149,IA100_L20.bmp,IA100_L20.bmp,IA100.bmp,1,risk,,1.353382443,right,1,2596.195414,18,1
109,8,10,150,IA25_G20.bmp,IA25_G20.bmp,IA25.bmp,0,safe,,1.459654492,left,0,2607.993153,18,1
109,8,11,151,IA50_G10.bmp,IA50_G10.bmp,IA50.bmp,0,safe,,0.60501091,left,0,2619.623798,18,1
109,8,12,152,IA50_L20.bmp,IA50_L20.bmp,IA50.bmp,1,risk,,1.002645821,right,1,2631.906158,18,1
109,8,13,153,IA25_L15.bmp,IA25_L15.bmp,IA25.bmp,1,risk,,1.241360633,right,1,2644.539447,18,1
109,8,14,154,IA100_G20.bmp,IA100_G20.bmp,IA100.bmp,1,risk,,,None,NA,2656.153373,18,1
109,8,15,155,IA75_G60.bmp,IA75_G60.bmp,IA75.bmp,1,risk,,0.305750564,right,1,2667.667054,18,1
109,8,16,156,IA75_L30.bmp,IA75_L30.bmp,IA75.bmp,0,safe,,0.364185662,left,0,2679.648611,18,1
109,8,17,157,IA100_L80.bmp,IA100_L80.bmp,IA100.bmp,1,risk,,0.795403981,left,0,2691.329402,18,1
109,8,18,158,IA25_G10.bmp,IA25_G10.bmp,IA25.bmp,1,risk,,0.450097494,right,1,2703.210706,18,1
109,8,19,159,IA50_G20.bmp,IA50_G20.bmp,IA50.bmp,1,risk,,1.35455268,left,0,2714.674247,18,1
109,8,20,160,IA50_L40.bmp,IA50_L40.bmp,IA50.bmp,0,safe,,0.575505758,left,0,2726.973311,18,1
109,9,1,161,IA25_L10.bmp,IA25_L10.bmp,IA25.bmp,1,risk,left,0.824901084,left,0,2747.443914,18,1
109,9,2,162,IA50_L30.bmp,IA50_L30.bmp,IA50.bmp,1,risk,,1.479417944,right,1,2759.893399,18,1
109,9,3,163,IA75_G45.bmp,IA75_G45.bmp,IA75.bmp,0,safe,,0.004328765,left,0,2771.440493,18,1
109,9,4,164,IA50_L20.bmp,IA50_L20.bmp,IA50.bmp,1,risk,,1.669298303,right,1,2783.4555,18,1
109,9,5,165,IA50_L40.bmp,IA50_L40.bmp,IA50.bmp,0,safe,,0.454147806,left,0,2795.286658,18,1
109,9,6,166,IA40_20_G95p.bmp,IA40_20_G95p.bmp,IA40.bmp,0,safe,,0.340327907,left,0,2807.368494,18,1
109,9,7,167,IA80_40_L95p.bmp,IA80_40_L95p.bmp,IA80.bmp,0,safe,,0.244205714,right,1,2817.528598,18,1
109,9,8,168,IA100_L80.bmp,IA100_L80.bmp,IA100.bmp,1,risk,,0.251084771,left,0,2829.593724,18,1
109,9,9,169,IA100_G60.bmp,IA100_G60.bmp,IA100.bmp,0,safe,,0.267187819,left,0,2842.193603,18,1
109,9,10,170,IA110_55_L95p.bmp,IA110_55_L95p.bmp,IA110.bmp,1,risk,,0.298047448,right,1,2852.00276,18,1
109,9,11,171,IA75_L60.bmp,IA75_L60.bmp,IA75.bmp,1,risk,,1.361628789,left,0,2864.051175,18,1
109,9,12,172,IA50_G10.bmp,IA50_G10.bmp,IA50.bmp,0,safe,,0.512138476,left,0,2876.500659,18,1
109,9,13,173,IA50_L10.bmp,IA50_L10.bmp,IA50.bmp,0,safe,,0.399947633,left,0,2889.484861,18,1
109,9,14,174,IA25_L20.bmp,IA25_L20.bmp,IA25.bmp,0,safe,,0.370185815,left,0,2901.282631,18,1
109,9,15,175,IA50_G40.bmp,IA50_G40.bmp,IA50.bmp,0,safe,,0.402833866,left,0,2912.929974,18,1
109,9,16,176,IA25_G20.bmp,IA25_G20.bmp,IA25.bmp,0,safe,,1.195658004,left,0,2924.761159,18,1
109,9,17,177,IA110_55_G95p.bmp,IA110_55_G95p.bmp,IA110.bmp,1,risk,,1.314342821,left,0,2935.13846,18,1
109,9,18,178,IA25_L15.bmp,IA25_L15.bmp,IA25.bmp,1,risk,,0.836571779,right,1,2947.688241,18,1
109,9,19,179,IA75_L30.bmp,IA75_L30.bmp,IA75.bmp,0,safe,,1.419970436,left,0,2959.552826,18,1
109,9,20,180,IA75_G60.bmp,IA75_G60.bmp,IA75.bmp,1,risk,,0.825065683,left,0,2971.283738,18,1
109,10,1,181,IA75_L30.bmp,IA75_L30.bmp,IA75.bmp,0,safe,left,1.573945943,left,0,2989.41486,18,1
109,10,2,182,IA75_L15.bmp,IA75_L15.bmp,IA75.bmp,1,risk,,0.286601236,right,1,3001.062219,18,1
109,10,3,183,IA100_G60.bmp,IA100_G60.bmp,IA100.bmp,0,safe,,0.204246901,left,0,3012.59256,18,1
109,10,4,184,IA75_G30.bmp,IA75_G30.bmp,IA75.bmp,1,risk,,0.464931755,left,0,3023.955869,18,1
109,10,5,185,IA110_55_G95p.bmp,IA110_55_G95p.bmp,IA110.bmp,1,risk,,0.685509183,left,0,3036.6393,18,1
109,10,6,186,IA100_G80.bmp,IA100_G80.bmp,IA100.bmp,1,risk,,0.173250279,right,1,3048.119554,18,1
109,10,7,187,IA80_40_L95p.bmp,IA80_40_L95p.bmp,IA80.bmp,0,safe,,1.025824108,right,1,3060.050984,18,1
109,10,8,188,IA100_L20.bmp,IA100_L20.bmp,IA100.bmp,1,risk,,0.449918623,right,1,3071.898882,18,1
109,10,9,189,IA50_L20.bmp,IA50_L20.bmp,IA50.bmp,1,risk,,0.984448071,right,1,3084.348354,18,1
109,10,10,190,IA75_G60.bmp,IA75_G60.bmp,IA75.bmp,1,risk,,1.353255959,left,0,3096.179539,18,1
109,10,11,191,IA25_L15.bmp,IA25_L15.bmp,IA25.bmp,1,risk,,1.390194427,left,0,3108.47861,18,1
109,10,12,192,IA100_G40.bmp,IA100_G40.bmp,IA100.bmp,1,risk,,1.302825799,left,0,3120.125971,18,1
109,10,13,193,IA50_G20.bmp,IA50_G20.bmp,IA50.bmp,1,risk,,0.253861555,right,1,3131.622935,18,1
109,10,14,194,IA50_L10.bmp,IA50_L10.bmp,IA50.bmp,0,safe,,0.247007526,right,1,3141.565791,18,1
109,10,15,195,IA25_G15.bmp,IA25_G15.bmp,IA25.bmp,1,risk,,1.154135112,right,1,3153.530666,18,1
109,10,16,196,IA110_55_L95p.bmp,IA110_55_L95p.bmp,IA110.bmp,1,risk,,0.136315523,right,1,3166.364487,18,1
109,10,17,197,IA100_L40.bmp,IA100_L40.bmp,IA100.bmp,1,risk,,0.281473465,right,1,3177.811317,18,1
109,10,18,198,IA80_40_G95p.bmp,IA80_40_G95p.bmp,IA80.bmp,1,risk,,0.220637241,left,0,3189.776169,18,1
109,10,19,199,IA25_L20.bmp,IA25_L20.bmp,IA25.bmp,0,safe,,0.035000287,left,0,3201.289808,18,1
109,10,20,200,IA25_L10.bmp,IA25_L10.bmp,IA25.bmp,1,risk,,0.243581043,right,1,3212.937235,18,1
112,1,1,1,IA75_L15.bmp,IA75_L15.bmp,IA75.bmp,1,risk,left,,None,NA,969.6439252,20,1
112,1,2,2,IA75_G15.bmp,IA75_G15.bmp,IA75.bmp,1,risk,,1.950928646,left,0,983.664196,20,1
112,1,3,3,IA50_G30.bmp,IA50_G30.bmp,IA50.bmp,1,risk,,1.803385713,right,1,997.6677446,20,1
112,1,4,4,IA50_G10.bmp,IA50_G10.bmp,IA50.bmp,0,safe,,0.586108706,left,0,1010.301029,20,1
112,1,5,5,IA40_20_L95p.bmp,IA40_20_L95p.bmp,IA40.bmp,1,risk,,0.677287257,right,1,1024.521842,20,1
112,1,6,6,IA75_G60.bmp,IA75_G60.bmp,IA75.bmp,1,risk,,0.459313021,right,1,1037.171821,20,1
112,1,7,7,IA75_G30.bmp,IA75_G30.bmp,IA75.bmp,1,risk,,1.613387926,left,0,1049.537745,20,1
112,1,8,8,IA25_G15.bmp,IA25_G15.bmp,IA25.bmp,1,risk,,0.31467576,right,1,1062.204449,20,1
112,1,9,9,IA25_L10.bmp,IA25_L10.bmp,IA25.bmp,1,risk,,0.568135619,right,1,1072.799014,20,1
112,1,10,10,IA25_G10.bmp,IA25_G10.bmp,IA25.bmp,1,risk,,0.519668469,left,0,1083.343464,20,1
112,1,11,11,IA50_L10.bmp,IA50_L10.bmp,IA50.bmp,0,safe,,0.758198365,right,1,1095.79293,20,1
112,1,12,12,IA100_L80.bmp,IA100_L80.bmp,IA100.bmp,1,risk,,0.431224386,left,0,1108.5599,20,1
112,1,13,13,IA100_G20.bmp,IA100_G20.bmp,IA100.bmp,1,risk,,0.466723231,left,0,1120.892399,20,1
112,1,14,14,IA25_L15.bmp,IA25_L15.bmp,IA25.bmp,1,risk,,0.611404983,left,0,1133.291721,20,1
112,1,15,15,IA110_55_G95p.bmp,IA110_55_G95p.bmp,IA110.bmp,1,risk,,0.260605989,left,0,1145.490527,20,1
112,1,16,16,IA100_G40.bmp,IA100_G40.bmp,IA100.bmp,1,risk,,0.652377459,left,0,1157.722755,20,1
112,1,17,17,IA25_G5.bmp,IA25_G5.bmp,IA25.bmp,0,safe,,0.44946941,left,0,1170.205652,20,1
112,1,18,18,IA40_20_G95p.bmp,IA40_20_G95p.bmp,IA40.bmp,0,safe,,0.435398143,left,0,1182.38774,20,1
112,1,19,19,IA25_L5.bmp,IA25_L5.bmp,IA25.bmp,0,safe,,0.666975406,right,1,1194.436156,20,1
112,1,20,20,IA25_G20.bmp,IA25_G20.bmp,IA25.bmp,0,safe,,0.932181912,right,1,1206.634949,20,1
112,2,1,21,IA25_L5.bmp,IA25_L5.bmp,IA25.bmp,0,safe,left,0.294369416,right,1,1257.936774,20,1
112,2,2,22,IA50_L10.bmp,IA50_L10.bmp,IA50.bmp,0,safe,,0.285239159,right,1,1270.001893,20,1
112,2,3,23,IA100_L20.bmp,IA100_L20.bmp,IA100.bmp,1,risk,,0.473277966,right,1,1282.133864,20,1
112,2,4,24,IA40_20_L95p.bmp,IA40_20_L95p.bmp,IA40.bmp,1,risk,,0.720496906,right,1,1293.814639,20,1
112,2,5,25,IA100_G80.bmp,IA100_G80.bmp,IA100.bmp,1,risk,,0.751921143,right,1,1305.67923,20,1
112,2,6,26,IA50_G20.bmp,IA50_G20.bmp,IA50.bmp,1,risk,,0.393240987,left,0,1318.061879,20,1
112,2,7,27,IA25_L20.bmp,IA25_L20.bmp,IA25.bmp,0,safe,,0.387309964,left,0,1328.171822,20,1
112,2,8,28,IA50_G10.bmp,IA50_G10.bmp,IA50.bmp,0,safe,,1.165895343,left,0,1338.08125,20,1
112,2,9,29,IA110_55_L95p.bmp,IA110_55_L95p.bmp,IA110.bmp,1,risk,,0.280955128,right,1,1347.790172,20,1
112,2,10,30,IA75_G45.bmp,IA75_G45.bmp,IA75.bmp,0,safe,,1.317128782,left,0,1357.849999,20,1
112,2,11,31,IA25_G20.bmp,IA25_G20.bmp,IA25.bmp,0,safe,,0.401463922,right,1,1367.341673,20,1
112,2,12,32,IA100_L40.bmp,IA100_L40.bmp,IA100.bmp,1,risk,,1.362240901,right,1,1376.916898,20,1
112,2,13,33,IA100_L80.bmp,IA100_L80.bmp,IA100.bmp,1,risk,,0.88105104,left,0,1386.726079,20,1
112,2,14,34,IA75_L15.bmp,IA75_L15.bmp,IA75.bmp,1,risk,,0.242001016,right,1,1396.485131,20,1
112,2,15,35,IA75_G30.bmp,IA75_G30.bmp,IA75.bmp,1,risk,,0.826953594,left,0,1406.244172,20,1
112,2,16,36,IA50_G40.bmp,IA50_G40.bmp,IA50.bmp,0,safe,,0.386164086,right,1,1416.420974,20,1
112,2,17,37,IA25_G5.bmp,IA25_G5.bmp,IA25.bmp,0,safe,,0.337155626,left,0,1426.413979,20,1
112,2,18,38,IA25_L10.bmp,IA25_L10.bmp,IA25.bmp,1,risk,,0.243528681,right,1,1436.139601,20,1
112,2,19,39,IA100_L60.bmp,IA100_L60.bmp,IA100.bmp,0,safe,,,None,NA,1445.948769,20,1
112,2,20,40,IA75_L60.bmp,IA75_L60.bmp,IA75.bmp,1,risk,,1.023072126,left,0,1455.808075,20,1
112,3,1,41,IA100_G40.bmp,IA100_G40.bmp,IA100.bmp,1,risk,left,0.900629911,left,0,1472.418503,20,1
112,3,2,42,IA100_G20.bmp,IA100_G20.bmp,IA100.bmp,1,risk,,0.858387234,left,0,1481.876752,20,1
112,3,3,43,IA40_20_G95p.bmp,IA40_20_G95p.bmp,IA40.bmp,0,safe,,0.387147876,left,0,1491.451992,20,1
112,3,4,44,IA25_G15.bmp,IA25_G15.bmp,IA25.bmp,1,risk,,0.255476108,right,1,1500.943669,20,1
112,3,5,45,IA75_L45.bmp,IA75_L45.bmp,IA75.bmp,0,safe,,0.519732865,left,0,1510.71942,20,1
112,3,6,46,IA75_G15.bmp,IA75_G15.bmp,IA75.bmp,1,risk,,0.253655192,left,0,1520.36148,20,1
112,3,7,47,IA80_40_L95p.bmp,IA80_40_L95p.bmp,IA80.bmp,0,safe,,0.213886101,right,1,1530.137242,20,1
112,3,8,48,IA100_L80.bmp,IA100_L80.bmp,IA100.bmp,1,risk,,0.254316031,left,0,1540.096818,20,1
112,3,9,49,IA25_G20.bmp,IA25_G20.bmp,IA25.bmp,0,safe,,0.222391032,right,1,1549.688743,20,1
112,3,10,50,IA50_L40.bmp,IA50_L40.bmp,IA50.bmp,0,safe,,0.279140374,left,0,1559.263983,20,1
112,3,11,51,IA40_20_L95p.bmp,IA40_20_L95p.bmp,IA40.bmp,1,risk,,0.259492883,right,1,1568.755642,20,1
112,3,12,52,IA25_L10.bmp,IA25_L10.bmp,IA25.bmp,1,risk,,0.445525402,left,0,1578.865609,20,1
112,3,13,53,IA75_G30.bmp,IA75_G30.bmp,IA75.bmp,1,risk,,0.664968832,left,0,1588.942166,20,1
112,3,14,54,IA100_G60.bmp,IA100_G60.bmp,IA100.bmp,0,safe,,0.28334377,right,1,1598.667792,20,1
112,3,15,55,IA100_L40.bmp,IA100_L40.bmp,IA100.bmp,1,risk,,0.210172909,right,1,1608.47697,20,1
112,3,16,56,IA100_L20.bmp,IA100_L20.bmp,IA100.bmp,1,risk,,0.246682175,right,1,1618.152458,20,1
112,3,17,57,IA75_G60.bmp,IA75_G60.bmp,IA75.bmp,1,risk,,0.216165283,right,1,1627.710965,20,1
112,3,18,58,IA25_G5.bmp,IA25_G5.bmp,IA25.bmp,0,safe,,0.260875083,left,0,1637.57027,20,1
112,3,19,59,IA110_55_G95p.bmp,IA110_55_G95p.bmp,IA110.bmp,1,risk,,0.213818076,left,0,1647.329317,20,1
112,3,20,60,IA75_L15.bmp,IA75_L15.bmp,IA75.bmp,1,risk,,1.158966043,right,1,1658.024171,20,1
112,4,1,61,IA50_L40.bmp,IA50_L40.bmp,IA50.bmp,0,safe,left,0.557892004,left,0,1678.929246,20,1
112,4,2,62,IA75_G15.bmp,IA75_G15.bmp,IA75.bmp,1,risk,,0.72363092,left,0,1688.387505,20,1
112,4,3,63,IA50_G10.bmp,IA50_G10.bmp,IA50.bmp,0,safe,,0.580774635,left,0,1698.330359,20,1
112,4,4,64,IA50_G20.bmp,IA50_G20.bmp,IA50.bmp,1,risk,,0.251951822,left,0,1707.755188,20,1
112,4,5,65,IA100_L80.bmp,IA100_L80.bmp,IA100.bmp,1,risk,,0.241023105,left,0,1717.230111,20,1
112,4,6,66,IA25_G20.bmp,IA25_G20.bmp,IA25.bmp,0,safe,,0.243177579,right,1,1726.771958,20,1
112,4,7,67,IA80_40_G95p.bmp,IA80_40_G95p.bmp,IA80.bmp,1,risk,,0.212130856,left,0,1736.530996,20,1
112,4,8,68,IA100_G60.bmp,IA100_G60.bmp,IA100.bmp,0,safe,,0.243151602,left,0,1746.524017,20,1
112,4,9,69,IA80_40_L95p.bmp,IA80_40_L95p.bmp,IA80.bmp,0,safe,,0.059387283,right,1,1756.299742,20,1
112,4,10,70,IA25_G10.bmp,IA25_G10.bmp,IA25.bmp,1,risk,,1.156525017,right,1,1766.242617,20,1
112,4,11,71,IA100_L20.bmp,IA100_L20.bmp,IA100.bmp,1,risk,,0.082633818,right,1,1776.068499,20,1
112,4,12,72,IA50_L20.bmp,IA50_L20.bmp,IA50.bmp,1,risk,,0.759350951,right,1,1786.679781,20,1
112,4,13,73,IA100_L60.bmp,IA100_L60.bmp,IA100.bmp,0,safe,,0.224667786,right,1,1796.80647,20,1
112,4,14,74,IA40_20_G95p.bmp,IA40_20_G95p.bmp,IA40.bmp,0,safe,,0.110059358,left,0,1806.649066,20,1
112,4,15,75,IA75_G45.bmp,IA75_G45.bmp,IA75.bmp,0,safe,,1.601527863,left,0,1816.7256,20,1
112,4,16,76,IA75_L45.bmp,IA75_L45.bmp,IA75.bmp,0,safe,,0.051355242,left,0,1826.651766,20,1
112,4,17,77,IA25_L10.bmp,IA25_L10.bmp,IA25.bmp,1,risk,,0.001482281,right,1,1836.477655,20,1
112,4,18,78,IA50_G30.bmp,IA50_G30.bmp,IA50.bmp,1,risk,,0.218431895,left,0,1846.236692,20,1
112,4,19,79,IA50_G40.bmp,IA50_G40.bmp,IA50.bmp,0,safe,,0.499762961,right,1,1856.363365,20,1
112,4,20,80,IA25_G5.bmp,IA25_G5.bmp,IA25.bmp,0,safe,,0.992441851,left,0,1866.222685,20,1
112,5,1,81,IA75_L15.bmp,IA75_L15.bmp,IA75.bmp,1,risk,left,0.723517461,right,1,1881.76362,20,1
112,5,2,82,IA25_G20.bmp,IA25_G20.bmp,IA25.bmp,0,safe,,0.197701462,left,0,1891.305433,20,1
112,5,3,83,IA75_G15.bmp,IA75_G15.bmp,IA75.bmp,1,risk,,0.111371283,left,0,1901.047755,20,1
112,5,4,84,IA25_G5.bmp,IA25_G5.bmp,IA25.bmp,0,safe,,1.481934054,right,1,1910.957194,20,1
112,5,5,85,IA25_L10.bmp,IA25_L10.bmp,IA25.bmp,1,risk,,1.598247263,left,0,1920.448879,20,1
112,5,6,86,IA80_40_L95p.bmp,IA80_40_L95p.bmp,IA80.bmp,0,safe,,0.115834491,right,1,1930.475297,20,1
112,5,7,87,IA100_G20.bmp,IA100_G20.bmp,IA100.bmp,1,risk,,0.164785985,left,0,1940.234337,20,1
112,5,8,88,IA75_L30.bmp,IA75_L30.bmp,IA75.bmp,0,safe,,0.045759391,right,1,1949.993374,20,1
112,5,9,89,IA25_G10.bmp,IA25_G10.bmp,IA25.bmp,1,risk,,0.148570341,left,0,1959.802558,20,1
112,5,10,90,IA50_L10.bmp,IA50_L10.bmp,IA50.bmp,0,safe,,0.05424101,left,0,1969.544895,20,1
112,5,11,91,IA25_L20.bmp,IA25_L20.bmp,IA25.bmp,0,safe,,0.073695693,left,0,1979.621441,20,1
112,5,12,92,IA75_G45.bmp,IA75_G45.bmp,IA75.bmp,0,safe,,1.001240216,left,0,1989.413897,20,1
112,5,13,93,IA25_G15.bmp,IA25_G15.bmp,IA25.bmp,1,risk,,0.089840821,left,0,1999.557298,20,1
112,5,14,94,IA75_L45.bmp,IA75_L45.bmp,IA75.bmp,0,safe,,0.631424685,left,0,2009.583702,20,1
112,5,15,95,IA75_G60.bmp,IA75_G60.bmp,IA75.bmp,1,risk,,0.073269774,left,0,2019.509864,20,1
112,5,16,96,IA75_L60.bmp,IA75_L60.bmp,IA75.bmp,1,risk,,0.743933966,left,0,2029.887203,20,1
112,5,17,97,IA100_L40.bmp,IA100_L40.bmp,IA100.bmp,1,risk,,1.70508234,left,0,2039.830058,20,1
112,5,18,98,IA110_55_L95p.bmp,IA110_55_L95p.bmp,IA110.bmp,1,risk,,0.15117183,right,1,2049.655955,20,1
112,5,19,99,IA50_L20.bmp,IA50_L20.bmp,IA50.bmp,1,risk,,0.838909524,left,0,2059.632225,20,1
112,5,20,100,IA25_L15.bmp,IA25_L15.bmp,IA25.bmp,1,risk,,0.611075333,left,0,2069.692062,20,1
112,6,1,101,IA25_G15.bmp,IA25_G15.bmp,IA25.bmp,1,risk,left,0.848453506,right,1,2086.118682,20,1
112,6,2,102,IA75_G30.bmp,IA75_G30.bmp,IA75.bmp,1,risk,,0.987197834,left,0,2096.21194,20,1
112,6,3,103,IA50_G40.bmp,IA50_G40.bmp,IA50.bmp,0,safe,,1.066724294,right,1,2106.004409,20,1
112,6,4,104,IA20_10_G95p.bmp,IA20_10_G95p.bmp,IA20.bmp,1,risk,,0.173145032,left,0,2115.72999,20,1
112,6,5,105,IA100_G80.bmp,IA100_G80.bmp,IA100.bmp,1,risk,,0.141720772,left,0,2125.12143,20,1
112,6,6,106,IA25_G20.bmp,IA25_G20.bmp,IA25.bmp,0,safe,,0.050382925,left,0,2134.980753,20,1
112,6,7,107,IA110_55_L95p.bmp,IA110_55_L95p.bmp,IA110.bmp,1,risk,,0.030376473,right,1,2144.856758,20,1
112,6,8,108,IA75_L15.bmp,IA75_L15.bmp,IA75.bmp,1,risk,,1.003069582,left,0,2154.716071,20,1
112,6,9,109,IA25_L20.bmp,IA25_L20.bmp,IA25.bmp,0,safe,,0.276572252,left,0,2165.026566,20,1
112,6,10,110,IA25_L10.bmp,IA25_L10.bmp,IA25.bmp,1,risk,,0.071479801,left,0,2174.551658,20,1
112,6,11,111,IA100_G20.bmp,IA100_G20.bmp,IA100.bmp,1,risk,,1.650736393,right,1,2184.444399,20,1
112,6,12,112,IA25_G10.bmp,IA25_G10.bmp,IA25.bmp,1,risk,,1.782875776,left,0,2193.752256,20,1
112,6,13,113,IA50_L20.bmp,IA50_L20.bmp,IA50.bmp,1,risk,,0.802138501,right,1,2203.644994,20,1
112,6,14,114,IA50_L40.bmp,IA50_L40.bmp,IA50.bmp,0,safe,,0.10373332,left,0,2213.671407,20,1
112,6,15,115,IA40_20_L95p.bmp,IA40_20_L95p.bmp,IA40.bmp,1,risk,,0.229490927,right,1,2223.129653,20,1
112,6,16,116,IA100_L40.bmp,IA100_L40.bmp,IA100.bmp,1,risk,,0.002900017,right,1,2232.972253,20,1
112,6,17,117,IA100_L60.bmp,IA100_L60.bmp,IA100.bmp,0,safe,,0.068204849,right,1,2243.098934,20,1
112,6,18,118,IA50_L10.bmp,IA50_L10.bmp,IA50.bmp,0,safe,,0.421531123,right,1,2253.225605,20,1
112,6,19,119,IA75_G15.bmp,IA75_G15.bmp,IA75.bmp,1,risk,,0.799017169,left,0,2263.536111,20,1
112,6,20,120,IA25_L15.bmp,IA25_L15.bmp,IA25.bmp,1,risk,,1.610286909,left,0,2273.428845,20,1
112,7,1,121,IA100_L40.bmp,IA100_L40.bmp,IA100.bmp,1,risk,left,,None,NA,2304.711258,20,1
112,7,2,122,IA80_40_G95p.bmp,IA80_40_G95p.bmp,IA80.bmp,1,risk,,0.249536337,left,0,2314.453591,20,1
112,7,3,123,IA20_10_L95p.bmp,IA20_10_L95p.bmp,IA20.bmp,0,safe,,0.081262354,right,1,2324.429871,20,1
112,7,4,124,IA50_G10.bmp,IA50_G10.bmp,IA50.bmp,0,safe,,0.080611355,left,0,2334.038523,20,1
112,7,5,125,IA100_G80.bmp,IA100_G80.bmp,IA100.bmp,1,risk,,0.306462853,left,0,2343.964675,20,1
112,7,6,126,IA25_L10.bmp,IA25_L10.bmp,IA25.bmp,1,risk,,0.016401294,left,0,2353.606737,20,1
112,7,7,127,IA25_L15.bmp,IA25_L15.bmp,IA25.bmp,1,risk,,0.103953841,left,0,2363.399185,20,1
112,7,8,128,IA75_G60.bmp,IA75_G60.bmp,IA75.bmp,1,risk,,0.422945549,left,0,2373.392205,20,1
112,7,9,129,IA75_L15.bmp,IA75_L15.bmp,IA75.bmp,1,risk,,1.109937457,right,1,2383.3852,20,1
112,7,10,130,IA75_L60.bmp,IA75_L60.bmp,IA75.bmp,1,risk,,0.506109561,left,0,2394.197025,20,1
112,7,11,131,IA40_20_L95p.bmp,IA40_20_L95p.bmp,IA40.bmp,1,risk,,0.054453188,right,1,2403.688684,20,1
112,7,12,132,IA50_L10.bmp,IA50_L10.bmp,IA50.bmp,0,safe,,0.021981362,right,1,2413.481162,20,1
112,7,13,133,IA110_55_L95p.bmp,IA110_55_L95p.bmp,IA110.bmp,1,risk,,0.033589921,right,1,2422.989547,20,1
112,7,14,134,IA25_L20.bmp,IA25_L20.bmp,IA25.bmp,0,safe,,0.11933537,left,0,2432.447799,20,1
112,7,15,135,IA50_L40.bmp,IA50_L40.bmp,IA50.bmp,0,safe,,0.342158864,left,0,2442.256973,20,1
112,7,16,136,IA40_20_G95p.bmp,IA40_20_G95p.bmp,IA40.bmp,0,safe,,0.153074805,left,0,2451.782073,20,1
112,7,17,137,IA100_G20.bmp,IA100_G20.bmp,IA100.bmp,1,risk,,0.046110994,left,0,2461.257031,20,1
112,7,18,138,IA75_L45.bmp,IA75_L45.bmp,IA75.bmp,0,safe,,0.704496802,right,1,2470.982643,20,1
112,7,19,139,IA100_L80.bmp,IA100_L80.bmp,IA100.bmp,1,risk,,0.363057394,right,1,2480.892096,20,1
112,7,20,140,IA80_40_L95p.bmp,IA80_40_L95p.bmp,IA80.bmp,0,safe,,0.003822948,right,1,2490.467314,20,1
112,8,1,141,IA100_L20.bmp,IA100_L20.bmp,IA100.bmp,1,risk,left,0.31760937,right,1,2505.473515,20,1
112,8,2,142,IA100_L60.bmp,IA100_L60.bmp,IA100.bmp,0,safe,,1.359448534,right,1,2515.399684,20,1
112,8,3,143,IA25_G5.bmp,IA25_G5.bmp,IA25.bmp,0,safe,,0.922034284,right,1,2525.309111,20,1
112,8,4,144,IA75_L30.bmp,IA75_L30.bmp,IA75.bmp,0,safe,,0.038877086,right,1,2534.60026,20,1
112,8,5,145,IA75_L60.bmp,IA75_L60.bmp,IA75.bmp,1,risk,,,None,NA,2544.509707,20,1
112,8,6,146,IA100_L80.bmp,IA100_L80.bmp,IA100.bmp,1,risk,,0.206469753,right,1,2553.984668,20,1
112,8,7,147,IA20_10_L95p.bmp,IA20_10_L95p.bmp,IA20.bmp,0,safe,,0.324754373,right,1,2563.994378,20,1
112,8,8,148,IA40_20_L95p.bmp,IA40_20_L95p.bmp,IA40.bmp,1,risk,,0.245195561,right,1,2573.953939,20,1
112,8,9,149,IA25_G20.bmp,IA25_G20.bmp,IA25.bmp,0,safe,,0.388191913,left,0,2583.946944,20,1
112,8,10,150,IA50_L20.bmp,IA50_L20.bmp,IA50.bmp,1,risk,,0.049628259,right,1,2593.789507,20,1
112,8,11,151,IA100_G20.bmp,IA100_G20.bmp,IA100.bmp,1,risk,,0.24910372,left,0,2603.582029,20,1
112,8,12,152,IA50_G30.bmp,IA50_G30.bmp,IA50.bmp,1,risk,,1.576671538,left,0,2613.374469,20,1
112,8,13,153,IA50_G40.bmp,IA50_G40.bmp,IA50.bmp,0,safe,,0.276807762,left,0,2622.682335,20,1
112,8,14,154,IA25_L5.bmp,IA25_L5.bmp,IA25.bmp,0,safe,,0.465688952,right,1,2633.477443,20,1
112,8,15,155,IA75_L45.bmp,IA75_L45.bmp,IA75.bmp,0,safe,,1.599807206,left,0,2643.303325,20,1
112,8,16,156,IA75_G60.bmp,IA75_G60.bmp,IA75.bmp,1,risk,,0.278626828,left,0,2653.112506,20,1
112,8,17,157,IA25_L20.bmp,IA25_L20.bmp,IA25.bmp,0,safe,,0.286349989,right,1,2663.088787,20,1
112,8,18,158,IA75_L15.bmp,IA75_L15.bmp,IA75.bmp,1,risk,,0.206067471,right,1,2673.065075,20,1
112,8,19,159,IA50_G20.bmp,IA50_G20.bmp,IA50.bmp,1,risk,,1.392418615,left,0,2682.790712,20,1
112,8,20,160,IA80_40_G95p.bmp,IA80_40_G95p.bmp,IA80.bmp,1,risk,,0.435701763,left,0,2692.683437,20,1
112,9,1,161,IA75_G45.bmp,IA75_G45.bmp,IA75.bmp,0,safe,left,0.293645653,left,0,2706.369489,20,1
112,9,2,162,IA40_20_L95p.bmp,IA40_20_L95p.bmp,IA40.bmp,1,risk,,0.110068747,right,1,2716.329062,20,1
112,9,3,163,IA25_G5.bmp,IA25_G5.bmp,IA25.bmp,0,safe,,0.1975973,right,1,2726.121534,20,1
112,9,4,164,IA50_L20.bmp,IA50_L20.bmp,IA50.bmp,1,risk,,0.044471611,left,0,2737.434662,20,1
112,9,5,165,IA50_G10.bmp,IA50_G10.bmp,IA50.bmp,0,safe,,0.520444746,left,0,2747.310691,20,1
112,9,6,166,IA80_40_L95p.bmp,IA80_40_L95p.bmp,IA80.bmp,0,safe,,0.239831736,right,1,2756.919307,20,1
112,9,7,167,IA75_G30.bmp,IA75_G30.bmp,IA75.bmp,1,risk,,1.111512364,left,0,2766.895619,20,1
112,9,8,168,IA100_L80.bmp,IA100_L80.bmp,IA100.bmp,1,risk,,,None,NA,2776.754926,20,1
112,9,9,169,IA75_L60.bmp,IA75_L60.bmp,IA75.bmp,1,risk,,,None,NA,2787.90095,20,1
112,9,10,170,IA100_G80.bmp,IA100_G80.bmp,IA100.bmp,1,risk,,,None,NA,2797.760274,20,1
112,9,11,171,IA50_G30.bmp,IA50_G30.bmp,IA50.bmp,1,risk,,1.356987941,right,1,2807.586161,20,1
112,9,12,172,IA40_20_G95p.bmp,IA40_20_G95p.bmp,IA40.bmp,0,safe,,1.368075068,left,0,2818.047059,20,1
112,9,13,173,IA25_L5.bmp,IA25_L5.bmp,IA25.bmp,0,safe,,0.590874071,right,1,2827.856269,20,1
112,9,14,174,IA75_L30.bmp,IA75_L30.bmp,IA75.bmp,0,safe,,0.096737864,right,1,2837.782397,20,1
112,9,15,175,IA80_40_G95p.bmp,IA80_40_G95p.bmp,IA80.bmp,1,risk,,0.243126739,left,0,2847.50802,20,1
112,9,16,176,IA50_L30.bmp,IA50_L30.bmp,IA50.bmp,1,risk,,1.159109334,left,0,2857.384026,20,1
112,9,17,177,IA20_10_G95p.bmp,IA20_10_G95p.bmp,IA20.bmp,1,risk,,0.178180532,left,0,2867.092951,20,1
112,9,18,178,IA110_55_G95p.bmp,IA110_55_G95p.bmp,IA110.bmp,1,risk,,0.121541183,left,0,2876.701605,20,1
112,9,19,179,IA100_L40.bmp,IA100_L40.bmp,IA100.bmp,1,risk,,0.289777608,left,0,2886.477359,20,1
112,9,20,180,IA50_G20.bmp,IA50_G20.bmp,IA50.bmp,1,risk,,1.243636722,left,0,2897.155495,20,1
112,10,1,181,IA80_40_L95p.bmp,IA80_40_L95p.bmp,IA80.bmp,0,safe,left,0.208587657,right,1,2910.958535,20,1
112,10,2,182,IA75_G60.bmp,IA75_G60.bmp,IA75.bmp,1,risk,,0.171884036,left,0,2920.851253,20,1
112,10,3,183,IA25_G15.bmp,IA25_G15.bmp,IA25.bmp,1,risk,,0.88837834,right,1,2930.526759,20,1
112,10,4,184,IA75_G15.bmp,IA75_G15.bmp,IA75.bmp,1,risk,,0.281327896,left,0,2940.285795,20,1
112,10,5,185,IA25_G10.bmp,IA25_G10.bmp,IA25.bmp,1,risk,,0.091703183,right,1,2950.01143,20,1
112,10,6,186,IA75_G45.bmp,IA75_G45.bmp,IA75.bmp,0,safe,,0.040557789,right,1,2959.302578,20,1
112,10,7,187,IA100_G40.bmp,IA100_G40.bmp,IA100.bmp,1,risk,,1.914045015,left,0,2968.861086,20,1
112,10,8,188,IA20_10_L95p.bmp,IA20_10_L95p.bmp,IA20.bmp,0,safe,,0.231793764,right,1,2978.319341,20,1
112,10,9,189,IA50_L20.bmp,IA50_L20.bmp,IA50.bmp,1,risk,,1.796639719,left,0,2987.610491,20,1
112,10,10,190,IA110_55_L95p.bmp,IA110_55_L95p.bmp,IA110.bmp,1,risk,,0.428165193,right,1,2997.402959,20,1
112,10,11,191,IA50_L40.bmp,IA50_L40.bmp,IA50.bmp,0,safe,,0.264666687,left,0,3007.078465,20,1
112,10,12,192,IA100_L60.bmp,IA100_L60.bmp,IA100.bmp,0,safe,,0.056909554,right,1,3016.854225,20,1
112,10,13,193,IA50_G30.bmp,IA50_G30.bmp,IA50.bmp,1,risk,,0.289875856,right,1,3026.613266,20,1
112,10,14,194,IA100_L20.bmp,IA100_L20.bmp,IA100.bmp,1,risk,,0.255978178,left,0,3037.943139,20,1
112,10,15,195,IA25_L15.bmp,IA25_L15.bmp,IA25.bmp,1,risk,,0.85056364,left,0,3047.852568,20,1
112,10,16,196,IA75_L45.bmp,IA75_L45.bmp,IA75.bmp,0,safe,,0.185215724,right,1,3057.477924,20,1
112,10,17,197,IA25_G20.bmp,IA25_G20.bmp,IA25.bmp,0,safe,,0.269346672,right,1,3066.785788,20,1
112,10,18,198,IA100_G60.bmp,IA100_G60.bmp,IA100.bmp,0,safe,,0.1959854,left,0,3076.411149,20,1
112,10,19,199,IA50_L30.bmp,IA50_L30.bmp,IA50.bmp,1,risk,,1.703267528,right,1,3087.055866,20,1
112,10,20,200,IA20_10_G95p.bmp,IA20_10_G95p.bmp,IA20.bmp,1,risk,,0.194365945,right,1,3097.516761,20,1
113,1,1,1,IA25_G15.bmp,IA25_G15.bmp,IA25.bmp,1,risk,left,1.118622049,left,0,1348.819237,19,1
113,1,2,2,IA50_G40.bmp,IA50_G40.bmp,IA50.bmp,0,safe,,1.674599836,left,0,1371.84657,19,1
113,1,3,3,IA75_L15.bmp,IA75_L15.bmp,IA75.bmp,1,risk,,0.895271496,left,0,1383.727878,19,1
113,1,4,4,IA20_10_G95p.bmp,IA20_10_G95p.bmp,IA20.bmp,1,risk,,1.02196132,left,0,1395.909969,19,1
113,1,5,5,IA100_G60.bmp,IA100_G60.bmp,IA100.bmp,0,safe,,1.61586868,right,1,1405.869542,19,1
113,1,6,6,IA25_L5.bmp,IA25_L5.bmp,IA25.bmp,0,safe,,1.056296934,right,1,1417.784268,19,1
113,1,7,7,IA50_L30.bmp,IA50_L30.bmp,IA50.bmp,1,risk,,0.389569287,left,0,1429.983075,19,1
113,1,8,8,IA110_55_G95p.bmp,IA110_55_G95p.bmp,IA110.bmp,1,risk,,1.19076292,right,1,1439.792258,19,1
113,1,9,9,IA25_G20.bmp,IA25_G20.bmp,IA25.bmp,0,safe,,0.493573659,right,1,1451.840668,19,1
113,1,10,10,IA75_L60.bmp,IA75_L60.bmp,IA75.bmp,1,risk,,0.333164395,left,0,1464.473956,19,1
113,1,11,11,IA40_20_L95p.bmp,IA40_20_L95p.bmp,IA40.bmp,1,risk,,,None,NA,1476.188148,19,1
113,1,12,12,IA80_40_G95p.bmp,IA80_40_G95p.bmp,IA80.bmp,1,risk,,,right,1,1486.766013,19,1
113,1,13,13,IA25_L20.bmp,IA25_L20.bmp,IA25.bmp,0,safe,,0.999821312,left,0,1498.814431,19,1
113,1,14,14,IA25_L15.bmp,IA25_L15.bmp,IA25.bmp,1,risk,,0.671409132,right,1,1510.695736,19,1
113,1,15,15,IA75_G60.bmp,IA75_G60.bmp,IA75.bmp,1,risk,,1.03809945,right,1,1520.839142,19,1
113,1,16,16,IA50_G10.bmp,IA50_G10.bmp,IA50.bmp,0,safe,,0.230694163,right,1,1532.971098,19,1
113,1,17,17,IA75_G15.bmp,IA75_G15.bmp,IA75.bmp,1,risk,,,None,NA,1545.019508,19,1
113,1,18,18,IA75_G45.bmp,IA75_G45.bmp,IA75.bmp,0,safe,,,right,1,1557.301921,19,1
113,1,19,19,IA100_G40.bmp,IA100_G40.bmp,IA100.bmp,1,risk,,1.671896879,left,0,1569.133044,19,1
113,1,20,20,IA50_L40.bmp,IA50_L40.bmp,IA50.bmp,0,safe,,0.472793757,right,1,1580.780405,19,1
113,2,1,21,IA75_L15.bmp,IA75_L15.bmp,IA75.bmp,1,risk,right,0.377429689,right,1,1590.907084,19,1
113,2,2,22,IA75_L30.bmp,IA75_L30.bmp,IA75.bmp,0,safe,,0.306746486,right,1,1621.55451,19,1
113,2,3,23,IA100_L40.bmp,IA100_L40.bmp,IA100.bmp,1,risk,,0.51532548,left,0,1633.502658,19,1
113,2,4,24,IA100_L80.bmp,IA100_L80.bmp,IA100.bmp,1,risk,,1.43117504,right,1,1643.42881,19,1
113,2,5,25,IA100_G60.bmp,IA100_G60.bmp,IA100.bmp,0,safe,,0.217023899,right,1,1653.455232,19,1
113,2,6,26,IA100_L60.bmp,IA100_L60.bmp,IA100.bmp,0,safe,,0.078607836,left,0,1665.136013,19,1
113,2,7,27,IA25_L20.bmp,IA25_L20.bmp,IA25.bmp,0,safe,,0.709836828,left,0,1677.21785,19,1
113,2,8,28,IA80_40_G95p.bmp,IA80_40_G95p.bmp,IA80.bmp,1,risk,,0.483984291,right,1,1686.893344,19,1
113,2,9,29,IA80_40_L95p.bmp,IA80_40_L95p.bmp,IA80.bmp,0,safe,,0.048493398,left,0,1698.707815,19,1
113,2,10,30,IA110_55_L95p.bmp,IA110_55_L95p.bmp,IA110.bmp,1,risk,,0.378018369,right,1,1708.700817,19,1
113,2,11,31,IA100_G40.bmp,IA100_G40.bmp,IA100.bmp,1,risk,,0.001031121,right,1,1720.298039,19,1
113,2,12,32,IA110_55_G95p.bmp,IA110_55_G95p.bmp,IA110.bmp,1,risk,,0.403799723,right,1,1732.045661,19,1
113,2,13,33,IA50_L30.bmp,IA50_L30.bmp,IA50.bmp,1,risk,,0.424178716,left,0,1743.960394,19,1
113,2,14,34,IA25_G10.bmp,IA25_G10.bmp,IA25.bmp,1,risk,,0.381452801,right,1,1755.607752,19,1
113,2,15,35,IA25_G20.bmp,IA25_G20.bmp,IA25.bmp,0,safe,,0.494079317,right,1,1765.717727,19,1
113,2,16,36,IA50_G40.bmp,IA50_G40.bmp,IA50.bmp,0,safe,,0.112118697,left,0,1775.560333,19,1
113,2,17,37,IA50_G10.bmp,IA50_G10.bmp,IA50.bmp,0,safe,,0.1175034,left,0,1785.302673,19,1
113,2,18,38,IA20_10_L95p.bmp,IA20_10_L95p.bmp,IA20.bmp,0,safe,,0.16716685,right,1,1795.095148,19,1
113,2,19,39,IA50_L10.bmp,IA50_L10.bmp,IA50.bmp,0,safe,,0.190685565,right,1,1806.943034,19,1
113,2,20,40,IA50_L20.bmp,IA50_L20.bmp,IA50.bmp,1,risk,,0.374798632,right,1,1816.601821,19,1
113,3,1,41,IA75_L45.bmp,IA75_L45.bmp,IA75.bmp,0,safe,left,0.10001397,right,1,1828.733794,19,1
113,3,2,42,IA75_G30.bmp,IA75_G30.bmp,IA75.bmp,1,risk,,1.216019545,right,1,1850.84206,19,1
113,3,3,43,IA75_L15.bmp,IA75_L15.bmp,IA75.bmp,1,risk,,1.09178628,left,0,1862.656525,19,1
113,3,4,44,IA40_20_L95p.bmp,IA40_20_L95p.bmp,IA40.bmp,1,risk,,0.037313504,right,1,1872.398866,19,1
113,3,5,45,IA100_L20.bmp,IA100_L20.bmp,IA100.bmp,1,risk,,0.014961942,right,1,1882.208049,19,1
113,3,6,46,IA100_G20.bmp,IA100_G20.bmp,IA100.bmp,1,risk,,0.11778214,left,0,1894.841349,19,1
113,3,7,47,IA100_L40.bmp,IA100_L40.bmp,IA100.bmp,1,risk,,0.676487949,right,1,1905.118433,19,1
113,3,8,48,IA75_L60.bmp,IA75_L60.bmp,IA75.bmp,1,risk,,0.079402226,right,1,1915.295251,19,1
113,3,9,49,IA110_55_G95p.bmp,IA110_55_G95p.bmp,IA110.bmp,1,risk,,0.134588188,right,1,1924.98746,19,1
113,3,10,50,IA50_G40.bmp,IA50_G40.bmp,IA50.bmp,0,safe,,0.066373657,left,0,1935.080729,19,1
113,3,11,51,IA75_L30.bmp,IA75_L30.bmp,IA75.bmp,0,safe,,0.269109524,left,0,1947.028883,19,1
113,3,12,52,IA25_G15.bmp,IA25_G15.bmp,IA25.bmp,1,risk,,0.536952884,left,0,1958.87678,19,1
113,3,13,53,IA50_G30.bmp,IA50_G30.bmp,IA50.bmp,1,risk,,0.689055856,right,1,1968.502141,19,1
113,3,14,54,IA50_G20.bmp,IA50_G20.bmp,IA50.bmp,1,risk,,0.535704595,left,0,1980.400166,19,1
113,3,15,55,IA50_L30.bmp,IA50_L30.bmp,IA50.bmp,1,risk,,0.341667847,left,0,1992.916488,19,1
113,3,16,56,IA25_G5.bmp,IA25_G5.bmp,IA25.bmp,0,safe,,0.617339954,right,1,2002.625408,19,1
113,3,17,57,IA100_L60.bmp,IA100_L60.bmp,IA100.bmp,0,safe,,0.092428336,right,1,2012.718678,19,1
113,3,18,58,IA80_40_L95p.bmp,IA80_40_L95p.bmp,IA80.bmp,0,safe,,0.151168741,right,1,2022.377469,19,1
113,3,19,59,IA100_G40.bmp,IA100_G40.bmp,IA100.bmp,1,risk,,0.06836642,right,1,2032.086395,19,1
113,3,20,60,IA75_G60.bmp,IA75_G60.bmp,IA75.bmp,1,risk,,0.071431228,left,0,2042.079403,19,1
113,4,1,61,IA40_20_L95p.bmp,IA40_20_L95p.bmp,IA40.bmp,1,risk,left,0.038436302,left,0,2051.988855,19,1
113,4,2,62,IA75_L60.bmp,IA75_L60.bmp,IA75.bmp,1,risk,,0.12098728,right,1,2077.038218,19,1
113,4,3,63,IA25_G20.bmp,IA25_G20.bmp,IA25.bmp,0,safe,,0.127614762,right,1,2086.897546,19,1
113,4,4,64,IA75_G60.bmp,IA75_G60.bmp,IA75.bmp,1,risk,,0.036289465,left,0,2096.62318,19,1
113,4,5,65,IA75_G30.bmp,IA75_G30.bmp,IA75.bmp,1,risk,,0.094649657,left,0,2108.354116,19,1
113,4,6,66,IA110_55_G95p.bmp,IA110_55_G95p.bmp,IA110.bmp,1,risk,,0.37171453,right,1,2118.129876,19,1
113,4,7,67,IA25_G10.bmp,IA25_G10.bmp,IA25.bmp,1,risk,,0.259957388,right,1,2127.972489,19,1
113,4,8,68,IA75_L45.bmp,IA75_L45.bmp,IA75.bmp,0,safe,,0.097348501,right,1,2139.803681,19,1
113,4,9,69,IA50_L30.bmp,IA50_L30.bmp,IA50.bmp,1,risk,,0.914163858,right,1,2149.896957,19,1
113,4,10,70,IA100_L40.bmp,IA100_L40.bmp,IA100.bmp,1,risk,,0.116877843,right,1,2159.605887,19,1
113,4,11,71,IA100_G60.bmp,IA100_G60.bmp,IA100.bmp,0,safe,,0.071947618,right,1,2169.247972,19,1
113,4,12,72,IA25_L5.bmp,IA25_L5.bmp,IA25.bmp,0,safe,,0.037879111,left,0,2178.956905,19,1
113,4,13,73,IA50_L40.bmp,IA50_L40.bmp,IA50.bmp,0,safe,,0.032931719,right,1,2188.665835,19,1
113,4,14,74,IA100_G20.bmp,IA100_G20.bmp,IA100.bmp,1,risk,,0.004010596,right,1,2198.341357,19,1
113,4,15,75,IA80_40_L95p.bmp,IA80_40_L95p.bmp,IA80.bmp,0,safe,,1.472473252,right,1,2208.033562,19,1
113,4,16,76,IA50_G10.bmp,IA50_G10.bmp,IA50.bmp,0,safe,,0.076270186,left,0,2218.110131,19,1
113,4,17,77,IA100_G80.bmp,IA100_G80.bmp,IA100.bmp,1,risk,,0.119709701,right,1,2228.153275,19,1
113,4,18,78,IA20_10_G95p.bmp,IA20_10_G95p.bmp,IA20.bmp,1,risk,,0.140559881,left,0,2237.728523,19,1
113,4,19,79,IA50_L10.bmp,IA50_L10.bmp,IA50.bmp,0,safe,,0.077311582,left,0,2247.821798,19,1
113,4,20,80,IA40_20_G95p.bmp,IA40_20_G95p.bmp,IA40.bmp,0,safe,,0.05603723,left,0,2257.764679,19,1
113,5,1,81,IA50_L20.bmp,IA50_L20.bmp,IA50.bmp,1,risk,right,0.025165532,left,0,2270.013645,19,1
113,5,2,82,IA20_10_G95p.bmp,IA20_10_G95p.bmp,IA20.bmp,1,risk,,0.296189952,right,1,2292.155357,19,1
113,5,3,83,IA50_G30.bmp,IA50_G30.bmp,IA50.bmp,1,risk,,0.026483136,left,0,2301.89771,19,1
113,5,4,84,IA100_G20.bmp,IA100_G20.bmp,IA100.bmp,1,risk,,0.092124656,left,0,2311.757042,19,1
113,5,5,85,IA75_L30.bmp,IA75_L30.bmp,IA75.bmp,0,safe,,0.032804241,right,1,2321.482687,19,1
113,5,6,86,IA75_G45.bmp,IA75_G45.bmp,IA75.bmp,0,safe,,0.115148207,right,1,2331.475704,19,1
113,5,7,87,IA25_G20.bmp,IA25_G20.bmp,IA25.bmp,0,safe,,0.610133601,left,0,2343.590986,19,1
113,5,8,88,IA100_L60.bmp,IA100_L60.bmp,IA100.bmp,0,safe,,0.406849989,left,0,2353.333358,19,1
113,5,9,89,IA25_L20.bmp,IA25_L20.bmp,IA25.bmp,0,safe,,0.328450189,right,1,2362.908584,19,1
113,5,10,90,IA50_L10.bmp,IA50_L10.bmp,IA50.bmp,0,safe,,0.065249849,right,1,2374.906889,19,1
113,5,11,91,IA25_L10.bmp,IA25_L10.bmp,IA25.bmp,1,risk,,0.402947426,right,1,2387.022171,19,1
113,5,12,92,IA110_55_G95p.bmp,IA110_55_G95p.bmp,IA110.bmp,1,risk,,0.495662333,right,1,2398.953635,19,1
113,5,13,93,IA25_G5.bmp,IA25_G5.bmp,IA25.bmp,0,safe,,0.428201632,right,1,2408.846384,19,1
113,5,14,94,IA100_G60.bmp,IA100_G60.bmp,IA100.bmp,0,safe,,0.127444789,right,1,2418.58874,19,1
113,5,15,95,IA20_10_L95p.bmp,IA20_10_L95p.bmp,IA20.bmp,0,safe,,0.073095721,left,0,2428.966103,19,1
113,5,16,96,IA75_G15.bmp,IA75_G15.bmp,IA75.bmp,1,risk,,0.159720303,right,1,2438.725176,19,1
113,5,17,97,IA100_L40.bmp,IA100_L40.bmp,IA100.bmp,1,risk,,0.096658899,right,1,2448.400685,19,1
113,5,18,98,IA100_G40.bmp,IA100_G40.bmp,IA100.bmp,1,risk,,0.133151232,right,1,2457.992646,19,1
113,5,19,99,IA50_G20.bmp,IA50_G20.bmp,IA50.bmp,1,risk,,0.053194365,left,0,2470.124641,19,1
113,5,20,100,IA25_L15.bmp,IA25_L15.bmp,IA25.bmp,1,risk,,0.30519539,right,1,2479.415812,19,1
113,6,1,101,IA100_G20.bmp,IA100_G20.bmp,IA100.bmp,1,risk,left,0.126032833,right,1,2488.957635,19,1
113,6,2,102,IA100_G40.bmp,IA100_G40.bmp,IA100.bmp,1,risk,,0.01620797,right,1,2510.113422,19,1
113,6,3,103,IA40_20_G95p.bmp,IA40_20_G95p.bmp,IA40.bmp,0,safe,,0.276427452,left,0,2519.939336,19,1
113,6,4,104,IA110_55_L95p.bmp,IA110_55_L95p.bmp,IA110.bmp,1,risk,,0.186503809,left,0,2533.257792,19,1
113,6,5,105,IA50_L30.bmp,IA50_L30.bmp,IA50.bmp,1,risk,,1.300046761,right,1,2542.849751,19,1
113,6,6,106,IA75_L15.bmp,IA75_L15.bmp,IA75.bmp,1,risk,,0.100084192,right,1,2552.374879,19,1
113,6,7,107,IA20_10_L95p.bmp,IA20_10_L95p.bmp,IA20.bmp,0,safe,,0.006967833,right,1,2562.00026,19,1
113,6,8,108,IA100_L60.bmp,IA100_L60.bmp,IA100.bmp,0,safe,,0.605573052,left,0,2572.09354,19,1
113,6,9,109,IA25_G20.bmp,IA25_G20.bmp,IA25.bmp,0,safe,,0.024297785,right,1,2581.835895,19,1
113,6,10,110,IA75_L60.bmp,IA75_L60.bmp,IA75.bmp,1,risk,,0.201946737,right,1,2591.778786,19,1
113,6,11,111,IA20_10_G95p.bmp,IA20_10_G95p.bmp,IA20.bmp,1,risk,,0.107061156,right,1,2601.821954,19,1
113,6,12,112,IA100_L80.bmp,IA100_L80.bmp,IA100.bmp,1,risk,,0.119884261,left,0,2612.182591,19,1
113,6,13,113,IA75_G15.bmp,IA75_G15.bmp,IA75.bmp,1,risk,,0.079243362,right,1,2621.891529,19,1
113,6,14,114,IA25_G5.bmp,IA25_G5.bmp,IA25.bmp,0,safe,,0.042315142,right,1,2631.399937,19,1
113,6,15,115,IA100_G60.bmp,IA100_G60.bmp,IA100.bmp,0,safe,,0.013888596,right,1,2641.042031,19,1
113,6,16,116,IA50_G20.bmp,IA50_G20.bmp,IA50.bmp,1,risk,,0.011819053,left,0,2650.717547,19,1
113,6,17,117,IA75_G60.bmp,IA75_G60.bmp,IA75.bmp,1,risk,,0.000282395,right,1,2660.309506,19,1
113,6,18,118,IA25_L10.bmp,IA25_L10.bmp,IA25.bmp,1,risk,,0.392323795,left,0,2670.620034,19,1
113,6,19,119,IA100_L20.bmp,IA100_L20.bmp,IA100.bmp,1,risk,,0.521806411,right,1,2682.317547,19,1
113,6,20,120,IA40_20_L95p.bmp,IA40_20_L95p.bmp,IA40.bmp,1,risk,,0.672293269,left,0,2694.048485,19,1
113,7,1,121,IA50_L40.bmp,IA50_L40.bmp,IA50.bmp,0,safe,left,0.565341845,right,1,2703.824226,19,1
113,7,2,122,IA75_G15.bmp,IA75_G15.bmp,IA75.bmp,1,risk,,0.029609755,right,1,2720.618552,19,1
113,7,3,123,IA75_L15.bmp,IA75_L15.bmp,IA75.bmp,1,risk,,0.811298475,right,1,2730.260648,19,1
113,7,4,124,IA50_G40.bmp,IA50_G40.bmp,IA50.bmp,0,safe,,0.033182427,right,1,2740.170118,19,1
113,7,5,125,IA100_L60.bmp,IA100_L60.bmp,IA100.bmp,0,safe,,0.707731359,left,0,2749.74533,19,1
113,7,6,126,IA50_L30.bmp,IA50_L30.bmp,IA50.bmp,1,risk,,0.524514443,right,1,2760.189578,19,1
113,7,7,127,IA100_G20.bmp,IA100_G20.bmp,IA100.bmp,1,risk,,0.496254894,right,1,2770.867742,19,1
113,7,8,128,IA20_10_L95p.bmp,IA20_10_L95p.bmp,IA20.bmp,0,safe,,0.890092643,right,1,2780.961029,19,1
113,7,9,129,IA25_L20.bmp,IA25_L20.bmp,IA25.bmp,0,safe,,0.628801097,right,1,2790.519566,19,1
113,7,10,130,IA100_G40.bmp,IA100_G40.bmp,IA100.bmp,1,risk,,0.654270227,left,0,2800.729829,19,1
113,7,11,131,IA25_G10.bmp,IA25_G10.bmp,IA25.bmp,1,risk,,0.540009261,left,0,2810.85653,19,1
113,7,12,132,IA50_G30.bmp,IA50_G30.bmp,IA50.bmp,1,risk,,0.653313723,left,0,2825.027239,19,1
113,7,13,133,IA110_55_G95p.bmp,IA110_55_G95p.bmp,IA110.bmp,1,risk,,0.282591967,right,1,2835.204074,19,1
113,7,14,134,IA25_L5.bmp,IA25_L5.bmp,IA25.bmp,0,safe,,0.617763702,left,0,2845.130257,19,1
113,7,15,135,IA25_L10.bmp,IA25_L10.bmp,IA25.bmp,1,risk,,0.643578963,left,0,2855.373949,19,1
113,7,16,136,IA100_G60.bmp,IA100_G60.bmp,IA100.bmp,0,safe,,0.583891107,left,0,2866.102228,19,1
113,7,17,137,IA20_10_G95p.bmp,IA20_10_G95p.bmp,IA20.bmp,1,risk,,1.039611214,left,0,2877.732905,19,1
113,7,18,138,IA75_G45.bmp,IA75_G45.bmp,IA75.bmp,0,safe,,0.576936289,left,0,2887.876288,19,1
113,7,19,139,IA75_L60.bmp,IA75_L60.bmp,IA75.bmp,1,risk,,0.713547175,left,0,2897.75237,19,1
113,7,20,140,IA80_40_L95p.bmp,IA80_40_L95p.bmp,IA80.bmp,0,safe,,0.67746547,right,1,2907.528147,19,1
113,8,1,141,IA100_G60.bmp,IA100_G60.bmp,IA100.bmp,0,safe,left,0.677689772,right,1,2918.423549,19,1
113,8,2,142,IA25_G15.bmp,IA25_G15.bmp,IA25.bmp,1,risk,,0.758293198,right,1,2934.248581,19,1
113,8,3,143,IA50_G40.bmp,IA50_G40.bmp,IA50.bmp,0,safe,,0.477253371,right,1,2943.773739,19,1
113,8,4,144,IA100_L20.bmp,IA100_L20.bmp,IA100.bmp,1,risk,,1.600098869,right,1,2953.098331,19,1
113,8,5,145,IA40_20_L95p.bmp,IA40_20_L95p.bmp,IA40.bmp,1,risk,,1.843523503,right,1,2962.389503,19,1
113,8,6,146,IA20_10_L95p.bmp,IA20_10_L95p.bmp,IA20.bmp,0,safe,,1.840332065,right,1,2971.864491,19,1
113,8,7,147,IA100_G40.bmp,IA100_G40.bmp,IA100.bmp,1,risk,,1.949335762,left,0,2981.389612,19,1
113,8,8,148,IA50_G20.bmp,IA50_G20.bmp,IA50.bmp,1,risk,,0.096221042,right,1,2991.148684,19,1
113,8,9,149,IA100_L40.bmp,IA100_L40.bmp,IA100.bmp,1,risk,,1.969143333,right,1,3000.439855,19,1
113,8,10,150,IA110_55_G95p.bmp,IA110_55_G95p.bmp,IA110.bmp,1,risk,,1.04597438,right,1,3009.898133,19,1
113,8,11,151,IA25_G5.bmp,IA25_G5.bmp,IA25.bmp,0,safe,,1.683694145,right,1,3019.456678,19,1
113,8,12,152,IA50_L20.bmp,IA50_L20.bmp,IA50.bmp,1,risk,,1.869150937,left,0,3028.948376,19,1
113,8,13,153,IA50_G10.bmp,IA50_G10.bmp,IA50.bmp,0,safe,,0.089460038,right,1,3038.490211,19,1
113,8,14,154,IA25_L15.bmp,IA25_L15.bmp,IA25.bmp,1,risk,,0.427615005,left,0,3047.915069,19,1
113,8,15,155,IA100_G80.bmp,IA100_G80.bmp,IA100.bmp,1,risk,,1.682765779,left,0,3057.189528,19,1
113,8,16,156,IA75_G30.bmp,IA75_G30.bmp,IA75.bmp,1,risk,,1.12829902,left,0,3066.463988,19,1
113,8,17,157,IA75_L15.bmp,IA75_L15.bmp,IA75.bmp,1,risk,,0.597848807,left,0,3075.721761,19,1
113,8,18,158,IA75_L45.bmp,IA75_L45.bmp,IA75.bmp,0,safe,,0.652083875,right,1,3085.296991,19,1
113,8,19,159,IA40_20_G95p.bmp,IA40_20_G95p.bmp,IA40.bmp,0,safe,,0.028855066,right,1,3096.008579,19,1
113,8,20,160,IA100_L80.bmp,IA100_L80.bmp,IA100.bmp,1,risk,,0.725243689,left,0,3105.433436,19,1
113,9,1,161,IA20_10_G95p.bmp,IA20_10_G95p.bmp,IA20.bmp,1,risk,left,1.956395254,left,0,3114.79145,19,1
113,9,2,162,IA25_L15.bmp,IA25_L15.bmp,IA25.bmp,1,risk,,1.718375513,left,0,3131.351802,19,1
113,9,3,163,IA50_L10.bmp,IA50_L10.bmp,IA50.bmp,0,safe,,1.934020273,left,0,3140.726526,19,1
113,9,4,164,IA25_L10.bmp,IA25_L10.bmp,IA25.bmp,1,risk,,0.575309883,right,1,3151.053764,19,1
113,9,5,165,IA50_G40.bmp,IA50_G40.bmp,IA50.bmp,0,safe,,0.840073417,right,1,3161.013364,19,1
113,9,6,166,IA40_20_G95p.bmp,IA40_20_G95p.bmp,IA40.bmp,0,safe,,0.280463382,left,0,3172.928125,19,1
113,9,7,167,IA100_G20.bmp,IA100_G20.bmp,IA100.bmp,1,risk,,0.229694912,left,0,3182.837595,19,1
113,9,8,168,IA75_G15.bmp,IA75_G15.bmp,IA75.bmp,1,risk,,0.528236863,right,1,3192.63009,19,1
113,9,9,169,IA50_L40.bmp,IA50_L40.bmp,IA50.bmp,0,safe,,0.58373753,right,1,3204.812219,19,1
113,9,10,170,IA50_G30.bmp,IA50_G30.bmp,IA50.bmp,1,risk,,1.297608729,right,1,3214.638106,19,1
113,9,11,171,IA110_55_G95p.bmp,IA110_55_G95p.bmp,IA110.bmp,1,risk,,0.599728199,left,0,3224.614454,19,1
113,9,12,172,IA75_L30.bmp,IA75_L30.bmp,IA75.bmp,0,safe,,0.215372401,left,0,3234.67434,19,1
113,9,13,173,IA75_L60.bmp,IA75_L60.bmp,IA75.bmp,1,risk,,0.163489975,right,1,3243.965496,19,1
113,9,14,174,IA75_G60.bmp,IA75_G60.bmp,IA75.bmp,1,risk,,1.160343944,right,1,3253.925105,19,1
113,9,15,175,IA25_L5.bmp,IA25_L5.bmp,IA25.bmp,0,safe,,1.136723315,left,0,3265.622623,19,1
113,9,16,176,IA100_G60.bmp,IA100_G60.bmp,IA100.bmp,0,safe,,0.487225378,left,0,3275.298144,19,1
113,9,17,177,IA50_L30.bmp,IA50_L30.bmp,IA50.bmp,1,risk,,1.699689968,left,0,3287.012379,19,1
113,9,18,178,IA50_G20.bmp,IA50_G20.bmp,IA50.bmp,1,risk,,0.545457851,right,1,3296.387104,19,1
113,9,19,179,IA75_G30.bmp,IA75_G30.bmp,IA75.bmp,1,risk,,1.138732423,right,1,3305.778545,19,1
113,9,20,180,IA80_40_L95p.bmp,IA80_40_L95p.bmp,IA80.bmp,0,safe,,0.099290088,left,0,3315.036295,19,1
113,10,1,181,IA20_10_L95p.bmp,IA20_10_L95p.bmp,IA20.bmp,0,safe,left,1.37754003,right,1,3324.411028,19,1
113,10,2,182,IA75_G45.bmp,IA75_G45.bmp,IA75.bmp,0,safe,,1.714809163,left,0,3340.486768,19,1
113,10,3,183,IA80_40_L95p.bmp,IA80_40_L95p.bmp,IA80.bmp,0,safe,,1.935069285,left,0,3349.794654,19,1
113,10,4,184,IA80_40_G95p.bmp,IA80_40_G95p.bmp,IA80.bmp,1,risk,,1.947175562,right,1,3359.470173,19,1
113,10,5,185,IA25_L10.bmp,IA25_L10.bmp,IA25.bmp,1,risk,,1.567660519,right,1,3368.82819,19,1
113,10,6,186,IA75_L60.bmp,IA75_L60.bmp,IA75.bmp,1,risk,,1.673647603,right,1,3378.136075,19,1
113,10,7,187,IA100_L40.bmp,IA100_L40.bmp,IA100.bmp,1,risk,,1.629761004,right,1,3389.967287,19,1
113,10,8,188,IA100_G20.bmp,IA100_G20.bmp,IA100.bmp,1,risk,,1.838539453,right,1,3401.263746,19,1
113,10,9,189,IA75_L45.bmp,IA75_L45.bmp,IA75.bmp,0,safe,,0.758084167,right,1,3410.805587,19,1
113,10,10,190,IA100_L20.bmp,IA100_L20.bmp,IA100.bmp,1,risk,,0.128255689,right,1,3420.263863,19,1
113,10,11,191,IA50_G30.bmp,IA50_G30.bmp,IA50.bmp,1,risk,,1.773976683,right,1,3429.855855,19,1
113,10,12,192,IA20_10_G95p.bmp,IA20_10_G95p.bmp,IA20.bmp,1,risk,,1.78997954,right,1,3439.297409,19,1
113,10,13,193,IA40_20_G95p.bmp,IA40_20_G95p.bmp,IA40.bmp,0,safe,,1.892435778,right,1,3448.839244,19,1
113,10,14,194,IA25_L15.bmp,IA25_L15.bmp,IA25.bmp,1,risk,,1.814584311,right,1,3458.163837,19,1
113,10,15,195,IA40_20_L95p.bmp,IA40_20_L95p.bmp,IA40.bmp,1,risk,,1.729990549,right,1,3468.641478,19,1
113,10,16,196,IA100_G60.bmp,IA100_G60.bmp,IA100.bmp,0,safe,,0.132348627,right,1,3479.369776,19,1
113,10,17,197,IA25_G5.bmp,IA25_G5.bmp,IA25.bmp,0,safe,,1.89206161,right,1,3490.031233,19,1
113,10,18,198,IA100_G80.bmp,IA100_G80.bmp,IA100.bmp,1,risk,,0.150602086,right,1,3499.823729,19,1
113,10,19,199,IA25_G20.bmp,IA25_G20.bmp,IA25.bmp,0,safe,,0.222119748,left,0,3509.332145,19,1
113,10,20,200,IA50_L20.bmp,IA50_L20.bmp,IA50.bmp,1,risk,,0.033700899,left,0,3519.107933,19,1
114,1,1,1,IA75_L60.bmp,IA75_L60.bmp,IA75.bmp,1,risk,left,0.70591253,right,1,3528.599637,19,1
114,1,2,2,IA100_L80.bmp,IA100_L80.bmp,IA100.bmp,1,risk,,,None,NA,963.9272615,18,1
114,1,3,3,IA50_G30.bmp,IA50_G30.bmp,IA50.bmp,1,risk,,0.33026375,right,1,975.9088779,18,1
114,1,4,4,IA75_G45.bmp,IA75_G45.bmp,IA75.bmp,0,safe,,0.415680779,left,0,988.0074673,18,1
114,1,5,5,IA80_40_G95p.bmp,IA80_40_G95p.bmp,IA80.bmp,1,risk,,0.770734702,right,1,997.7164221,18,1
114,1,6,6,IA50_L30.bmp,IA50_L30.bmp,IA50.bmp,1,risk,,0.481717677,right,1,1009.965421,18,1
114,1,7,7,IA40_20_G95p.bmp,IA40_20_G95p.bmp,IA40.bmp,0,safe,,0.628132419,right,1,1022.699016,18,1
114,1,8,8,IA100_G40.bmp,IA100_G40.bmp,IA100.bmp,1,risk,,,None,NA,1034.764215,18,1
114,1,9,9,IA25_L10.bmp,IA25_L10.bmp,IA25.bmp,1,risk,,0.399515577,right,1,1048.199645,18,1
114,1,10,10,IA20_10_L95p.bmp,IA20_10_L95p.bmp,IA20.bmp,0,safe,,0.481535188,right,1,1060.565613,18,1
114,1,11,11,IA50_L10.bmp,IA50_L10.bmp,IA50.bmp,0,safe,,1.897385333,right,1,1070.725768,18,1
114,1,12,12,IA80_40_L95p.bmp,IA80_40_L95p.bmp,IA80.bmp,0,safe,,0.160874848,right,1,1081.270269,18,1
114,1,13,13,IA110_55_G95p.bmp,IA110_55_G95p.bmp,IA110.bmp,1,risk,,0.475446377,right,1,1093.435706,18,1
114,1,14,14,IA50_L40.bmp,IA50_L40.bmp,IA50.bmp,0,safe,,0.31267015,left,0,1105.350477,18,1
114,1,15,15,IA100_L20.bmp,IA100_L20.bmp,IA100.bmp,1,risk,,0.603408276,right,1,1117.699748,18,1
114,1,16,16,IA75_G30.bmp,IA75_G30.bmp,IA75.bmp,1,risk,,0.040953474,right,1,1128.478199,18,1
114,1,17,17,IA110_55_L95p.bmp,IA110_55_L95p.bmp,IA110.bmp,1,risk,,0.167745598,left,0,1138.287411,18,1
114,1,18,18,IA40_20_L95p.bmp,IA40_20_L95p.bmp,IA40.bmp,1,risk,,0.501282957,right,1,1148.313873,18,1
114,1,19,19,IA25_G5.bmp,IA25_G5.bmp,IA25.bmp,0,safe,,0.257381491,right,1,1158.373774,18,1
114,1,20,20,IA25_G20.bmp,IA25_G20.bmp,IA25.bmp,0,safe,,,None,NA,1171.491733,18,1
114,2,1,21,IA100_L40.bmp,IA100_L40.bmp,IA100.bmp,1,risk,right,0.289312879,right,1,1181.133841,18,1
114,2,2,22,IA100_G80.bmp,IA100_G80.bmp,IA100.bmp,1,risk,,0.395120236,right,1,1208.740045,18,1
114,2,3,23,IA25_L5.bmp,IA25_L5.bmp,IA25.bmp,0,safe,,0.314990672,right,1,1221.156157,18,1
114,2,4,24,IA75_G15.bmp,IA75_G15.bmp,IA75.bmp,1,risk,,0.505281745,right,1,1233.421869,18,1
114,2,5,25,IA25_L15.bmp,IA25_L15.bmp,IA25.bmp,1,risk,,0.632273486,right,1,1245.670872,18,1
114,2,6,26,IA110_55_G95p.bmp,IA110_55_G95p.bmp,IA110.bmp,1,risk,,,None,NA,1258.153838,18,1
114,2,7,27,IA50_L10.bmp,IA50_L10.bmp,IA50.bmp,0,safe,,0.332120123,left,0,1270.219022,18,1
114,2,8,28,IA50_L40.bmp,IA50_L40.bmp,IA50.bmp,0,safe,,0.306596132,left,0,1282.668555,18,1
114,2,9,29,IA100_G20.bmp,IA100_G20.bmp,IA100.bmp,1,risk,,1.069871658,left,0,1295.569284,18,1
114,2,10,30,IA25_G15.bmp,IA25_G15.bmp,IA25.bmp,1,risk,,0.755993246,left,0,1308.403158,18,1
114,2,11,31,IA100_G40.bmp,IA100_G40.bmp,IA100.bmp,1,risk,,1.420767143,right,1,1320.986379,18,1
114,2,12,32,IA75_L60.bmp,IA75_L60.bmp,IA75.bmp,1,risk,,0.473441155,left,0,1333.101712,18,1
114,2,13,33,IA100_L80.bmp,IA100_L80.bmp,IA100.bmp,1,risk,,1.593679061,right,1,1345.133469,18,1
114,2,14,34,IA110_55_L95p.bmp,IA110_55_L95p.bmp,IA110.bmp,1,risk,,0.371333635,right,1,1357.131814,18,1
114,2,15,35,IA40_20_L95p.bmp,IA40_20_L95p.bmp,IA40.bmp,1,risk,,0.410297778,right,1,1367.876854,18,1
114,2,16,36,IA50_L30.bmp,IA50_L30.bmp,IA50.bmp,1,risk,,0.216515852,right,1,1377.886626,18,1
114,2,17,37,IA80_40_G95p.bmp,IA80_40_G95p.bmp,IA80.bmp,1,risk,,1.14102003,left,0,1389.818134,18,1
114,2,18,38,IA75_G60.bmp,IA75_G60.bmp,IA75.bmp,1,risk,,0.318125968,left,0,1402.017015,18,1
114,2,19,39,IA75_G30.bmp,IA75_G30.bmp,IA75.bmp,1,risk,,0.590565267,left,0,1414.232587,18,1
114,2,20,40,IA100_L20.bmp,IA100_L20.bmp,IA100.bmp,1,risk,,1.032536765,left,0,1425.094617,18,1
114,3,1,41,IA25_L5.bmp,IA25_L5.bmp,IA25.bmp,0,safe,left,0.221700466,right,1,1434.753456,18,1
114,3,2,42,IA75_G45.bmp,IA75_G45.bmp,IA75.bmp,0,safe,,0.525085565,right,1,1458.466067,18,1
114,3,3,43,IA25_G20.bmp,IA25_G20.bmp,IA25.bmp,0,safe,,0.517832255,left,0,1470.297312,18,1
114,3,4,44,IA25_L15.bmp,IA25_L15.bmp,IA25.bmp,1,risk,,0.291932257,left,0,1482.379215,18,1
114,3,5,45,IA50_L20.bmp,IA50_L20.bmp,IA50.bmp,1,risk,,1.201133138,right,1,1495.046005,18,1
114,3,6,46,IA100_L60.bmp,IA100_L60.bmp,IA100.bmp,0,safe,,1.20154523,right,1,1507.261595,18,1
114,3,7,47,IA25_L20.bmp,IA25_L20.bmp,IA25.bmp,0,safe,,1.89336634,right,1,1520.713786,18,1
114,3,8,48,IA100_G60.bmp,IA100_G60.bmp,IA100.bmp,0,safe,,0.320966,left,0,1532.478186,18,1
114,3,9,49,IA25_G10.bmp,IA25_G10.bmp,IA25.bmp,1,risk,,0.550890607,left,0,1545.128255,18,1
114,3,10,50,IA40_20_G95p.bmp,IA40_20_G95p.bmp,IA40.bmp,0,safe,,1.179208666,right,1,1557.627938,18,1
114,3,11,51,IA50_G40.bmp,IA50_G40.bmp,IA50.bmp,0,safe,,0.34496004,left,0,1570.094195,18,1
114,3,12,52,IA80_40_L95p.bmp,IA80_40_L95p.bmp,IA80.bmp,0,safe,,0.620400014,left,0,1583.178752,18,1
114,3,13,53,IA20_10_L95p.bmp,IA20_10_L95p.bmp,IA20.bmp,0,safe,,0.322112408,right,1,1593.389039,18,1
114,3,14,54,IA75_G30.bmp,IA75_G30.bmp,IA75.bmp,1,risk,,0.274101339,right,1,1602.981052,18,1
114,3,15,55,IA100_G40.bmp,IA100_G40.bmp,IA100.bmp,1,risk,,0.915021107,left,0,1614.996118,18,1
114,3,16,56,IA75_L60.bmp,IA75_L60.bmp,IA75.bmp,1,risk,,0.79190492,left,0,1627.295255,18,1
114,3,17,57,IA110_55_G95p.bmp,IA110_55_G95p.bmp,IA110.bmp,1,risk,,1.14413243,right,1,1640.079033,18,1
114,3,18,58,IA100_L40.bmp,IA100_L40.bmp,IA100.bmp,1,risk,,0.466831857,left,0,1652.42831,18,1
114,3,19,59,IA25_L10.bmp,IA25_L10.bmp,IA25.bmp,1,risk,,0.523242679,right,1,1664.643913,18,1
114,3,20,60,IA75_L15.bmp,IA75_L15.bmp,IA75.bmp,1,risk,,0.151532767,right,1,1675.639614,18,1
114,4,1,61,IA110_55_L95p.bmp,IA110_55_L95p.bmp,IA110.bmp,1,risk,right,0.198099626,right,1,1685.265051,18,1
114,4,2,62,IA75_L45.bmp,IA75_L45.bmp,IA75.bmp,0,safe,,0.142297513,right,1,1705.384855,18,1
114,4,3,63,IA100_L60.bmp,IA100_L60.bmp,IA100.bmp,0,safe,,0.306976507,left,0,1718.252176,18,1
114,4,4,64,IA25_G20.bmp,IA25_G20.bmp,IA25.bmp,0,safe,,0.173130936,right,1,1728.546023,18,1
114,4,5,65,IA100_L80.bmp,IA100_L80.bmp,IA100.bmp,1,risk,,0.077287934,right,1,1738.321855,18,1
114,4,6,66,IA100_G40.bmp,IA100_G40.bmp,IA100.bmp,1,risk,,0.782194496,right,1,1748.080956,18,1
