,Choice,Choice2,Amount,AdviceVar1,GambleAdviceNum,GambleAdviceType,practice.thisRepN,practice.thisTrialN,practice.thisN,practice.thisIndex,trials_2.thisRepN,trials_2.thisTrialN,trials_2.thisN,trials_2.thisIndex,trials.thisRepN,trials.thisTrialN,trials.thisN,trials.thisIndex,text.started,text.stopped,key_resp_4.keys,key_resp_4.rt,key_resp_4.started,key_resp_4.stopped,instructions.started,instructions.stopped,space.keys,space.rt,space.started,space.stopped,chooseInst.started,chooseInst.stopped,Ad1.started,Ad1.stopped,Ad2.started,Ad2.stopped,key_resp_3.keys,key_resp_3.rt,key_resp_3.started,key_resp_3.stopped,Ad1pic.started,Ad1pic.stopped,Ad2pic.started,Ad2pic.stopped,enter.keys,enter.rt,enter.started,enter.stopped,iSi.started,iSi.stopped,receiveMoneyPicture.started,receiveMoneyPicture.stopped,ISI2.started,ISI2.stopped,ChoicePic.started,ChoicePic.stopped,response.keys,response.started,response.stopped,yesNo.started,yesNo.stopped,ask.started,ask.stopped,getAdv.started,getAdv.stopped,textForCode.started,textForCode.stopped,blank.started,blank.stopped,ChoicePic2.started,ChoicePic2.stopped,resp.keys,resp.rt,resp.started,resp.stopped,checkL1.started,checkL1.stopped,checkR1.started,checkR1.stopped,response.rt,EndPrac.started,EndPrac.stopped,key_resp.keys,key_resp.rt,key_resp.started,key_resp.stopped,endText.started,endText.stopped,key_resp_2.keys,key_resp_2.rt,key_resp_2.started,key_resp_2.stopped,participant,session,age,gender,date,expName,psychopyVersion,frameRate
4,Pictures/IA50_G40.bmp,Pictures/IA50_G40.bmp,50,"

It would probably be best to play it safe.""""",0,safe,0,0.0,0.0,3.0,,,,,,,,,,,,,,,,,,,,,,,,,,,,,,,,,,,,,,,819.819673573,None,821.7915362629999,823.2954983210001,823.278792111,None,824.832887793,None,,826.8715925900002,None,826.8715925900001,None,826.8715925900001,None,None,None,None,None,829.9797910489999,None,829.9797910489999,None,0,1.36602278700002,829.9797910489999,None,831.3834926320001,None,None,None,,,,,,,,,,,,,,999.0,1,9,1,2019_Dec_03_1004,Test,3.2.4,59.8404477731557
5,Pictures/IA100_G20.bmp,Pictures/IA100_G20.bmp,100,"

Go ahead and gamble!""""",1,risk,0,1.0,1.0,4.0,,,,,,,,,,,,,,,,,,,,,,,,,,,,,,,,,,,,,,,832.001775104,None,834.0404868,835.561155393,835.5444513550002,None,837.098543483,None,0.0,839.053695354,None,839.053695354,None,839.053695354,None,None,None,None,None,840.9921383420001,None,840.9921383420001,None,0,1.721682525999995,840.9921383420001,None,842.7634711850001,None,None,None,1.7561318040000058,,,,,,,,,,,,,999.0,1,9,1,2019_Dec_03_1004,Test,3.2.4,59.8404477731557
6,Pictures/IA50_G10.bmp,Pictures/IA50_G10.bmp,50,"

Go with the safe option here!""""",0,safe,0,2.0,2.0,0.0,,,,,,,,,,,,,,,,,,,,,,,,,,,,,,,,,,,,,,,843.014130372,None,845.052857116,846.5735100469998,846.55680949,None,848.094189594,None,0.0,850.066051757,None,850.066051757,None,850.066051757,None,None,None,None,None,851.536597479,None,851.536597479,None,0,0.3772188880000158,851.536597479,None,851.954357863,853.5418732850001,None,None,1.2877804350000588,,,,,,,,,,,,,999.0,1,9,1,2019_Dec_03_1004,Test,3.2.4,59.8404477731557
7,Pictures/IA100_G40.bmp,Pictures/IA100_G40.bmp,100,"

Try your luck and gamble!""""",1,risk,0,3.0,3.0,5.0,,,,,,,,,,,,,,,,,,,,,,,,,,,,,,,,,,,,,,,853.5585849280001,None,855.5805870070001,857.1012546669998,857.084550988,None,858.655351889,None,0.0,860.610507523,None,860.610507523,None,860.610507523,None,None,None,None,None,861.6298605300001,None,861.6298605300001,None,0,0.3639471799999683,861.6298605300002,None,862.0309128450001,863.6351430039999,None,None,0.8473128339999221,,,,,,,,,,,,,999.0,1,9,1,2019_Dec_03_1004,Test,3.2.4,59.8404477731557
8,Pictures/IA50_G20.bmp,Pictures/IA50_G20.bmp,50,"

Let's venture and take a risk!""""",1,risk,0,4.0,4.0,1.0,,,,,,,,,,,,,,,,,,,,,,,,,,,,,,,,,,,,,,,863.6518514429999,None,865.673873172,867.194520686,867.17783209,None,868.7486191170001,None,1.0,870.7037723389999,None,870.7037723389999,None,870.7037723389999,None,871.9904998510001,None,871.9904998510001,872.993138676,874.112756923,None,874.112756923,None,0,1.2650579720000223,874.112756923,None,875.416191624,None,None,None,1.186054805999902,,,,,,,,,,,,,999.0,1,9,1,2019_Dec_03_1004,Test,3.2.4,59.8404477731557
9,Pictures/IA50_G30.bmp,Pictures/IA50_G30.bmp,50,"

I think you should gamble.""""",1,risk,0,5.0,5.0,2.0,,,,,,,,,,,,,,,,,,,,,,,,,,,,,,,,,,,,,,,876.134749629,None,878.1567488850001,879.677420647,879.6607115480002,None,881.231521507,None,0.0,883.1866709489999,None,883.186670949,None,883.186670949,None,None,None,None,None,884.139189197,None,884.139189197,None,1,0.36662498999999116,884.139189197,None,None,None,884.540246666,886.1444775069999,0.7671501629999966,,,,,,,,,,,,,999.0,1,9,1,2019_Dec_03_1004,Test,3.2.4,59.8404477731557
11,Pictures/IA75_L15.bmp,Pictures/IA75_L15.bmp,75,"

Trust me, gamble!""""",1,risk,,,,,0.0,0.0,0.0,0.0,0.0,0.0,0.0,17.0,,,,,,,,,,,,,899.9976433689999,None,899.9976433689999,None,899.9976433689999,None,0,5.804187744000046,899.9976433689999,None,899.9976433689999,None,899.9976433689999,None,return,7.315985802000114,899.9976433689999,None,907.3670691279999,None,909.405770257,910.909731878,910.893024575,None,912.430408706,None,2.0,914.3855615990001,None,914.3855615990001,None,914.3855615990001,None,None,None,None,None,915.170965841,None,915.170965841,None,1,0.3908524779999425,915.170965841,None,None,None,915.605440717,917.176247806,0.6162586049999845,,,,,,,,,,,,,999.0,1,9,1,2019_Dec_03_1004,Test,3.2.4,59.8404477731557
12,Pictures/IA25_G20.bmp,Pictures/IA25_G20.bmp,25,"

I wouldn't gamble for this one. """"",0,safe,,,,,0.0,0.0,0.0,0.0,0.0,1.0,1.0,8.0,,,,,,,,,,,,,,,,,,,,,,,,,,,,,,,917.1929578720001,None,919.2316657609999,920.752345523,920.735633353,None,922.2897269959999,None,0.0,924.2448819010001,None,924.2448819010001,None,924.2448819010001,None,None,None,None,None,924.81304621,None,924.81304621,None,1,0.3487757180000699,924.81304621,None,None,None,925.1973877150001,926.8016157100001,0.39694329999997535,,,,,,,,,,,,,999.0,1,9,1,2019_Dec_03_1004,Test,3.2.4,59.8404477731557
13,Pictures/IA100_L20.bmp,Pictures/IA100_L20.bmp,100,"

Try to win as much money as you can, gamble!""""",1,risk,,,,,0.0,0.0,0.0,0.0,0.0,2.0,2.0,1.0,,,,,,,,,,,,,,,,,,,,,,,,,,,,,,,926.818326647,None,928.857034838,930.377707569,930.3609993939999,None,931.9150966950001,None,2.0,933.870248533,None,933.870248533,None,933.870248533,None,None,None,None,None,934.471835114,None,934.471835114,None,1,0.33799772399993344,934.471835114,None,None,None,934.85617643,936.4603999179999,0.4275794720001613,,,,,,,,,,,,,999.0,1,9,1,2019_Dec_03_1004,Test,3.2.4,59.8404477731557
14,Pictures/IA75_L45.bmp,Pictures/IA75_L45.bmp,75,"

Don't gamble for this one, play it safe.""""",0,safe,,,,,0.0,0.0,0.0,0.0,0.0,3.0,3.0,13.0,,,,,,,,,,,,,,,,,,,,,,,,,,,,,,,936.477116372,None,938.499116162,940.019787365,940.0030808879999,None,941.5738846659999,None,1.0,943.5290388989999,None,943.5290388989999,None,943.5290388989999,None,944.8826053099999,None,944.8826053099999,945.8852461179999,946.988164548,None,946.988164548,None,0,0.9576586309999584,946.988164548,None,947.99079579,None,None,None,1.216781007000009,,,,,,,,,,,,,999.0,1,9,1,2019_Dec_03_1004,Test,3.2.4,59.8404477731557
15,Pictures/IA20_10_G95p.bmp,Pictures/IA20_10_G95p.bmp,20,"

Take a leap, I think you should gamble.""""",1,risk,,,,,0.0,0.0,0.0,0.0,0.0,4.0,4.0,15.0,,,,,,,,,,,,,,,,,,,,,,,,,,,,,,,949.010147383,None,951.048854996,952.552817732,952.536111009,None,954.106917088,None,2.0,956.062071672,None,956.062071672,None,956.062071672,None,None,None,None,None,956.83076241,None,956.83076241,None,0,0.28305697799987684,956.83076241,None,957.148275519,958.819334928,None,None,0.5877582449998044,,,,,,,,,,,,,999.0,1,9,1,2019_Dec_03_1004,Test,3.2.4,59.8404477731557
16,Pictures/IA25_L5.bmp,Pictures/IA25_L5.bmp,25,"

It would be smarter to choose the safe option.""""",0,safe,,,,,0.0,0.0,0.0,0.0,0.0,5.0,5.0,12.0,,,,,,,,,,,,,,,,,,,,,,,,,,,,,,,958.8360465549999,None,960.8580396469999,962.3787210339999,962.3620087,None,963.932818321,None,0.0,965.8879695319999,None,965.8879695319999,None,965.8879695319999,None,None,None,None,None,966.7736456509999,None,966.7736456509999,None,0,0.3241758840001694,966.773645651,None,967.1412794529999,968.762206616,None,None,0.681856549000031,,,,,,,,,,,,,999.0,1,9,1,2019_Dec_03_1004,Test,3.2.4,59.8404477731557
17,Pictures/IA100_G60.bmp,Pictures/IA100_G60.bmp,100,"

Be cautious, don't gamble for this one.""""",0,safe,,,,,0.0,0.0,0.0,0.0,0.0,6.0,6.0,14.0,,,,,,,,,,,,,,,,,,,,,,,,,,,,,,,968.7789190599999,None,970.800916338,972.3215894780001,972.304882373,None,973.8924050329999,None,2.0,975.8308421270001,None,975.8308421270001,None,975.8308421270001,None,None,None,None,None,976.766640324,None,976.766640324,None,1,0.4911815440000282,976.766640324,None,None,None,977.301381019,978.771922101,0.7629769029999807,,,,,,,,,,,,,999.0,1,9,1,2019_Dec_03_1004,Test,3.2.4,59.8404477731557
18,Pictures/IA75_G45.bmp,Pictures/IA75_G45.bmp,75,"

Don't gamble for this one.""""",0,safe,,,,,0.0,0.0,0.0,0.0,0.0,7.0,7.0,9.0,,,,,,,,,,,,,,,,,,,,,,,,,,,,,,,978.7886322679999,None,980.810631886,982.3313046689999,982.314597443,None,983.8854032249999,None,1.0,985.840558178,None,985.840558178,None,985.840558178,None,986.926757493,None,986.926757493,987.929397976,989.0323032910001,None,989.0323032910001,None,0,0.6015171829999417,989.0323032910001,None,989.667305871,991.037586404,None,None,0.9852702650000538,,,,,,,,,,,,,999.0,1,9,1,2019_Dec_03_1004,Test,3.2.4,59.8404477731557
19,Pictures/IA50_L20.bmp,Pictures/IA50_L20.bmp,50,"

Certainty is boring, take a risk!""""",1,risk,,,,,0.0,0.0,0.0,0.0,0.0,8.0,8.0,10.0,,,,,,,,,,,,,,,,,,,,,,,,,,,,,,,991.054296879,None,993.0930019189999,994.613676478,994.5969685959999,None,996.1343540820001,None,2.0,998.1062197680001,None,998.1062197680001,None,998.1062197680001,None,None,None,None,None,999.2258417420001,None,999.2258417420001,None,0,0.37597254699994653,999.2258417420001,None,999.6436013330001,1001.214424777,None,None,0.9515998269998818,,,,,,,,,,,,,999.0,1,9,1,2019_Dec_03_1004,Test,3.2.4,59.8404477731557
20,Pictures/IA100_G40.bmp,Pictures/IA100_G40.bmp,100,"

Try your luck and gamble!""""",1,risk,,,,,0.0,0.0,0.0,0.0,0.0,9.0,9.0,2.0,,,,,,,,,,,,,,,,,,,,,,,,,,,,,,,1001.231120062,None,1003.253120959,1004.773790407,1004.757083055,None,1006.2944662540001,None,0.0,1008.2830435610001,None,1008.2830435609999,None,1008.2830435609999,None,None,None,None,None,1009.1687099159999,None,1009.1687099159999,None,0,0.29710981199991693,1009.168709916,None,1009.502920548,1011.1739933020001,None,None,0.7187885159999041,,,,,,,,,,,,,999.0,1,9,1,2019_Dec_03_1004,Test,3.2.4,59.8404477731557
21,Pictures/IA50_L30.bmp,Pictures/IA50_L30.bmp,50,"

Take a leap, I think you should gamble.""""",1,risk,,,,,0.0,0.0,0.0,0.0,0.0,10.0,10.0,6.0,,,,,,,,,,,,,,,,,,,,,,,,,,,,,,,1011.1907011799999,None,1013.212697065,1014.733374675,1014.7166686850001,None,1016.2874696009999,None,2.0,1018.242626688,None,1018.242626688,None,1018.242626688,None,None,None,None,None,1019.178427846,None,1019.178427846,None,0,0.2713942310001585,1019.178427846,None,1019.4959276909999,1021.167007385,None,None,0.7592012860000068,,,,,,,,,,,,,999.0,1,9,1,2019_Dec_03_1004,Test,3.2.4,59.8404477731557
22,Pictures/IA25_G10.bmp,Pictures/IA25_G10.bmp,25,"

What's life without a little risk?""""",1,risk,,,,,0.0,0.0,0.0,0.0,0.0,11.0,11.0,5.0,,,,,,,,,,,,,,,,,,,,,,,,,,,,,,,1021.1837102930001,None,1023.205709413,1024.726379751,1024.709673978,None,1026.263764697,None,0.0,1028.235634098,None,1028.235634098,None,1028.235634098,None,None,None,None,None,1029.405381199,None,1029.405381199,None,0,0.26043854900012775,1029.405381199,None,1029.70617311,1031.410667955,None,None,0.9741956490001941,,,,,,,,,,,,,999.0,1,9,1,2019_Dec_03_1004,Test,3.2.4,59.8404477731557
23,Pictures/IA75_L60.bmp,Pictures/IA75_L60.bmp,75,"

Why not take the gamble?""""",1,risk,,,,,0.0,0.0,0.0,0.0,0.0,12.0,12.0,16.0,,,,,,,,,,,,,,,,,,,,,,,,,,,,,,,1031.427374372,None,1033.449375548,1034.9700480610002,1034.953339979,None,1036.524142157,None,0.0,1038.479301208,None,1038.479301208,None,1038.479301208,None,None,None,None,None,1039.014040835,None,1039.014040835,None,0,0.29178173400009655,1039.014040835,None,1039.348253873,1041.01932056,None,None,0.3785262950000288,,,,,,,,,,,,,999.0,1,9,1,2019_Dec_03_1004,Test,3.2.4,59.8404477731557
24,Pictures/IA75_G60.bmp,Pictures/IA75_G60.bmp,75,"

Make it exciting, take a chance!""""",1,risk,,,,,0.0,0.0,0.0,0.0,0.0,13.0,13.0,18.0,,,,,,,,,,,,,,,,,,,,,,,,,,,,,,,1041.036034554,None,1043.058032221,1044.57870468,1044.561995295,None,1046.132803221,None,2.0,1048.087960268,None,1048.087960268,None,1048.087960268,None,None,None,None,None,1048.739677201,None,1048.739677201,None,1,0.25414286399995945,1048.739677201,None,None,None,1049.040465592,1050.744959607,0.4818587199999911,,,,,,,,,,,,,999.0,1,9,1,2019_Dec_03_1004,Test,3.2.4,59.8404477731557
25,Pictures/IA50_L40.bmp,Pictures/IA50_L40.bmp,50,"

That gamble doesn't sound too good, play it safe.""""",0,safe,,,,,0.0,0.0,0.0,0.0,0.0,14.0,14.0,11.0,,,,,,,,,,,,,,,,,,,,,,,,,,,,,,,1050.761667691,None,1052.783694001,1054.304340125,1054.28763505,None,1055.858442004,None,2.0,1057.813593175,None,1057.813593175,None,1057.813593175,None,None,None,None,None,1058.766107844,None,1058.766107844,None,0,0.2517147119999663,1058.766107844,None,1059.06690845,1060.771384097,None,None,0.756237763999934,,,,,,,,,,,,,999.0,1,9,1,2019_Dec_03_1004,Test,3.2.4,59.8404477731557
26,Pictures/IA80_40_L95p.bmp,Pictures/IA80_40_L95p.bmp,80,"

Let's stay with the certain option.""""",0,safe,,,,,0.0,0.0,0.0,0.0,0.0,15.0,15.0,4.0,,,,,,,,,,,,,,,,,,,,,,,,,,,,,,,1060.788094347,None,1062.82680601,1064.330768032,1064.31405895,None,1065.834735209,None,1.0,1067.840020467,None,1067.840020467,None,1067.840020467,None,1068.759110968,None,1068.759110968,1069.761747204,1070.864659305,None,1070.864659305,None,1,1.2251567569999224,1070.864659305,None,None,None,1072.134669395,None,0.8017988520000472,,,,,,,,,,,,,999.0,1,9,1,2019_Dec_03_1004,Test,3.2.4,59.8404477731557
27,Pictures/IA50_G10.bmp,Pictures/IA50_G10.bmp,50,"

Go with the safe option here!""""",0,safe,,,,,0.0,0.0,0.0,0.0,0.0,16.0,16.0,3.0,,,,,,,,,,,,,,,,,,,,,,,,,,,,,,,1072.88665113,None,1074.90864921,1076.429323568,1076.412614236,None,1077.950000465,None,1.0,1079.938581179,None,1079.938581179,None,1079.938581179,None,1081.008059625,None,1081.008059625,1082.010700698,1083.11361325,None,1083.11361325,None,0,0.4082012459998623,1083.11361325,None,1083.564796791,1085.102181792,None,None,0.9672546260001128,,,,,,,,,,,,,999.0,1,9,1,2019_Dec_03_1004,Test,3.2.4,59.8404477731557
28,Pictures/IA100_G20.bmp,Pictures/IA100_G20.bmp,100,"

Go ahead and gamble!""""",1,risk,,,,,0.0,0.0,0.0,0.0,0.0,17.0,17.0,19.0,,,,,,,,,,,,,,,,,,,,,,,,,,,,,,,1085.118893994,None,1087.140902382,1088.661563172,1088.6448575939999,None,1090.182241073,None,0.0,1092.170819315,None,1092.170819315,None,1092.170819315,None,None,None,None,None,1093.290436247,None,1093.290436247,None,0,0.3913834370000586,1093.290436247,None,1093.724913412,1095.279005955,None,None,0.9590081290000398,,,,,,,,,,,,,999.0,1,9,1,2019_Dec_03_1004,Test,3.2.4,59.8404477731557
29,Pictures/IA50_G30.bmp,Pictures/IA50_G30.bmp,50,"

I think you should gamble.""""",1,risk,,,,,0.0,0.0,0.0,0.0,0.0,18.0,18.0,7.0,,,,,,,,,,,,,,,,,,,,,,,,,,,,,,,1095.29571842,None,1097.317714048,1098.838390728,1098.821681244,None,1100.35906585,None,0.0,1102.347643071,None,1102.347643071,None,1102.347643071,None,None,None,None,None,1103.066202738,None,1103.066202738,None,0,0.2956114600001456,1103.0662027380001,None,1103.400413234,1105.071483703,None,None,0.5661944859998584,,,,,,,,,,,,,999.0,1,9,1,2019_Dec_03_1004,Test,3.2.4,59.8404477731557
30,Pictures/IA25_G15.bmp,Pictures/IA25_G15.bmp,25,"

I think you should take a gamble.""""",1,risk,,,,,0.0,0.0,0.0,0.0,0.0,19.0,19.0,0.0,,,,,,,,,,,,,,,,,,,,,,,,,,,,,,,1105.088194885,None,1107.110193306,1108.630866021,1108.61415797,None,1110.184963665,None,0.0,1112.140129767,None,1112.140129767,None,1112.140129767,None,None,None,None,None,1112.775126116,None,1112.775126116,None,0,0.250683312000092,1112.7751261160001,None,1113.059205791,1114.763699663,None,None,0.4616900170001372,,,,,,,,,,,,,999.0,1,9,1,2019_Dec_03_1004,Test,3.2.4,59.8404477731557
32,Pictures/IA50_G20.bmp,Pictures/IA50_G20.bmp,50,"

Let's venture and take a risk!""""",1,risk,,,,,1.0,0.0,1.0,0.0,0.0,0.0,0.0,2.0,,,,,,,,,,,,,1125.993301532,None,1125.993301532,None,1125.993301532,None,1,3.4805288739999014,1125.993301532,None,1125.993301532,None,1125.993301532,None,return,5.832291107999936,1125.993301532,None,1131.892182019,None,1133.89746707,1135.418141733,1135.401431382,None,1136.922106084,None,1.0,1138.910687501,None,1138.910687501,None,1138.910687501,None,1139.462142412,None,1139.462142412,1140.464774661,1141.5676860629999,None,1141.5676860629999,None,0,0.7941373710000335,1141.567686063,None,1142.403218807,1143.572967494,None,None,0.4351455389999046,,,,,,,,,,,,,999.0,1,9,1,2019_Dec_03_1004,Test,3.2.4,59.8404477731557
33,Pictures/IA50_G10.bmp,Pictures/IA50_G10.bmp,50,"

Go with the safe option here!""""",0,safe,,,,,1.0,0.0,1.0,0.0,0.0,1.0,1.0,18.0,,,,,,,,,,,,,,,,,,,,,,,,,,,,,,,1143.589685134,None,1145.611675484,1147.132353252,1147.115641979,None,1148.636317989,None,0.0,1150.641603008,None,1150.641603008,None,1150.641603008,None,None,None,None,None,1152.279251743,None,1152.279251743,None,0,0.35456834900014655,1152.279251743,None,1152.680308659,1154.28453576,None,None,1.440228882000156,,,,,,,,,,,,,999.0,1,9,1,2019_Dec_03_1004,Test,3.2.4,59.8404477731557
34,Pictures/IA110_55_L95p.bmp,Pictures/IA110_55_L95p.bmp,110,"

Trust me, gamble!""""",1,risk,,,,,1.0,0.0,1.0,0.0,0.0,2.0,2.0,19.0,,,,,,,,,,,,,,,,,,,,,,,,,,,,,,,1154.301245103,None,1156.339952182,1157.860627414,1157.843921796,None,1159.381305842,None,1.0,1161.35317034,None,1161.35317034,None,1161.35317034,None,1161.787647682,None,1161.787647682,1162.790286397,1163.893199238,None,1163.893199238,None,1,0.3486189600000671,1163.893199238,None,None,None,1164.277543153,1165.881768083,0.32865556499996273,,,,,,,,,,,,,999.0,1,9,1,2019_Dec_03_1004,Test,3.2.4,59.8404477731557
35,Pictures/IA25_L20.bmp,Pictures/IA25_L20.bmp,25,"

Don't be tempted to gamble.""""",0,safe,,,,,1.0,0.0,1.0,0.0,0.0,3.0,3.0,4.0,,,,,,,,,,,,,,,,,,,,,,,,,,,,,,,1165.898480164,None,1167.920480936,1169.44116201,1169.4244430889999,None,1170.995250261,None,0.0,1172.950411595,None,1172.950411595,None,1172.950411595,None,None,None,None,None,1174.320684057,None,1174.320684057,None,0,0.3131367579999278,1174.3206840569999,None,1174.67160555,1176.309255547,None,None,1.1874221859998215,,,,,,,,,,,,,999.0,1,9,1,2019_Dec_03_1004,Test,3.2.4,59.8404477731557
36,Pictures/IA25_G20.bmp,Pictures/IA25_G20.bmp,25,"

I wouldn't gamble for this one. """"",0,safe,,,,,1.0,0.0,1.0,0.0,0.0,4.0,4.0,12.0,,,,,,,,,,,,,,,,,,,,,,,,,,,,,,,1176.325965819,None,1178.347962906,1179.868635761,1179.8519277369999,None,1181.355893091,None,0.0,1183.3778893810002,None,1183.377889381,None,1183.377889381,None,None,None,None,None,1184.347113009,None,1184.347113009,None,0,0.23070721300018704,1184.347113009,None,1184.614481998,1186.352395977,None,None,0.7759419500000604,,,,,,,,,,,,,999.0,1,9,1,2019_Dec_03_1004,Test,3.2.4,59.8404477731557
37,Pictures/IA75_G45.bmp,Pictures/IA75_G45.bmp,75,"

Don't gamble for this one.""""",0,safe,,,,,1.0,0.0,1.0,0.0,0.0,5.0,5.0,8.0,,,,,,,,,,,,,,,,,,,,,,,,,,,,,,,1186.3691053969999,None,1188.391109507,1189.911775159,1189.895065528,None,1191.415742731,None,1.0,1193.421029521,None,1193.421029521,None,1193.421029521,None,1193.838800229,None,1193.838800229,1194.841439345,1195.961057381,None,1195.961057381,None,0,0.552766469000062,1195.961057381,None,1196.562640647,1197.966339399,None,None,0.30880162299990843,,,,,,,,,,,,,999.0,1,9,1,2019_Dec_03_1004,Test,3.2.4,59.8404477731557
38,Pictures/IA25_L15.bmp,Pictures/IA25_L15.bmp,25,"

There's not much on the line here, gamble!""""",1,risk,,,,,1.0,0.0,1.0,0.0,0.0,6.0,6.0,6.0,,,,,,,,,,,,,,,,,,,,,,,,,,,,,,,1197.983049919,None,1200.005047108,1201.525725343,1201.509013177,None,1203.07982335,None,2.0,1205.03497513,None,1205.03497513,None,1205.03497513,None,None,None,None,None,1206.889868147,None,1206.889868147,None,0,0.3119493039998815,1206.889868147,None,1207.240785356,1208.878435646,None,None,1.6548400209999272,,,,,,,,,,,,,999.0,1,9,1,2019_Dec_03_1004,Test,3.2.4,59.8404477731557
39,Pictures/IA75_G30.bmp,Pictures/IA75_G30.bmp,75,"

Be bold, gamble!""""",1,risk,,,,,1.0,0.0,1.0,0.0,0.0,7.0,7.0,16.0,,,,,,,,,,,,,,,,,,,,,,,,,,,,,,,1208.895145282,None,1210.917158254,1212.437818121,1212.421111057,None,1214.092175708,None,2.0,1216.030642503,None,1216.030642503,None,1216.030642503,None,None,None,None,None,1217.317347043,None,1217.317347043,None,0,0.3164663210000072,1217.317347043,None,1217.668270926,1219.305913968,None,None,1.1151890890000686,,,,,,,,,,,,,999.0,1,9,1,2019_Dec_03_1004,Test,3.2.4,59.8404477731557
40,Pictures/IA80_40_G95p.bmp,Pictures/IA80_40_G95p.bmp,80,"

Think of the payoff, gamble!""""",1,risk,,,,,1.0,0.0,1.0,0.0,0.0,8.0,8.0,1.0,,,,,,,,,,,,,,,,,,,,,,,,,,,,,,,1219.32262902,None,1221.3613383460001,1222.882015456,1222.86530868,None,1224.419399726,None,1.0,1226.374555294,None,1226.374555294,None,1226.374555294,None,1226.84245993,None,1226.84245993,1227.845093136,1228.948004951,None,1228.948004951,None,0,0.477806906999831,1228.948004951,None,1229.466033271,1230.936576,None,None,0.34726477300000624,,,,,,,,,,,,,999.0,1,9,1,2019_Dec_03_1004,Test,3.2.4,59.8404477731557
41,Pictures/IA25_G5.bmp,Pictures/IA25_G5.bmp,25,"

Let's stay with the certain option.""""",0,safe,,,,,1.0,0.0,1.0,0.0,0.0,9.0,9.0,14.0,,,,,,,,,,,,,,,,,,,,,,,,,,,,,,,1230.953286991,None,1232.97529177,1234.495959313,1234.479248046,None,1236.050080696,None,0.0,1238.00521277,None,1238.00521277,None,1238.00521277,None,None,None,None,None,1238.556663204,None,1238.556663204,None,0,0.24515204199997243,1238.556663204,None,1238.840743885,1240.561944887,None,None,0.34860959399998137,,,,,,,,,,,,,999.0,1,9,1,2019_Dec_03_1004,Test,3.2.4,59.8404477731557
42,Pictures/IA25_G15.bmp,Pictures/IA25_G15.bmp,25,"

I think you should take a gamble.""""",1,risk,,,,,1.0,0.0,1.0,0.0,0.0,10.0,10.0,10.0,,,,,,,,,,,,,,,,,,,,,,,,,,,,,,,1240.578657161,None,1242.60065462,1244.121328215,1244.104619832,None,1245.64200678,None,0.0,1247.630581593,None,1247.630581593,None,1247.630581593,None,None,None,None,None,1248.583091973,None,1248.583091973,None,0,0.31472441400001117,1248.5830919730001,None,1248.934013824,1250.57166263,None,None,0.7712504349999563,,,,,,,,,,,,,999.0,1,9,1,2019_Dec_03_1004,Test,3.2.4,59.8404477731557
43,Pictures/IA75_G15.bmp,Pictures/IA75_G15.bmp,75,"

Take a chance!""""",1,risk,,,,,1.0,0.0,1.0,0.0,0.0,11.0,11.0,5.0,,,,,,,,,,,,,,,,,,,,,,,,,,,,,,,1250.588374134,None,1252.610375635,1254.131045219,1254.114340373,None,1255.685144554,None,0.0,1257.640299497,None,1257.640299497,None,1257.640299497,None,None,None,None,None,1258.525966032,None,1258.525966032,None,0,0.3558564600000409,1258.525966032,None,1258.927024634,1260.531248444,None,None,0.7295249920000515,,,,,,,,,,,,,999.0,1,9,1,2019_Dec_03_1004,Test,3.2.4,59.8404477731557
44,Pictures/IA80_40_L95p.bmp,Pictures/IA80_40_L95p.bmp,80,"

Let's stay with the certain option.""""",0,safe,,,,,1.0,0.0,1.0,0.0,0.0,12.0,12.0,17.0,,,,,,,,,,,,,,,,,,,,,,,,,,,,,,,1260.547959566,None,1262.569962724,1264.0906312339998,1264.073924419,None,1265.628017715,None,0.0,1267.599885099,None,1267.599885099,None,1267.599885099,None,None,None,None,None,1269.170691984,None,1269.170691984,None,1,0.07112946500001271,1269.1706919839999,None,None,None,1269.287662572,1271.159273929,1.3539306739999122,,,,,,,,,,,,,999.0,1,9,1,2019_Dec_03_1004,Test,3.2.4,59.8404477731557
45,Pictures/IA25_L10.bmp,Pictures/IA25_L10.bmp,25,"

Dont be afraid to take the risk!""""",1,risk,,,,,1.0,0.0,1.0,0.0,0.0,13.0,13.0,15.0,,,,,,,,,,,,,,,,,,,,,,,,,,,,,,,1271.17597381,None,1273.197969118,1274.718643819,1274.701937374,None,1276.272741516,None,1.0,1278.227899375,None,1278.227899375,None,1278.227899375,None,1278.729221828,None,1278.729221828,1279.731858103,1280.834769156,None,1280.834769156,None,0,0.6150470659999883,1280.834769156,None,1281.486482441,1282.840049308,None,None,0.3739264480000202,,,,,,,,,,,,,999.0,1,9,1,2019_Dec_03_1004,Test,3.2.4,59.8404477731557
46,Pictures/IA100_G80.bmp,Pictures/IA100_G80.bmp,100,"

Why not gamble?""""",1,risk,,,,,1.0,0.0,1.0,0.0,0.0,14.0,14.0,9.0,,,,,,,,,,,,,,,,,,,,,,,,,,,,,,,1282.856760315,None,1284.912180826,1286.4161451119999,1286.399437475,None,1287.953527769,None,1.0,1289.908686175,None,1289.908686175,None,1289.908686175,None,1290.877905908,None,1290.877905908,1291.88054546,1292.983460697,None,1292.983460697,None,0,0.3303569269999116,1292.983460697,None,1293.35108854,1294.988737691,None,None,0.8691331570000784,,,,,,,,,,,,,999.0,1,9,1,2019_Dec_03_1004,Test,3.2.4,59.8404477731557
47,Pictures/IA100_G40.bmp,Pictures/IA100_G40.bmp,100,"

Try your luck and gamble!""""",1,risk,,,,,1.0,0.0,1.0,0.0,0.0,15.0,15.0,3.0,,,,,,,,,,,,,,,,,,,,,,,,,,,,,,,1295.005450134,None,1297.027447297,1298.54812089,1298.531413884,None,1300.102217849,None,0.0,1302.057372854,None,1302.057372854,None,1302.057372854,None,None,None,None,None,1302.658960663,None,1302.658960663,None,0,0.29486533500016776,1302.658960663,None,1302.99317142,1304.64753605,None,None,0.4484469569999874,,,,,,,,,,,,,999.0,1,9,1,2019_Dec_03_1004,Test,3.2.4,59.8404477731557
48,Pictures/IA100_L60.bmp,Pictures/IA100_L60.bmp,100,"

You'd have a lot to lose, don't gamble.""""",0,safe,,,,,1.0,0.0,1.0,0.0,0.0,16.0,16.0,13.0,,,,,,,,,,,,,,,,,,,,,,,,,,,,,,,1304.664237629,None,1306.686238511,1308.206911785,1308.190207617,None,1309.761009634,None,2.0,1311.71616971,None,1311.71616971,None,1311.71616971,None,None,None,None,None,1312.4514406389999,None,1312.4514406389999,None,0,0.25439224199999444,1312.4514406389999,None,1312.752226286,1314.456717798,None,None,0.5656556180001644,,,,,,,,,,,,,999.0,1,9,1,2019_Dec_03_1004,Test,3.2.4,59.8404477731557
49,Pictures/IA100_G60.bmp,Pictures/IA100_G60.bmp,100,"

Be cautious, don't gamble for this one.""""",0,safe,,,,,1.0,0.0,1.0,0.0,0.0,17.0,17.0,0.0,,,,,,,,,,,,,,,,,,,,,,,,,,,,,,,1314.473428658,None,1316.495427712,1318.01610168,1317.999392563,None,1319.553493203,None,2.0,1321.525354118,None,1321.525354118,None,1321.525354118,None,None,None,None,None,1322.093525101,None,1322.093525101,None,0,0.2283034219999536,1322.093525101,None,1322.360888881,1324.098799737,None,None,0.3884732630001509,,,,,,,,,,,,,999.0,1,9,1,2019_Dec_03_1004,Test,3.2.4,59.8404477731557
50,Pictures/IA75_L45.bmp,Pictures/IA75_L45.bmp,75,"

Don't gamble for this one, play it safe.""""",0,safe,,,,,1.0,0.0,1.0,0.0,0.0,18.0,18.0,11.0,,,,,,,,,,,,,,,,,,,,,,,,,,,,,,,1324.1155099329999,None,1326.137523892,1327.65818281,1327.641475108,None,1329.195569192,None,2.0,1331.167435828,None,1331.167435828,None,1331.167435828,None,None,None,None,None,1331.902703887,None,1331.902703887,None,0,0.5551160569998501,1331.902703887,None,1332.504288369,1333.907987306,None,None,0.5623932149999291,,,,,,,,,,,,,999.0,1,9,1,2019_Dec_03_1004,Test,3.2.4,59.8404477731557
51,Pictures/IA50_L20.bmp,Pictures/IA50_L20.bmp,50,"

Certainty is boring, take a risk!""""",1,risk,,,,,1.0,0.0,1.0,0.0,0.0,19.0,19.0,7.0,,,,,,,,,,,,,,,,,,,,,,,,,,,,,,,1333.924699396,None,1335.946699582,1337.46737032,1337.450666362,None,1339.00475763,None,1.0,1340.976621514,None,1340.976621514,None,1340.976621514,None,1341.7787356649999,None,1341.7787356649999,1342.781375861,1343.884292986,None,1343.884292986,None,0,1.05351761299994,1343.884292986,None,1344.987192025,None,None,None,0.673218684999938,,,,,,,,,,,,,999.0,1,9,1,2019_Dec_03_1004,Test,3.2.4,59.8404477731557
53,Pictures/IA25_G10.bmp,Pictures/IA25_G10.bmp,25,"

What's life without a little risk?""""",1,risk,,,,,2.0,0.0,2.0,0.0,0.0,0.0,0.0,15.0,,,,,,,,,,,,,1356.250210918,None,1356.250210918,None,1356.250210918,None,0,2.319599141000026,1356.250210918,None,1356.250210918,None,1356.250210918,None,return,3.6553933000000143,1356.250210918,None,1359.959988656,None,1361.965275187,1363.4859493210001,1363.4692417830001,None,1365.006626547,None,0.0,1366.978491263,None,1366.978491263,None,1366.978491263,None,None,None,None,None,1368.298637848,None,1368.298637848,None,0,0.2711814950000644,1368.298637848,None,1368.616151642,1370.287208036,None,None,1.1433348999998998,,,,,,,,,,,,,999.0,1,9,1,2019_Dec_03_1004,Test,3.2.4,59.8404477731557
54,Pictures/IA100_G20.bmp,Pictures/IA100_G20.bmp,100,"

Go ahead and gamble!""""",1,risk,,,,,2.0,0.0,2.0,0.0,0.0,1.0,1.0,13.0,,,,,,,,,,,,,,,,,,,,,,,,,,,,,,,1370.303920334,None,1372.32591457,1373.846589347,1373.829883469,None,1375.383981305,None,0.0,1377.355807576,None,1377.355807576,None,1377.355807576,None,None,None,None,None,1378.04098136,None,1378.04098136,None,0,0.13683643700005632,1378.04098136,None,1378.22481321,1380.0295536,None,None,0.5340122879999853,,,,,,,,,,,,,999.0,1,9,1,2019_Dec_03_1004,Test,3.2.4,59.8404477731557
55,Pictures/IA110_55_G95p.bmp,Pictures/IA110_55_G95p.bmp,110,"

Take a chance!""""",1,risk,,,,,2.0,0.0,2.0,0.0,0.0,2.0,2.0,7.0,,,,,,,,,,,,,,,,,,,,,,,,,,,,,,,1380.046263843,None,1382.084974145,1383.5889344620002,1383.572229691,None,1385.159755588,None,1.0,1387.0981899079998,None,1387.098189908,None,1387.098189908,None,1387.716483518,None,1387.716483518,1388.71912236,1389.838744929,None,1389.838744929,None,0,1.1630710010001621,1389.8387449289999,None,1391.041915396,None,None,None,0.5276369270000032,,,,,,,,,,,,,999.0,1,9,1,2019_Dec_03_1004,Test,3.2.4,59.8404477731557
56,Pictures/IA25_L5.bmp,Pictures/IA25_L5.bmp,25,"

It would be smarter to choose the safe option.""""",0,safe,,,,,2.0,0.0,2.0,0.0,0.0,3.0,3.0,11.0,,,,,,,,,,,,,,,,,,,,,,,,,,,,,,,1391.860736923,None,1393.882736095,1395.40340842,1395.386702029,None,1396.940799797,None,0.0,1398.9126669870002,None,1398.912666987,None,1398.912666987,None,None,None,None,None,1400.583733401,None,1400.583733401,None,1,0.4100815260001127,1400.583733401,None,None,None,1401.034934147,1402.572301798,1.497157808000111,,,,,,,,,,,,,999.0,1,9,1,2019_Dec_03_1004,Test,3.2.4,59.8404477731557
57,Pictures/IA50_G10.bmp,Pictures/IA50_G10.bmp,50,"

Go with the safe option here!""""",0,safe,,,,,2.0,0.0,2.0,0.0,0.0,4.0,4.0,1.0,,,,,,,,,,,,,,,,,,,,,,,,,,,,,,,1402.589014763,None,1404.611012,1406.131683955,1406.114977316,None,1407.618941357,None,1.0,1409.640937261,None,1409.640937261,None,1409.640937261,None,1410.693679437,None,1410.693679437,1411.696351284,1412.799264068,None,1412.799264068,None,0,0.8745548629999575,1412.799264068,None,1413.71835006,1414.787834618,None,None,0.9448894039999232,,,,,,,,,,,,,999.0,1,9,1,2019_Dec_03_1004,Test,3.2.4,59.8404477731557
58,Pictures/IA80_40_G95p.bmp,Pictures/IA80_40_G95p.bmp,80,"

Think of the payoff, gamble!""""",1,risk,,,,,2.0,0.0,2.0,0.0,0.0,5.0,5.0,8.0,,,,,,,,,,,,,,,,,,,,,,,,,,,,,,,1414.804550797,None,1416.826543729,1418.3472151160001,1418.330508307,None,1419.851179014,None,1.0,1421.856468031,None,1421.856468031,None,1421.856468031,None,1422.758845819,None,1422.758845819,1423.76148559,1424.864395849,None,1424.864395849,None,0,0.433427810000012,1424.864395849,None,1425.332292562,1426.86967706,None,None,0.7853809390001061,,,,,,,,,,,,,999.0,1,9,1,2019_Dec_03_1004,Test,3.2.4,59.8404477731557
59,Pictures/IA75_L60.bmp,Pictures/IA75_L60.bmp,75,"

Why not take the gamble?""""",1,risk,,,,,2.0,0.0,2.0,0.0,0.0,6.0,6.0,6.0,,,,,,,,,,,,,,,,,,,,,,,,,,,,,,,1426.886387968,None,1428.908386076,1430.429059446,1430.4123516939999,None,1431.983158927,None,1.0,1433.938312366,None,1433.938312366,None,1433.938312366,None,1435.041217457,None,1435.041217457,1436.043857423,1437.14677739,None,1437.14677739,None,0,1.0630259189999833,1437.14677739,None,1438.249671928,None,None,None,0.999508823000042,,,,,,,,,,,,,999.0,1,9,1,2019_Dec_03_1004,Test,3.2.4,59.8404477731557
60,Pictures/IA50_L30.bmp,Pictures/IA50_L30.bmp,50,"

Take a leap, I think you should gamble.""""",1,risk,,,,,2.0,0.0,2.0,0.0,0.0,7.0,7.0,5.0,,,,,,,,,,,,,,,,,,,,,,,,,,,,,,,1439.168762257,None,1441.1907610189999,1442.6947217729999,1442.67801386,None,1444.248819501,None,1.0,1446.220690044,None,1446.220690044,None,1446.220690044,None,1447.089640781,None,1447.089640781,1448.092285386,1449.195196895,None,1449.195196895,None,0,0.9106315469998664,1449.195196895,None,1450.147711588,1451.183763804,None,None,0.7251332050000201,,,,,,,,,,,,,999.0,1,9,1,2019_Dec_03_1004,Test,3.2.4,59.8404477731557
61,Pictures/IA50_L20.bmp,Pictures/IA50_L20.bmp,50,"

Certainty is boring, take a risk!""""",1,risk,,,,,2.0,0.0,2.0,0.0,0.0,8.0,8.0,19.0,,,,,,,,,,,,,,,,,,,,,,,,,,,,,,,1451.200474397,None,1453.222471588,1454.7264353479998,1454.709725033,None,1456.230400191,None,1.0,1458.252401111,None,1458.252401111,None,1458.252401111,None,1458.68684679,None,1458.68684679,1459.689513224,1460.825895772,None,1460.825895772,None,1,0.5519284930001049,1460.825895772,None,None,None,1461.427459031,1462.814433148,0.33342021699991164,,,,,,,,,,,,,999.0,1,9,1,2019_Dec_03_1004,Test,3.2.4,59.8404477731557
62,Pictures/IA50_G40.bmp,Pictures/IA50_G40.bmp,50,"

It would probably be best to play it safe.""""",0,safe,,,,,2.0,0.0,2.0,0.0,0.0,9.0,9.0,2.0,,,,,,,,,,,,,,,,,,,,,,,,,,,,,,,1462.831202861,None,1464.869836078,1466.390508962,1466.3738057229998,None,1467.911190141,None,1.0,1469.883052745,None,1469.883052745,None,1469.883052745,None,1470.651747161,None,1470.651747161,1471.654381825,1472.774004519,None,1472.774004519,None,1,0.47581433699997433,1472.7740045189998,None,None,None,1473.292035011,1474.762575245,0.6307722330000161,,,,,,,,,,,,,999.0,1,9,1,2019_Dec_03_1004,Test,3.2.4,59.8404477731557
63,Pictures/IA20_10_L95p.bmp,Pictures/IA20_10_L95p.bmp,20,"

Don't be tempted to gamble.""""",0,safe,,,,,2.0,0.0,2.0,0.0,0.0,10.0,10.0,17.0,,,,,,,,,,,,,,,,,,,,,,,,,,,,,,,1474.779286082,None,1476.817995521,1478.338667556,1478.321959591,None,1479.87605943,None,0.0,1481.831208602,None,1481.831208602,None,1481.831208602,None,None,None,None,None,1482.800432485,None,1482.800432485,None,1,0.2253970289998506,1482.800432485,None,None,None,1483.067800145,1484.805711766,0.7866133139998509,,,,,,,,,,,,,999.0,1,9,1,2019_Dec_03_1004,Test,3.2.4,59.8404477731557
64,Pictures/IA80_40_L95p.bmp,Pictures/IA80_40_L95p.bmp,80,"

Let's stay with the certain option.""""",0,safe,,,,,2.0,0.0,2.0,0.0,0.0,11.0,11.0,14.0,,,,,,,,,,,,,,,,,,,,,,,,,,,,,,,1484.822423244,None,1486.861133379,1488.381804508,1488.36509643,None,1489.902485034,None,0.0,1491.8743464289998,None,1491.874346429,None,1491.874346429,None,None,None,None,None,1492.960540812,None,1492.960540812,None,1,0.16927994499997112,1492.960540812,None,None,None,1493.177778551,1494.965824291,0.8714881349999359,,,,,,,,,,,,,999.0,1,9,1,2019_Dec_03_1004,Test,3.2.4,59.8404477731557
65,Pictures/IA50_G30.bmp,Pictures/IA50_G30.bmp,50,"

I think you should gamble.""""",1,risk,,,,,2.0,0.0,2.0,0.0,0.0,12.0,12.0,4.0,,,,,,,,,,,,,,,,,,,,,,,,,,,,,,,1494.982534776,None,1497.00453394,1498.508493929,1498.4917869029998,None,1500.045884948,None,1.0,1502.034460005,None,1502.034460005,None,1502.034460005,None,1502.702883957,None,1502.702883957,1503.705524518,1504.825147546,None,1504.825147546,None,0,0.32866010600014306,1504.8251475460002,None,1505.192777891,1506.83042629,None,None,0.5673574019999705,,,,,,,,,,,,,999.0,1,9,1,2019_Dec_03_1004,Test,3.2.4,59.8404477731557
66,Pictures/IA50_G20.bmp,Pictures/IA50_G20.bmp,50,"

Let's venture and take a risk!""""",1,risk,,,,,2.0,0.0,2.0,0.0,0.0,13.0,13.0,12.0,,,,,,,,,,,,,,,,,,,,,,,,,,,,,,,1506.8471439099999,None,1508.869137749,1510.3898123660001,1510.373100928,None,1511.927195085,None,0.0,1513.899063509,None,1513.899063509,None,1513.899063509,None,None,None,None,None,1514.851576413,None,1514.851576413,None,0,0.2622423800000888,1514.851576413,None,1515.152372567,1516.856851772,None,None,0.7987618750000821,,,,,,,,,,,,,999.0,1,9,1,2019_Dec_03_1004,Test,3.2.4,59.8404477731557
67,Pictures/IA25_G5.bmp,Pictures/IA25_G5.bmp,25,"

Let's stay with the certain option.""""",0,safe,,,,,2.0,0.0,2.0,0.0,0.0,14.0,14.0,9.0,,,,,,,,,,,,,,,,,,,,,,,,,,,,,,,1516.873581266,None,1518.928987956,1520.4329482270002,1520.4162383879998,None,1521.936915317,None,0.0,1523.925491384,None,1523.925491384,None,1523.925491384,None,None,None,None,None,1524.944841417,None,1524.944841417,None,0,0.2569801820000066,1524.9448414170001,None,1525.245638462,1526.933468772,None,None,0.8043283560000418,,,,,,,,,,,,,999.0,1,9,1,2019_Dec_03_1004,Test,3.2.4,59.8404477731557
68,Pictures/IA75_G30.bmp,Pictures/IA75_G30.bmp,75,"

Be bold, gamble!""""",1,risk,,,,,2.0,0.0,2.0,0.0,0.0,15.0,15.0,10.0,,,,,,,,,,,,,,,,,,,,,,,,,,,,,,,1526.950137034,None,1528.988830485,1530.509503957,1530.492796964,None,1532.030181573,None,2.0,1534.002049235,None,1534.002049235,None,1534.002049235,None,None,None,None,None,1534.871002354,None,1534.871002354,None,0,0.2988140890001887,1534.871002354,None,1535.205213859,1536.876282188,None,None,0.7117786789999627,,,,,,,,,,,,,999.0,1,9,1,2019_Dec_03_1004,Test,3.2.4,59.8404477731557
69,Pictures/IA25_L20.bmp,Pictures/IA25_L20.bmp,25,"

Don't be tempted to gamble.""""",0,safe,,,,,2.0,0.0,2.0,0.0,0.0,16.0,16.0,3.0,,,,,,,,,,,,,,,,,,,,,,,,,,,,,,,1536.892994358,None,1538.931708985,1540.4356729039998,1540.4189571089998,None,1541.95634213,None,0.0,1543.9449228,None,1543.9449228,None,1543.9449228,None,None,None,None,None,1544.696904788,None,1544.696904788,None,0,0.1529359859998749,1544.696904788,None,1544.897461899,1546.702184677,None,None,0.5449032320000242,,,,,,,,,,,,,999.0,1,9,1,2019_Dec_03_1004,Test,3.2.4,59.8404477731557
70,Pictures/IA50_L10.bmp,Pictures/IA50_L10.bmp,50,"

Play it safe, don’t gamble!""""",0,safe,,,,,2.0,0.0,2.0,0.0,0.0,17.0,17.0,0.0,,,,,,,,,,,,,,,,,,,,,,,,,,,,,,,1546.718894591,None,1548.757601111,1550.2615620570002,1550.244853608,None,1551.81565893,None,2.0,1553.770815068,None,1553.770815068,None,1553.770815068,None,None,None,None,None,1555.207939525,None,1555.207939525,None,1,0.21787308800003305,1555.207939525,None,None,None,1555.475311597,1557.213219187,1.2230141420000111,,,,,,,,,,,,,999.0,1,9,1,2019_Dec_03_1004,Test,3.2.4,59.8404477731557
71,Pictures/IA25_L15.bmp,Pictures/IA25_L15.bmp,25,"

There's not much on the line here, gamble!""""",1,risk,,,,,2.0,0.0,2.0,0.0,0.0,18.0,18.0,18.0,,,,,,,,,,,,,,,,,,,,,,,,,,,,,,,1557.229936548,None,1559.251928493,1560.772597287,1560.75588973,None,1562.3099854,None,2.0,1564.281857032,None,1564.281857032,None,1564.281857032,None,None,None,None,None,1565.652129354,None,1565.652129354,None,0,0.4376934219999384,1565.652129354,None,1566.136747096,1567.640697658,None,None,1.191971219999914,,,,,,,,,,,,,999.0,1,9,1,2019_Dec_03_1004,Test,3.2.4,59.8404477731557
72,Pictures/IA20_10_G95p.bmp,Pictures/IA20_10_G95p.bmp,20,"

Take a leap, I think you should gamble.""""",1,risk,,,,,2.0,0.0,2.0,0.0,0.0,19.0,19.0,16.0,,,,,,,,,,,,,,,,,,,,,,,,,,,,,,,1567.657413933,None,1569.6961195860001,1571.200079421,1571.18337452,None,1572.704047834,None,2.0,1574.709333246,None,1574.709333246,None,1574.709333246,None,None,None,None,None,1576.330272568,None,1576.330272568,None,0,0.28754733300002044,1576.330272568,None,1576.664482983,1578.335552176,None,None,1.4445004269998662,,,,,,,,,,,,,999.0,1,9,1,2019_Dec_03_1004,Test,3.2.4,59.8404477731557
74,Pictures/IA50_G10.bmp,Pictures/IA50_G10.bmp,50,"

Go with the safe option here!""""",0,safe,,,,,3.0,0.0,3.0,0.0,0.0,0.0,0.0,3.0,,,,,,,,,,,,,1589.3312034110002,None,1589.331203411,None,1589.331203411,None,0,2.3426090769999064,1589.3312034110002,None,1589.331203411,None,1589.331203411,None,return,3.2623982769998747,1589.3312034110002,None,1592.639925813,None,1594.645205791,1596.165878544,1596.1491810589998,None,1597.686558221,None,0.0,1599.675131272,None,1599.675131272,None,1599.675131272,None,None,None,None,None,1600.67777376,None,1600.67777376,None,0,0.31603765299996667,1600.67777376,None,1601.028695088,1602.683055048,None,None,0.790699130999883,,,,,,,,,,,,,999.0,1,9,1,2019_Dec_03_1004,Test,3.2.4,59.8404477731557
75,Pictures/IA20_10_G95p.bmp,Pictures/IA20_10_G95p.bmp,20,"

Take a leap, I think you should gamble.""""",1,risk,,,,,3.0,0.0,3.0,0.0,0.0,1.0,1.0,5.0,,,,,,,,,,,,,,,,,,,,,,,,,,,,,,,1602.699765686,None,1604.7217666010001,1606.2424350889999,1606.225732063,None,1607.729705523,None,2.0,1609.751688952,None,1609.751688952,None,1609.751688952,None,None,None,None,None,1610.53709097,None,1610.53709097,None,0,0.08073085699993499,1610.53709097,None,1610.654064897,1612.542373331,None,None,0.6101355550001699,,,,,,,,,,,,,999.0,1,9,1,2019_Dec_03_1004,Test,3.2.4,59.8404477731557
76,Pictures/IA100_G60.bmp,Pictures/IA100_G60.bmp,100,"

Be cautious, don't gamble for this one.""""",0,safe,,,,,3.0,0.0,3.0,0.0,0.0,2.0,2.0,13.0,,,,,,,,,,,,,,,,,,,,,,,,,,,,,,,1612.559083947,None,1614.5977934470002,1616.101754702,1616.085050819,None,1617.622433184,None,2.0,1619.611008033,None,1619.611008033,None,1619.611008033,None,None,None,None,None,1620.212597149,None,1620.212597149,None,0,1.005229933999999,1620.212597149,None,1621.265363303,None,None,None,0.4228204229998481,,,,,,,,,,,,,999.0,1,9,1,2019_Dec_03_1004,Test,3.2.4,59.8404477731557
77,Pictures/IA25_L10.bmp,Pictures/IA25_L10.bmp,25,"

Dont be afraid to take the risk!""""",1,risk,,,,,3.0,0.0,3.0,0.0,0.0,3.0,3.0,9.0,,,,,,,,,,,,,,,,,,,,,,,,,,,,,,,1622.217873193,None,1624.239874785,1625.7605413879999,1625.743834739,None,1627.2979308739998,None,0.0,1629.2697957459998,None,1629.2697957459998,None,1629.2697957459998,None,None,None,None,None,1630.623364843,None,1630.623364843,None,0,0.3544554009999956,1630.623364843,None,1631.024416348,1632.628643748,None,None,1.1640298500001336,,,,,,,,,,,,,999.0,1,9,1,2019_Dec_03_1004,Test,3.2.4,59.8404477731557
78,Pictures/IA100_G80.bmp,Pictures/IA100_G80.bmp,100,"

Why not gamble?""""",1,risk,,,,,3.0,0.0,3.0,0.0,0.0,4.0,4.0,8.0,,,,,,,,,,,,,,,,,,,,,,,,,,,,,,,1632.645354606,None,1634.6840639949999,1636.2047348089995,1636.188026129,None,1637.742121998,None,0.0,1639.697276255,None,1639.6972762550001,None,1639.6972762550001,None,None,None,None,None,1641.0007179410002,None,1641.0007179410002,None,0,0.16110236199983774,1641.0007179410004,None,1641.201237376,1643.005993394,None,None,1.1525477150003098,,,,,,,,,,,,,999.0,1,9,1,2019_Dec_03_1004,Test,3.2.4,59.8404477731557
79,Pictures/IA25_L5.bmp,Pictures/IA25_L5.bmp,25,"

It would be smarter to choose the safe option.""""",0,safe,,,,,3.0,0.0,3.0,0.0,0.0,5.0,5.0,1.0,,,,,,,,,,,,,,,,,,,,,,,,,,,,,,,1643.022704998,None,1645.044699804,1646.5653745270001,1646.548666755,None,1648.0860500810002,None,1.0,1650.0746267339996,None,1650.0746267339998,None,1650.0746267339998,None,1650.8266079510001,None,1650.8266079510001,1651.8292487699998,1652.932158154,None,1652.932158154,None,1,0.525661128000138,1652.932158154,None,None,None,1653.5003168310002,1654.937436543,0.5911993519998759,,,,,,,,,,,,,999.0,1,9,1,2019_Dec_03_1004,Test,3.2.4,59.8404477731557
80,Pictures/IA50_G40.bmp,Pictures/IA50_G40.bmp,50,"

It would probably be best to play it safe.""""",0,safe,,,,,3.0,0.0,3.0,0.0,0.0,6.0,6.0,11.0,,,,,,,,,,,,,,,,,,,,,,,,,,,,,,,1654.954150961,None,1656.9761479770002,1658.4968194669998,1658.480111786,None,1660.0174951279998,None,0.0,1662.00607196,None,1662.0060719599999,None,1662.0060719599999,None,None,None,None,None,1662.858317432,None,1662.858317432,None,1,0.6555020309997417,1662.8583174320001,None,None,None,1663.5601626690002,1664.846916236,0.6837513489999765,,,,,,,,,,,,,999.0,1,9,1,2019_Dec_03_1004,Test,3.2.4,59.8404477731557
81,Pictures/IA100_L40.bmp,Pictures/IA100_L40.bmp,100,"

Think of the payoff, gamble!""""",1,risk,,,,,3.0,0.0,3.0,0.0,0.0,7.0,7.0,12.0,,,,,,,,,,,,,,,,,,,,,,,,,,,,,,,1664.8635990740001,None,1666.88559625,1668.4062682120002,1668.389561309,None,1669.960366731,None,2.0,1671.915521655,None,1671.915521655,None,1671.915521655,None,None,None,None,None,1673.352642568,None,1673.352642568,None,1,0.48917429899984205,1673.352642568,None,None,None,1673.8873802599999,1675.357921525,1.2543144989999746,,,,,,,,,,,,,999.0,1,9,1,2019_Dec_03_1004,Test,3.2.4,59.8404477731557
82,Pictures/IA50_L20.bmp,Pictures/IA50_L20.bmp,50,"

Certainty is boring, take a risk!""""",1,risk,,,,,3.0,0.0,3.0,0.0,0.0,8.0,8.0,18.0,,,,,,,,,,,,,,,,,,,,,,,,,,,,,,,1675.3746332039998,None,1677.396631705,1678.91731745,1678.900594334,None,1680.454690232,None,2.0,1682.426554638,None,1682.426554638,None,1682.426554638,None,None,None,None,None,1684.364995797,None,1684.364995797,None,0,0.3248181010003464,1684.364995797,None,1684.732630493,1686.353567462,None,None,1.7592737380000472,,,,,,,,,,,,,999.0,1,9,1,2019_Dec_03_1004,Test,3.2.4,59.8404477731557
83,Pictures/IA25_G5.bmp,Pictures/IA25_G5.bmp,25,"

Let's stay with the certain option.""""",0,safe,,,,,3.0,0.0,3.0,0.0,0.0,9.0,9.0,0.0,,,,,,,,,,,,,,,,,,,,,,,,,,,,,,,1686.3702794839999,None,1688.3922767390002,1689.9129513589999,1689.896240293,None,1691.467074904,None,0.0,1693.422207424,None,1693.422207424,None,1693.422207424,None,None,None,None,None,1694.57527288,None,1694.57527288,None,0,0.2505317249997461,1694.57527288,None,1694.8593186370001,1696.5638082409998,None,None,0.9396186639996812,,,,,,,,,,,,,999.0,1,9,1,2019_Dec_03_1004,Test,3.2.4,59.8404477731557
84,Pictures/IA50_L40.bmp,Pictures/IA50_L40.bmp,50,"

That gamble doesn't sound too good, play it safe.""""",0,safe,,,,,3.0,0.0,3.0,0.0,0.0,10.0,10.0,15.0,,,,,,,,,,,,,,,,,,,,,,,,,,,,,,,1696.5805196879999,None,1698.602525944,1700.1064793829999,1700.089770846,None,1701.660576949,None,2.0,1703.632441987,None,1703.632441987,None,1703.632441987,None,None,None,None,None,1704.3844246649999,None,1704.3844246649999,None,0,0.2653943140003321,1704.3844246649999,None,1704.685212911,1706.3897033360001,None,None,0.5693894850001016,,,,,,,,,,,,,999.0,1,9,1,2019_Dec_03_1004,Test,3.2.4,59.8404477731557
85,Pictures/IA75_L15.bmp,Pictures/IA75_L15.bmp,75,"

Trust me, gamble!""""",1,risk,,,,,3.0,0.0,3.0,0.0,0.0,11.0,11.0,10.0,,,,,,,,,,,,,,,,,,,,,,,,,,,,,,,1706.4064165829998,None,1708.445124871,1709.9657951129998,1709.949094462,None,1711.486471639,None,2.0,1713.458337849,None,1713.458337849,None,1713.458337849,None,None,None,None,None,1713.993077937,None,1713.993077937,None,1,0.1847460819999469,1713.993077937,None,None,None,1714.227029201,1715.998359735,0.3834816180001326,,,,,,,,,,,,,999.0,1,9,1,2019_Dec_03_1004,Test,3.2.4,59.8404477731557
86,Pictures/IA80_40_L95p.bmp,Pictures/IA80_40_L95p.bmp,80,"

Let's stay with the certain option.""""",0,safe,,,,,3.0,0.0,3.0,0.0,0.0,12.0,12.0,16.0,,,,,,,,,,,,,,,,,,,,,,,,,,,,,,,1716.015078604,None,1718.0537839380002,1719.5744514280002,1719.5577477329998,None,1721.0951314739998,None,0.0,1723.0669951139998,None,1723.066995114,None,1723.066995114,None,None,None,None,None,1723.752133274,None,1723.752133274,None,1,0.1936800960002074,1723.752133274,None,None,None,1723.9860787720002,1725.7407026839999,0.5028355829999782,,,,,,,,,,,,,999.0,1,9,1,2019_Dec_03_1004,Test,3.2.4,59.8404477731557
87,Pictures/IA25_L15.bmp,Pictures/IA25_L15.bmp,25,"

There's not much on the line here, gamble!""""",1,risk,,,,,3.0,0.0,3.0,0.0,0.0,13.0,13.0,19.0,,,,,,,,,,,,,,,,,,,,,,,,,,,,,,,1725.7574135900002,None,1727.7794095820002,1729.300083115,1729.2833745280002,None,1730.7873375410002,None,2.0,1732.8093341860001,None,1732.8093341860001,None,1732.8093341860001,None,None,None,None,None,1733.5780266499999,None,1733.5780266499999,None,0,0.2637856860001193,1733.5780266499999,None,1733.878818416,1735.583307218,None,None,0.5765033050001875,,,,,,,,,,,,,999.0,1,9,1,2019_Dec_03_1004,Test,3.2.4,59.8404477731557
88,Pictures/IA75_L45.bmp,Pictures/IA75_L45.bmp,75,"

Don't gamble for this one, play it safe.""""",0,safe,,,,,3.0,0.0,3.0,0.0,0.0,14.0,14.0,7.0,,,,,,,,,,,,,,,,,,,,,,,,,,,,,,,1735.6000192479999,None,1737.622015241,1739.1427016070002,1739.12598185,None,1740.6800762639998,None,2.0,1742.651941238,None,1742.651941238,None,1742.651941238,None,None,None,None,None,1743.537607164,None,1743.537607164,None,0,0.2562146769996616,1743.537607164,None,1743.838398216,1745.5428896300002,None,None,0.6938848129998405,,,,,,,,,,,,,999.0,1,9,1,2019_Dec_03_1004,Test,3.2.4,59.8404477731557
89,Pictures/IA25_G20.bmp,Pictures/IA25_G20.bmp,25,"

I wouldn't gamble for this one. """"",0,safe,,,,,3.0,0.0,3.0,0.0,0.0,15.0,15.0,6.0,,,,,,,,,,,,,,,,,,,,,,,,,,,,,,,1745.55959886,None,1747.581598043,1749.1022718579998,1749.0855598710004,None,1750.639656081,None,0.0,1752.611525658,None,1752.611525658,None,1752.611525658,None,None,None,None,None,1753.697717462,None,1753.697717462,None,0,1.0960959209996872,1753.6977174620001,None,1754.834042187,None,None,None,0.9342969160002212,,,,,,,,,,,,,999.0,1,9,1,2019_Dec_03_1004,Test,3.2.4,59.8404477731557
90,Pictures/IA100_G20.bmp,Pictures/IA100_G20.bmp,100,"

Go ahead and gamble!""""",1,risk,,,,,3.0,0.0,3.0,0.0,0.0,16.0,16.0,17.0,,,,,,,,,,,,,,,,,,,,,,,,,,,,,,,1755.719709066,None,1757.7417101160001,1759.262382911,1759.245674265,None,1760.7997669560002,None,0.0,1762.771637346,None,1762.771637346,None,1762.771637346,None,None,None,None,None,1764.175342285,None,1764.175342285,None,0,0.4824661840002591,1764.175342285,None,1764.6933594999998,1766.1639079600002,None,None,1.2461999649999598,,,,,,,,,,,,,999.0,1,9,1,2019_Dec_03_1004,Test,3.2.4,59.8404477731557
91,Pictures/IA100_G40.bmp,Pictures/IA100_G40.bmp,100,"

Try your luck and gamble!""""",1,risk,,,,,3.0,0.0,3.0,0.0,0.0,17.0,17.0,14.0,,,,,,,,,,,,,,,,,,,,,,,,,,,,,,,1766.1806112410002,None,1768.202610827,1769.7232822869998,1769.706575989,None,1771.2773781080002,None,0.0,1773.232532096,None,1773.232532096,None,1773.232532096,None,None,None,None,None,1774.1516246079998,None,1774.1516246079998,None,0,0.49020087600001716,1774.1516246079998,None,1774.6863591869999,1776.156912449,None,None,0.7612923910000973,,,,,,,,,,,,,999.0,1,9,1,2019_Dec_03_1004,Test,3.2.4,59.8404477731557
92,Pictures/IA25_L20.bmp,Pictures/IA25_L20.bmp,25,"

Don't be tempted to gamble.""""",0,safe,,,,,3.0,0.0,3.0,0.0,0.0,18.0,18.0,4.0,,,,,,,,,,,,,,,,,,,,,,,,,,,,,,,1776.1736134770001,None,1778.195610595,1779.7162847270001,1779.6995746589996,None,1781.2035374519999,None,0.0,1783.225533593,None,1783.2255335930001,None,1783.2255335930001,None,None,None,None,None,1783.8939627729999,None,1783.8939627729999,None,0,0.16385177099982684,1783.8939627729999,None,1784.094485931,1785.89924168,None,None,0.4882982149997588,,,,,,,,,,,,,999.0,1,9,1,2019_Dec_03_1004,Test,3.2.4,59.8404477731557
93,Pictures/IA75_G60.bmp,Pictures/IA75_G60.bmp,75,"

Make it exciting, take a chance!""""",1,risk,,,,,3.0,0.0,3.0,0.0,0.0,19.0,19.0,2.0,,,,,,,,,,,,,,,,,,,,,,,,,,,,,,,1785.915951234,None,1787.937950636,1789.4586240780002,1789.441916205,None,1790.996013526,None,1.0,1792.9678749910001,None,1792.9678749910001,None,1792.9678749910001,None,1793.402353283,None,1793.402353283,1794.404990846,1795.5246128269998,None,1795.5246128269998,None,1,0.3652018570001019,1795.5246128269998,None,None,None,1795.9256667379998,1797.5298922169998,0.31394869200039466,,,,,,,,,,,,,999.0,1,9,1,2019_Dec_03_1004,Test,3.2.4,59.8404477731557
95,Pictures/IA50_G40.bmp,Pictures/IA50_G40.bmp,50,"

It would probably be best to play it safe.""""",0,safe,,,,,4.0,0.0,4.0,0.0,0.0,0.0,0.0,11.0,,,,,,,,,,,,,1801.974942685,None,1801.974942685,None,1801.974942685,None,0,1.3868805739998606,1801.974942685,None,1801.974942685,None,1801.974942685,None,return,2.1306580580003356,1801.974942685,None,1804.164046734,None,1806.1693341419998,1807.69000357,1807.6732960739998,None,1809.1772557430002,None,0.0,1811.1825476729998,None,1811.1825476729998,None,1811.1825476729998,None,None,None,None,None,1812.5695328620002,None,1812.5695328620002,None,1,0.20829064999998081,1812.5695328620002,None,None,None,1812.8201514119999,1814.558164801,1.1872842190000483,,,,,,,,,,,,,999.0,1,9,1,2019_Dec_03_1004,Test,3.2.4,59.8404477731557
96,Pictures/IA25_L5.bmp,Pictures/IA25_L5.bmp,25,"

It would be smarter to choose the safe option.""""",0,safe,,,,,4.0,0.0,4.0,0.0,0.0,1.0,1.0,14.0,,,,,,,,,,,,,,,,,,,,,,,,,,,,,,,1814.574814626,None,1816.5968075930002,1818.117485654,1818.1007735570001,None,1819.638157919,None,0.0,1821.6267519829998,None,1821.626751983,None,1821.626751983,None,None,None,None,None,1822.111339451,None,1822.111339451,None,1,0.16251929000009113,1822.111339451,None,None,None,1822.3119383730002,1824.103774855,0.28708365700003924,,,,,,,,,,,,,999.0,1,9,1,2019_Dec_03_1004,Test,3.2.4,59.8404477731557
97,Pictures/IA40_20_G95p.bmp,Pictures/IA40_20_G95p.bmp,40,"

Hold back, stay with the safe choice.""""",0,safe,,,,,4.0,0.0,4.0,0.0,0.0,2.0,2.0,12.0,,,,,,,,,,,,,,,,,,,,,,,,,,,,,,,1824.1333800169998,None,1826.172066711,1827.676077966,1827.6425613180002,None,1829.2134218610001,None,2.0,1831.1685465029998,None,1831.1685465029998,None,1831.1685465029998,None,None,None,None,None,1831.820273124,None,1831.820273124,None,0,0.14154119200020432,1831.820273124,None,1832.0040772619998,1833.8088320059999,None,None,0.4332857290000902,,,,,,,,,,,,,999.0,1,9,1,2019_Dec_03_1004,Test,3.2.4,59.8404477731557
98,Pictures/IA80_40_L95p.bmp,Pictures/IA80_40_L95p.bmp,80,"

Let's stay with the certain option.""""",0,safe,,,,,4.0,0.0,4.0,0.0,0.0,3.0,3.0,7.0,,,,,,,,,,,,,,,,,,,,,,,,,,,,,,,1833.8255434569999,None,1835.8642527569998,1837.368213758,1837.351505829,None,1838.888889355,None,1.0,1840.8774646020001,None,1840.877464602,None,1840.877464602,None,1841.295232403,None,1841.295232403,1842.2978809590002,1843.4007820969998,None,1843.4007820969998,None,1,0.31303049099960845,1843.400782097,None,None,None,1843.7517082020001,1845.3893512460002,0.2763661669996509,,,,,,,,,,,,,999.0,1,9,1,2019_Dec_03_1004,Test,3.2.4,59.8404477731557
99,Pictures/IA50_L10.bmp,Pictures/IA50_L10.bmp,50,"

Play it safe, don’t gamble!""""",0,safe,,,,,4.0,0.0,4.0,0.0,0.0,4.0,4.0,13.0,,,,,,,,,,,,,,,,,,,,,,,,,,,,,,,1845.406062273,None,1847.428060812,1848.9320201570001,1848.9153132539998,None,1850.469413183,None,1.0,1852.457983295,None,1852.457983295,None,1852.457983295,None,1852.959303896,None,1852.959303896,1853.961941459,1855.0982746779998,None,1855.0982746779998,None,1,0.367539756000042,1855.0982746779998,None,None,None,1855.499328106,1857.1035541200001,0.39185620799980825,,,,,,,,,,,,,999.0,1,9,1,2019_Dec_03_1004,Test,3.2.4,59.8404477731557
100,Pictures/IA25_L15.bmp,Pictures/IA25_L15.bmp,25,"

There's not much on the line here, gamble!""""",1,risk,,,,,4.0,0.0,4.0,0.0,0.0,5.0,5.0,18.0,,,,,,,,,,,,,,,,,,,,,,,,,,,,,,,1857.1202650490002,None,1859.142273227,1860.662934448,1860.646226831,None,1862.1501966029998,None,2.0,1864.1721864550002,None,1864.1721864550002,None,1864.1721864550002,None,None,None,None,None,1865.1079861720002,None,1865.1079861720002,None,0,0.2298382339999989,1865.1079861720002,None,1865.375353144,1867.113265656,None,None,0.7256419820000701,,,,,,,,,,,,,999.0,1,9,1,2019_Dec_03_1004,Test,3.2.4,59.8404477731557
101,Pictures/IA100_G20.bmp,Pictures/IA100_G20.bmp,100,"

Go ahead and gamble!""""",1,risk,,,,,4.0,0.0,4.0,0.0,0.0,6.0,6.0,1.0,,,,,,,,,,,,,,,,,,,,,,,,,,,,,,,1867.129991765,None,1869.151988855,1870.672646374,1870.655938736,None,1872.1766161570001,None,0.0,1874.1819043120001,None,1874.1819043120001,None,1874.1819043120001,None,None,None,None,None,1875.268097893,None,1875.268097893,None,0,0.24570554299998548,1875.2680978929998,None,1875.5521732680002,1877.2566634880002,None,None,0.9239321899999596,,,,,,,,,,,,,999.0,1,9,1,2019_Dec_03_1004,Test,3.2.4,59.8404477731557
102,Pictures/IA40_20_L95p.bmp,Pictures/IA40_20_L95p.bmp,40,"

Trust me, gamble!""""",1,risk,,,,,4.0,0.0,4.0,0.0,0.0,7.0,7.0,3.0,,,,,,,,,,,,,,,,,,,,,,,,,,,,,,,1877.2733743830001,None,1879.2953718970002,1880.8160423860002,1880.7993351839998,None,1882.370141473,None,2.0,1884.325296361,None,1884.325296361,None,1884.325296361,None,None,None,None,None,1885.277804695,None,1885.277804695,None,1,0.11601946100017813,1885.277804695,None,None,None,1885.428197772,1887.26637672,0.7965294760001598,,,,,,,,,,,,,999.0,1,9,1,2019_Dec_03_1004,Test,3.2.4,59.8404477731557
103,Pictures/IA20_10_G95p.bmp,Pictures/IA20_10_G95p.bmp,20,"

Take a leap, I think you should gamble.""""",1,risk,,,,,4.0,0.0,4.0,0.0,0.0,8.0,8.0,17.0,,,,,,,,,,,,,,,,,,,,,,,,,,,,,,,1887.2830862419999,None,1889.3217946129998,1890.8424684979998,1890.8257587619999,None,1892.363147885,None,2.0,1894.335006164,None,1894.335006164,None,1894.335006164,None,None,None,None,None,1895.6050198639998,None,1895.6050198639998,None,0,0.19680599899993467,1895.6050198639998,None,1895.8389705779998,1897.610299838,None,None,1.090828801000043,,,,,,,,,,,,,999.0,1,9,1,2019_Dec_03_1004,Test,3.2.4,59.8404477731557
104,Pictures/IA110_55_G95p.bmp,Pictures/IA110_55_G95p.bmp,110,"

Take a chance!""""",1,risk,,,,,4.0,0.0,4.0,0.0,0.0,9.0,9.0,8.0,,,,,,,,,,,,,,,,,,,,,,,,,,,,,,,1897.6270120359998,None,1899.6657180599998,1901.16968031,1901.152981534,None,1902.7237803679998,None,0.0,1904.678992755,None,1904.678992755,None,1904.678992755,None,None,None,None,None,1905.798547692,None,1905.798547692,None,0,0.2672634329996981,1905.798547692,None,1906.09934288,1907.8038302080001,None,None,0.9788248729996668,,,,,,,,,,,,,999.0,1,9,1,2019_Dec_03_1004,Test,3.2.4,59.8404477731557
105,Pictures/IA25_G15.bmp,Pictures/IA25_G15.bmp,25,"

I think you should take a gamble.""""",1,risk,,,,,4.0,0.0,4.0,0.0,0.0,10.0,10.0,15.0,,,,,,,,,,,,,,,,,,,,,,,,,,,,,,,1907.820540207,None,1909.842542906,1911.363208141,1911.3465063,None,1912.9005983519999,None,0.0,1914.872461225,None,1914.872461225,None,1914.872461225,None,None,None,None,None,1915.6077322630001,None,1915.6077322630001,None,0,0.22608644000001732,1915.607732263,None,1915.875104719,1917.613011744,None,None,0.5613626360000126,,,,,,,,,,,,,999.0,1,9,1,2019_Dec_03_1004,Test,3.2.4,59.8404477731557
106,Pictures/IA75_G30.bmp,Pictures/IA75_G30.bmp,75,"

Be bold, gamble!""""",1,risk,,,,,4.0,0.0,4.0,0.0,0.0,11.0,11.0,5.0,,,,,,,,,,,,,,,,,,,,,,,,,,,,,,,1917.6297229149998,None,1919.651721498,1921.172393132,1921.155694164,None,1922.7097660769998,None,2.0,1924.6816443589998,None,1924.6816443589998,None,1924.6816443589998,None,None,None,None,None,1925.416919855,None,1925.416919855,None,0,0.1848946180002713,1925.416919855,None,1925.6508624219998,1927.422194252,None,None,0.5841910899998766,,,,,,,,,,,,,999.0,1,9,1,2019_Dec_03_1004,Test,3.2.4,59.8404477731557
107,Pictures/IA80_40_G95p.bmp,Pictures/IA80_40_G95p.bmp,80,"

Think of the payoff, gamble!""""",1,risk,,,,,4.0,0.0,4.0,0.0,0.0,12.0,12.0,0.0,,,,,,,,,,,,,,,,,,,,,,,,,,,,,,,1927.4389057289998,None,1929.4609010279999,1930.981574794,1930.9648680110001,None,1932.518960911,None,2.0,1934.4908319919998,None,1934.4908319919998,None,1934.4908319919998,None,None,None,None,None,1935.0422782909998,None,1935.0422782909998,None,0,0.12754228399990095,1935.0422782909998,None,1935.2093840539999,1937.047559543,None,None,0.3989932370000133,,,,,,,,,,,,,999.0,1,9,1,2019_Dec_03_1004,Test,3.2.4,59.8404477731557
108,Pictures/IA100_L80.bmp,Pictures/IA100_L80.bmp,100,"

Go all in!""""",1,risk,,,,,4.0,0.0,4.0,0.0,0.0,13.0,13.0,19.0,,,,,,,,,,,,,,,,,,,,,,,,,,,,,,,1937.0642701590002,None,1939.0862672219998,1940.6069401910001,1940.590233616,None,1942.161000897,None,1.0,1944.1161917260001,None,1944.116191726,None,1944.116191726,None,1944.5339580450002,None,1944.5339580450002,1945.53659563,1946.639508773,None,1946.639508773,None,0,0.29830906400002277,1946.639508773,None,1946.973716929,1948.6447861150002,None,None,0.3416355479998856,,,,,,,,,,,,,999.0,1,9,1,2019_Dec_03_1004,Test,3.2.4,59.8404477731557
109,Pictures/IA50_L40.bmp,Pictures/IA50_L40.bmp,50,"

That gamble doesn't sound too good, play it safe.""""",0,safe,,,,,4.0,0.0,4.0,0.0,0.0,14.0,14.0,6.0,,,,,,,,,,,,,,,,,,,,,,,,,,,,,,,1948.6614988590002,None,1950.6834985720002,1952.2041673120002,1952.187460293,None,1953.6914378899999,None,2.0,1955.713419382,None,1955.713419382,None,1955.713419382,None,None,None,None,None,1956.3985586370002,None,1956.3985586370002,None,0,0.07525967700030378,1956.3985586370002,None,1956.5155300119998,1958.387125436,None,None,0.4804067039999609,,,,,,,,,,,,,999.0,1,9,1,2019_Dec_03_1004,Test,3.2.4,59.8404477731557
110,Pictures/IA75_L45.bmp,Pictures/IA75_L45.bmp,75,"

Don't gamble for this one, play it safe.""""",0,safe,,,,,4.0,0.0,4.0,0.0,0.0,15.0,15.0,16.0,,,,,,,,,,,,,,,,,,,,,,,,,,,,,,,1958.403838897,None,1960.4258347020002,1961.929796202,1961.9130881530002,None,1963.450442687,None,2.0,1965.4557608040002,None,1965.4557608040002,None,1965.4557608040002,None,None,None,None,None,1966.37484587,None,1966.37484587,None,0,0.2669655859999693,1966.37484587,None,1966.6756376740002,1968.380126717,None,None,0.7380714969999644,,,,,,,,,,,,,999.0,1,9,1,2019_Dec_03_1004,Test,3.2.4,59.8404477731557
111,Pictures/IA25_L10.bmp,Pictures/IA25_L10.bmp,25,"

Dont be afraid to take the risk!""""",1,risk,,,,,4.0,0.0,4.0,0.0,0.0,16.0,16.0,2.0,,,,,,,,,,,,,,,,,,,,,,,,,,,,,,,1968.3968398169998,None,1970.418834577,1971.939508676,1971.922799708,None,1973.4768933789999,None,0.0,1975.448758064,None,1975.448758064,None,1975.448758064,None,None,None,None,None,1976.9193017270002,None,1976.9193017270002,None,1,0.5305117349998909,1976.9193017270002,None,None,None,1977.4874638899998,1978.9245798170002,1.2970695449998857,,,,,,,,,,,,,999.0,1,9,1,2019_Dec_03_1004,Test,3.2.4,59.8404477731557
112,Pictures/IA75_G45.bmp,Pictures/IA75_G45.bmp,75,"

Don't gamble for this one.""""",0,safe,,,,,4.0,0.0,4.0,0.0,0.0,17.0,17.0,4.0,,,,,,,,,,,,,,,,,,,,,,,,,,,,,,,1978.9412925469999,None,1980.963287199,1982.48396178,1982.467254079,None,1984.0380583849999,None,0.0,1985.993217536,None,1985.9932175360002,None,1985.9932175360002,None,None,None,None,None,1987.1128374050002,None,1987.1128374050002,None,0,0.28898025999978927,1987.112837405,None,1987.4470389710002,1989.1181138620002,None,None,0.96860101700031,,,,,,,,,,,,,999.0,1,9,1,2019_Dec_03_1004,Test,3.2.4,59.8404477731557
113,Pictures/IA100_L20.bmp,Pictures/IA100_L20.bmp,100,"

Try to win as much money as you can, gamble!""""",1,risk,,,,,4.0,0.0,4.0,0.0,0.0,18.0,18.0,10.0,,,,,,,,,,,,,,,,,,,,,,,,,,,,,,,1989.134820376,None,1991.1568185610001,1992.6774898689998,1992.660782266,None,1994.2148916929998,None,2.0,1996.186742181,None,1996.186742181,None,1996.186742181,None,None,None,None,None,1996.688063421,None,1996.688063421,None,1,0.0417613539998456,1996.688063421,None,None,None,1996.7716125079999,1998.676630706,0.31908696399978004,,,,,,,,,,,,,999.0,1,9,1,2019_Dec_03_1004,Test,3.2.4,59.8404477731557
114,Pictures/IA75_G15.bmp,Pictures/IA75_G15.bmp,75,"

Take a chance!""""",1,risk,,,,,4.0,0.0,4.0,0.0,0.0,19.0,19.0,9.0,,,,,,,,,,,,,,,,,,,,,,,,,,,,,,,1998.693342575,None,2000.715344217,2002.2359756629999,2002.219305301,None,2003.7734034500002,None,0.0,2005.745261823,None,2005.7452618230002,None,2005.7452618230002,None,None,None,None,None,2007.1823829769999,None,2007.1823829769999,None,0,0.19543177000014111,2007.182382977,None,2007.416338926,2009.1876645290001,None,None,1.272570395999992,,,,,,,,,,,,,999.0,1,9,1,2019_Dec_03_1004,Test,3.2.4,59.8404477731557
116,Pictures/IA50_G10.bmp,Pictures/IA50_G10.bmp,50,"

Go with the safe option here!""""",0,safe,,,,,5.0,0.0,5.0,0.0,0.0,0.0,0.0,11.0,,,,,,,,,,,,,2014.1674565389999,None,2014.167456539,None,2014.167456539,None,0,4.178367480999896,2014.1674565389999,None,2014.167456539,None,2014.167456539,None,return,4.882141885000237,2014.1674565389999,None,2019.09711799,None,2021.119112312,2022.6397796889999,2022.623071935,None,2024.177166023,None,0.0,2026.132319647,None,2026.132319647,None,2026.132319647,None,None,None,None,None,2027.5360192209998,None,2027.5360192209998,None,0,0.0897965820004174,2027.536019221,None,2027.6697024480002,2029.541302673,None,None,1.2295164530000875,,,,,,,,,,,,,999.0,1,9,1,2019_Dec_03_1004,Test,3.2.4,59.8404477731557
117,Pictures/IA50_G20.bmp,Pictures/IA50_G20.bmp,50,"

Let's venture and take a risk!""""",1,risk,,,,,5.0,0.0,5.0,0.0,0.0,1.0,1.0,3.0,,,,,,,,,,,,,,,,,,,,,,,,,,,,,,,2029.5580158639998,None,2031.580005948,2033.100679,2033.0839703660001,None,2034.6380689,None,0.0,2036.609944659,None,2036.609944659,None,2036.609944659,None,None,None,None,None,2037.244936877,None,2037.244936877,None,0,0.5728788559999884,2037.244936877,None,2037.8632336080002,2039.2335250919998,None,None,0.4638753580002231,,,,,,,,,,,,,999.0,1,9,1,2019_Dec_03_1004,Test,3.2.4,59.8404477731557
118,Pictures/IA25_L5.bmp,Pictures/IA25_L5.bmp,25,"

It would be smarter to choose the safe option.""""",0,safe,,,,,5.0,0.0,5.0,0.0,0.0,2.0,2.0,2.0,,,,,,,,,,,,,,,,,,,,,,,,,,,,,,,2039.2502237309998,None,2041.272213903,2042.792886048,2042.776182087,None,2044.313562052,None,0.0,2046.3021380139999,None,2046.302138014,None,2046.302138014,None,None,None,None,None,2047.354911529,None,2047.354911529,None,1,0.17490635400008614,2047.354911529,None,None,None,2047.5721457739999,2049.3434801189997,0.8596941480000169,,,,,,,,,,,,,999.0,1,9,1,2019_Dec_03_1004,Test,3.2.4,59.8404477731557
119,Pictures/IA50_G30.bmp,Pictures/IA50_G30.bmp,50,"

I think you should gamble.""""",1,risk,,,,,5.0,0.0,5.0,0.0,0.0,3.0,3.0,14.0,,,,,,,,,,,,,,,,,,,,,,,,,,,,,,,2049.3601926310002,None,2051.3821880570003,2052.90285942,2052.886153113,None,2054.440247341,None,0.0,2056.412116681,None,2056.412116681,None,2056.412116681,None,None,None,None,None,2057.364622067,None,2057.364622067,None,0,0.1171864220000316,2057.3646220670003,None,2057.5317278350003,2059.369901405,None,None,0.7897111199999927,,,,,,,,,,,,,999.0,1,9,1,2019_Dec_03_1004,Test,3.2.4,59.8404477731557
120,Pictures/IA100_G40.bmp,Pictures/IA100_G40.bmp,100,"

Try your luck and gamble!""""",1,risk,,,,,5.0,0.0,5.0,0.0,0.0,4.0,4.0,0.0,,,,,,,,,,,,,,,,,,,,,,,,,,,,,,,2059.3866136180004,None,2061.408613789,2062.929282917,2062.912575669,None,2064.4165368430004,None,0.0,2066.438532702,None,2066.438532702,None,2066.438532702,None,None,None,None,None,2067.123672296,None,2067.123672296,None,0,0.11814761100004034,2067.123672296,None,2067.2907774879995,2069.128951926,None,None,0.523294690000057,,,,,,,,,,,,,999.0,1,9,1,2019_Dec_03_1004,Test,3.2.4,59.8404477731557
121,Pictures/IA75_L15.bmp,Pictures/IA75_L15.bmp,75,"

Trust me, gamble!""""",1,risk,,,,,5.0,0.0,5.0,0.0,0.0,5.0,5.0,4.0,,,,,,,,,,,,,,,,,,,,,,,,,,,,,,,2069.145671313,None,2071.167663057,2072.6883319129997,2072.671623067,None,2074.192298094,None,2.0,2076.1975817049997,None,2076.1975817049997,None,2076.1975817049997,None,None,None,None,None,2076.78245666,None,2076.78245666,None,1,0.01936485799978982,2076.78245666,None,None,None,2076.8492974439996,2078.7877373580004,0.4042459600000257,,,,,,,,,,,,,999.0,1,9,1,2019_Dec_03_1004,Test,3.2.4,59.8404477731557
122,Pictures/IA25_L10.bmp,Pictures/IA25_L10.bmp,25,"

Dont be afraid to take the risk!""""",1,risk,,,,,5.0,0.0,5.0,0.0,0.0,6.0,6.0,16.0,,,,,,,,,,,,,,,,,,,,,,,,,,,,,,,2078.80444834,None,2080.826460047,2082.347116962,2082.330415317,None,2083.8343757780003,None,0.0,2085.856368577,None,2085.8563685769996,None,2085.8563685769996,None,None,None,None,None,2086.608349845,None,2086.608349845,None,0,0.0654662299998563,2086.608349845,None,2086.7086114619997,2088.613628246,None,None,0.5934616979998282,,,,,,,,,,,,,999.0,1,9,1,2019_Dec_03_1004,Test,3.2.4,59.8404477731557
123,Pictures/IA75_G30.bmp,Pictures/IA75_G30.bmp,75,"

Be bold, gamble!""""",1,risk,,,,,5.0,0.0,5.0,0.0,0.0,7.0,7.0,17.0,,,,,,,,,,,,,,,,,,,,,,,,,,,,,,,2088.6303459379997,None,2090.6523382960004,2092.1730153890007,2092.1563133440004,None,2093.6602679039997,None,2.0,2095.6822666079997,None,2095.6822666079997,None,2095.6822666079997,None,None,None,None,None,2096.2002940439997,None,2096.2002940439997,None,0,0.04154466599993612,2096.2002940439997,None,2096.283842129,2098.188862774,None,None,0.3515647730000637,,,,,,,,,,,,,999.0,1,9,1,2019_Dec_03_1004,Test,3.2.4,59.8404477731557
124,Pictures/IA100_L20.bmp,Pictures/IA100_L20.bmp,100,"

Try to win as much money as you can, gamble!""""",1,risk,,,,,5.0,0.0,5.0,0.0,0.0,8.0,8.0,1.0,,,,,,,,,,,,,,,,,,,,,,,,,,,,,,,2098.205573606,None,2100.2275690879997,2101.748242222,2101.731534517,None,2103.2522118320003,None,2.0,2105.2574960310003,None,2105.2574960310003,None,2105.2574960310003,None,None,None,None,None,2106.0763193250004,None,2106.0763193250004,None,0,0.08550223299971549,2106.0763193250004,None,2106.2100018379997,2108.081600386,None,None,0.6243289819999518,,,,,,,,,,,,,999.0,1,9,1,2019_Dec_03_1004,Test,3.2.4,59.8404477731557
125,Pictures/IA100_G20.bmp,Pictures/IA100_G20.bmp,100,"

Go ahead and gamble!""""",1,risk,,,,,5.0,0.0,5.0,0.0,0.0,9.0,9.0,6.0,,,,,,,,,,,,,,,,,,,,,,,,,,,,,,,2108.098308478,None,2110.120303766,2111.640977122,2111.624269846,None,2113.1616568649997,None,0.0,2115.150229640001,None,2115.1502296400004,None,2115.1502296400004,None,None,None,None,None,2116.1194495199998,None,2116.1194495199998,None,0,0.4983646300001965,2116.11944952,None,2116.6541871910003,2118.124729806,None,None,0.8115964870003154,,,,,,,,,,,,,999.0,1,9,1,2019_Dec_03_1004,Test,3.2.4,59.8404477731557
126,Pictures/IA50_L20.bmp,Pictures/IA50_L20.bmp,50,"

Certainty is boring, take a risk!""""",1,risk,,,,,5.0,0.0,5.0,0.0,0.0,10.0,10.0,5.0,,,,,,,,,,,,,,,,,,,,,,,,,,,,,,,2118.1414532299996,None,2120.1634360280004,2121.684109618,2121.6674027050003,None,2123.221496766,None,1.0,2125.193358748,None,2125.193358748,None,2125.193358748,None,2125.8450764930003,None,2125.8450764930003,2126.8477140779996,2127.950630259,None,2127.950630259,None,0,0.3791778239997257,2127.950630259,None,2128.368389671,2129.9391936889997,None,None,0.528471561999595,,,,,,,,,,,,,999.0,1,9,1,2019_Dec_03_1004,Test,3.2.4,59.8404477731557
127,Pictures/IA75_G15.bmp,Pictures/IA75_G15.bmp,75,"

Take a chance!""""",1,risk,,,,,5.0,0.0,5.0,0.0,0.0,11.0,11.0,10.0,,,,,,,,,,,,,,,,,,,,,,,,,,,,,,,2129.955905512,None,2131.977902609,2133.4985729910004,2133.481880188,None,2134.9858646909997,None,0.0,2137.007824967,None,2137.0078249669996,None,2137.0078249669996,None,None,None,None,None,2137.776538577,None,2137.776538577,None,0,0.29726775700009966,2137.7765385770003,None,2138.110692647,2139.78179413,None,None,0.5939991939999345,,,,,,,,,,,,,999.0,1,9,1,2019_Dec_03_1004,Test,3.2.4,59.8404477731557
128,Pictures/IA25_L15.bmp,Pictures/IA25_L15.bmp,25,"

There's not much on the line here, gamble!""""",1,risk,,,,,5.0,0.0,5.0,0.0,0.0,12.0,12.0,9.0,,,,,,,,,,,,,,,,,,,,,,,,,,,,,,,2139.79851101,None,2141.820506574001,2143.341177420001,2143.3244715829996,None,2144.828432776,None,2.0,2146.8504299120004,None,2146.8504299120004,None,2146.8504299120004,None,None,None,None,None,2148.036890053,None,2148.036890053,None,0,0.356928605000121,2148.036890053,None,2148.437942236,2150.042169175,None,None,1.007398409999951,,,,,,,,,,,,,999.0,1,9,1,2019_Dec_03_1004,Test,3.2.4,59.8404477731557
129,Pictures/IA110_55_G95p.bmp,Pictures/IA110_55_G95p.bmp,110,"

Take a chance!""""",1,risk,,,,,5.0,0.0,5.0,0.0,0.0,13.0,13.0,15.0,,,,,,,,,,,,,,,,,,,,,,,,,,,,,,,2150.058880804,None,2152.0808753359997,2153.6015488820003,2153.584840773,None,2155.0888052170003,None,0.0,2157.11080076,None,2157.1108007599996,None,2157.1108007599996,None,None,None,None,None,2158.130116681,None,2158.130116681,None,0,0.19170073100031004,2158.130116681,None,2158.364100338,2160.135437891,None,None,0.8590261549998104,,,,,,,,,,,,,999.0,1,9,1,2019_Dec_03_1004,Test,3.2.4,59.8404477731557
130,Pictures/IA80_40_L95p.bmp,Pictures/IA80_40_L95p.bmp,80,"

Let's stay with the certain option.""""",0,safe,,,,,5.0,0.0,5.0,0.0,0.0,14.0,14.0,12.0,,,,,,,,,,,,,,,,,,,,,,,,,,,,,,,2160.1521435100003,None,2162.1741403180004,2163.6948129680004,2163.678104863,None,2165.21548995,None,0.0,2167.204065326,None,2167.204065326,None,2167.204065326,None,None,None,None,None,2167.939338608,None,2167.939338608,None,1,0.06247909600006096,2167.939338608,None,None,None,2168.039594848,2169.9446122010004,0.5657525869996789,,,,,,,,,,,,,999.0,1,9,1,2019_Dec_03_1004,Test,3.2.4,59.8404477731557
131,Pictures/IA100_G80.bmp,Pictures/IA100_G80.bmp,100,"

Why not gamble?""""",1,risk,,,,,5.0,0.0,5.0,0.0,0.0,15.0,15.0,18.0,,,,,,,,,,,,,,,,,,,,,,,,,,,,,,,2169.9613240870003,None,2171.9833189190003,2173.503994504,2173.48729173,None,2175.041380283,None,0.0,2177.013245319,None,2177.013245319,None,2177.013245319,None,None,None,None,None,2177.447718055,None,2177.447718055,None,1,0.04210689799992906,2177.447718055,None,None,None,2177.531273085,2179.4362921620004,0.2765788500000781,,,,,,,,,,,,,999.0,1,9,1,2019_Dec_03_1004,Test,3.2.4,59.8404477731557
132,Pictures/IA75_G45.bmp,Pictures/IA75_G45.bmp,75,"

Don't gamble for this one.""""",0,safe,,,,,5.0,0.0,5.0,0.0,0.0,16.0,16.0,7.0,,,,,,,,,,,,,,,,,,,,,,,,,,,,,,,2179.453004297,None,2181.491712313,2182.9956723470004,2182.9789644720004,None,2184.4829272469997,None,0.0,2186.50492307,None,2186.5049230699997,None,2186.5049230699997,None,None,None,None,None,2187.156603216,None,2187.156603216,None,0,0.11720410499992795,2187.156603216,None,2187.3237460090004,2189.161932035,None,None,0.4969145069999286,,,,,,,,,,,,,999.0,1,9,1,2019_Dec_03_1004,Test,3.2.4,59.8404477731557
133,Pictures/IA50_L30.bmp,Pictures/IA50_L30.bmp,50,"

Take a leap, I think you should gamble.""""",1,risk,,,,,5.0,0.0,5.0,0.0,0.0,17.0,17.0,8.0,,,,,,,,,,,,,,,,,,,,,,,,,,,,,,,2189.178631701,None,2191.200627452,2192.721301206,2192.704591803,None,2194.2586899300004,None,2.0,2196.2305503019998,None,2196.2305503019998,None,2196.2305503019998,None,None,None,None,None,2196.7987179,None,2196.7987179,None,0,0.06709748000002946,2196.7987179,None,2196.9156896249997,2198.787285313,None,None,0.3632687439999245,,,,,,,,,,,,,999.0,1,9,1,2019_Dec_03_1004,Test,3.2.4,59.8404477731557
134,Pictures/IA100_L60.bmp,Pictures/IA100_L60.bmp,100,"

You'd have a lot to lose, don't gamble.""""",0,safe,,,,,5.0,0.0,5.0,0.0,0.0,18.0,18.0,19.0,,,,,,,,,,,,,,,,,,,,,,,,,,,,,,,2198.8039946790004,None,2200.8259911900004,2202.346665156,2202.329956886,None,2203.9341818290004,None,2.0,2205.8559145830004,None,2205.8559145830004,None,2205.8559145830004,None,None,None,None,None,2206.84184449,None,2206.84184449,None,0,0.23197218099994646,2206.84184449,None,2207.1092129030003,2208.847124776,None,None,0.7939094019998265,,,,,,,,,,,,,999.0,1,9,1,2019_Dec_03_1004,Test,3.2.4,59.8404477731557
135,Pictures/IA50_L40.bmp,Pictures/IA50_L40.bmp,50,"

That gamble doesn't sound too good, play it safe.""""",0,safe,,,,,5.0,0.0,5.0,0.0,0.0,19.0,19.0,13.0,,,,,,,,,,,,,,,,,,,,,,,,,,,,,,,2208.8638430720002,None,2210.885833065,2212.406508715,2212.389796542,None,2213.927181506,None,2.0,2215.9157569460003,None,2215.9157569460003,None,2215.9157569460003,None,None,None,None,None,2216.8181358009997,None,2216.8181358009997,None,0,0.07168412600003649,2216.8181358009997,None,2216.9351048179997,2218.806704427,None,None,0.7180614079998122,,,,,,,,,,,,,999.0,1,9,1,2019_Dec_03_1004,Test,3.2.4,59.8404477731557
137,Pictures/IA110_55_G95p.bmp,Pictures/IA110_55_G95p.bmp,110,"

Take a chance!""""",1,risk,,,,,6.0,0.0,6.0,0.0,0.0,0.0,0.0,10.0,,,,,,,,,,,,,2221.413575471,None,2221.4135754709996,None,2221.4135754709996,None,0,0.40425062000031176,2221.413575471,None,2221.4135754709996,None,2221.4135754709996,None,return,1.0441221669998413,2221.413575471,None,2222.516483122,None,2224.521766912,2226.0424377189997,2226.025729811,None,2227.546401662,None,0.0,2229.534976345001,None,2229.5349763450004,None,2229.5349763450004,None,None,None,None,None,2230.0195896249998,None,2230.0195896249998,None,0,0.6382310060002965,2230.019589625,None,2230.704722724,2232.0081565540004,None,None,0.3148482619999413,,,,,,,,,,,,,999.0,1,9,1,2019_Dec_03_1004,Test,3.2.4,59.8404477731557
138,Pictures/IA75_L45.bmp,Pictures/IA75_L45.bmp,75,"

Don't gamble for this one, play it safe.""""",0,safe,,,,,6.0,0.0,6.0,0.0,0.0,1.0,1.0,4.0,,,,,,,,,,,,,,,,,,,,,,,,,,,,,,,2232.0248683239997,None,2234.046863984,2235.567536709,2235.5508336370003,None,2237.088213424,None,2.0,2239.076787414,None,2239.076787414,None,2239.076787414,None,None,None,None,None,2239.594818836,None,2239.594818836,None,0,0.055001101000016206,2239.594818836,None,2239.69507825,2241.6000986589997,None,None,0.3490369819996886,,,,,,,,,,,,,999.0,1,9,1,2019_Dec_03_1004,Test,3.2.4,59.8404477731557
139,Pictures/IA75_G15.bmp,Pictures/IA75_G15.bmp,75,"

Take a chance!""""",1,risk,,,,,6.0,0.0,6.0,0.0,0.0,2.0,2.0,12.0,,,,,,,,,,,,,,,,,,,,,,,,,,,,,,,2241.616809282,None,2243.6388058909997,2245.159482431,2245.142784103,None,2246.6467329670004,None,0.0,2248.6687337719995,None,2248.6687337719995,None,2248.6687337719995,None,None,None,None,None,2249.320446922,None,2249.320446922,None,0,0.24137602800010427,2249.320446922,None,2249.604523883,2251.3090164679998,None,None,0.4851012200001605,,,,,,,,,,,,,999.0,1,9,1,2019_Dec_03_1004,Test,3.2.4,59.8404477731557
140,Pictures/IA75_G60.bmp,Pictures/IA75_G60.bmp,75,"

Make it exciting, take a chance!""""",1,risk,,,,,6.0,0.0,6.0,0.0,0.0,3.0,3.0,5.0,,,,,,,,,,,,,,,,,,,,,,,,,,,,,,,2251.325728949,None,2253.34772335,2254.868395902,2254.8516887140004,None,2256.3890708279996,None,2.0,2258.3776469000004,None,2258.3776469000004,None,2258.3776469000004,None,None,None,None,None,2259.146368756,None,2259.146368756,None,0,0.21543962399982772,2259.146368756,None,2259.396993618,2261.1349081159997,None,None,0.600175536000279,,,,,,,,,,,,,999.0,1,9,1,2019_Dec_03_1004,Test,3.2.4,59.8404477731557
141,Pictures/IA110_55_L95p.bmp,Pictures/IA110_55_L95p.bmp,110,"

Trust me, gamble!""""",1,risk,,,,,6.0,0.0,6.0,0.0,0.0,4.0,4.0,6.0,,,,,,,,,,,,,,,,,,,,,,,,,,,,,,,2261.151621526,None,2263.1736151160003,2264.694287159,2264.677576952,None,2266.23167741,None,2.0,2268.203538044,None,2268.203538044,None,2268.203538044,None,None,None,None,None,2268.7549948570004,None,2268.7549948570004,None,1,0.08682228599991504,2268.7549948570004,None,None,None,2268.88867397,2270.760270439,0.398281150999992,,,,,,,,,,,,,999.0,1,9,1,2019_Dec_03_1004,Test,3.2.4,59.8404477731557
142,Pictures/IA50_L20.bmp,Pictures/IA50_L20.bmp,50,"

Certainty is boring, take a risk!""""",1,risk,,,,,6.0,0.0,6.0,0.0,0.0,5.0,5.0,0.0,,,,,,,,,,,,,,,,,,,,,,,,,,,,,,,2270.776983631,None,2272.7989797610003,2274.319650687,2274.302943234,None,2275.80690546,None,2.0,2277.828905243,None,2277.828905243,None,2277.828905243,None,None,None,None,None,2278.781412734,None,2278.781412734,None,0,0.2684109329998137,2278.781412734,None,2279.098912976,2280.7699801910003,None,None,0.7889243469999201,,,,,,,,,,,,,999.0,1,9,1,2019_Dec_03_1004,Test,3.2.4,59.8404477731557
143,Pictures/IA100_G20.bmp,Pictures/IA100_G20.bmp,100,"

Go ahead and gamble!""""",1,risk,,,,,6.0,0.0,6.0,0.0,0.0,6.0,6.0,2.0,,,,,,,,,,,,,,,,,,,,,,,,,,,,,,,2280.786691882,None,2282.8086889730002,2284.3293602860003,2284.312652615,None,2285.8333261710004,None,0.0,2287.8386123030004,None,2287.8386123030004,None,2287.8386123030004,None,None,None,None,None,2288.4903327089996,None,2288.4903327089996,None,0,0.13548401400021248,2288.490332709,None,2288.674142623,2290.478896765,None,None,0.4912230340000861,,,,,,,,,,,,,999.0,1,9,1,2019_Dec_03_1004,Test,3.2.4,59.8404477731557
144,Pictures/IA25_L5.bmp,Pictures/IA25_L5.bmp,25,"

It would be smarter to choose the safe option.""""",0,safe,,,,,6.0,0.0,6.0,0.0,0.0,7.0,7.0,16.0,,,,,,,,,,,,,,,,,,,,,,,,,,,,,,,2290.495608493,None,2292.5176041739996,2294.0382764550004,2294.0215682360003,None,2295.542246348,None,0.0,2297.5475272520002,None,2297.547527252,None,2297.547527252,None,None,None,None,None,2298.266052633,None,2298.266052633,None,1,0.1357678039998973,2298.266052633,None,None,None,2298.4498980139997,2300.2546587489996,0.526300099999844,,,,,,,,,,,,,999.0,1,9,1,2019_Dec_03_1004,Test,3.2.4,59.8404477731557
145,Pictures/IA100_G60.bmp,Pictures/IA100_G60.bmp,100,"

Be cautious, don't gamble for this one.""""",0,safe,,,,,6.0,0.0,6.0,0.0,0.0,8.0,8.0,9.0,,,,,,,,,,,,,,,,,,,,,,,,,,,,,,,2300.271369887,None,2302.29336546,2303.814036494,2303.797333222,None,2305.351428221,None,2.0,2307.323288971,None,2307.323288971,None,2307.323288971,None,None,None,None,None,2308.0251357409998,None,2308.0251357409998,None,1,0.06467529400015337,2308.0251357409998,None,None,None,2308.125397564,2310.030416887,0.5345438760000434,,,,,,,,,,,,,999.0,1,9,1,2019_Dec_03_1004,Test,3.2.4,59.8404477731557
146,Pictures/IA50_G10.bmp,Pictures/IA50_G10.bmp,50,"

Go with the safe option here!""""",0,safe,,,,,6.0,0.0,6.0,0.0,0.0,9.0,9.0,17.0,,,,,,,,,,,,,,,,,,,,,,,,,,,,,,,2310.0471270649996,None,2312.0691240349997,2313.58980103,2313.5730903040007,None,2315.0770499299997,None,0.0,2317.099052504,None,2317.0990525039997,None,2317.0990525039997,None,None,None,None,None,2317.5836592200003,None,2317.5836592200003,None,0,0.5381581720002941,2317.5836592200008,None,2318.168529988,2319.5722313959996,None,None,0.2867778059999182,,,,,,,,,,,,,999.0,1,9,1,2019_Dec_03_1004,Test,3.2.4,59.8404477731557
147,Pictures/IA20_10_G95p.bmp,Pictures/IA20_10_G95p.bmp,20,"

Take a leap, I think you should gamble.""""",1,risk,,,,,6.0,0.0,6.0,0.0,0.0,10.0,10.0,13.0,,,,,,,,,,,,,,,,,,,,,,,,,,,,,,,2319.5889389880003,None,2321.6109383780004,2323.131607059,2323.114903197,None,2324.668993771,None,2.0,2326.6408572749997,None,2326.6408572749997,None,2326.6408572749997,None,None,None,None,None,2327.2758691360004,None,2327.2758691360004,None,0,0.17395159899979262,2327.2758691360004,None,2327.4930998190002,2329.264432756,None,None,0.4569730239995806,,,,,,,,,,,,,999.0,1,9,1,2019_Dec_03_1004,Test,3.2.4,59.8404477731557
148,Pictures/IA80_40_L95p.bmp,Pictures/IA80_40_L95p.bmp,80,"

Let's stay with the certain option.""""",0,safe,,,,,6.0,0.0,6.0,0.0,0.0,11.0,11.0,11.0,,,,,,,,,,,,,,,,,,,,,,,,,,,,,,,2329.2811500549997,None,2331.3031418150003,2332.82381325,2332.807109189,None,2334.311065332,None,0.0,2336.3330632690004,None,2336.3330632690004,None,2336.3330632690004,None,None,None,None,None,2336.9847805259997,None,2336.9847805259997,None,1,0.16904283800022313,2336.984780526,None,None,None,2337.202017306,2338.973348701,0.4687673240000549,,,,,,,,,,,,,999.0,1,9,1,2019_Dec_03_1004,Test,3.2.4,59.8404477731557
149,Pictures/IA75_L60.bmp,Pictures/IA75_L60.bmp,75,"

Why not take the gamble?""""",1,risk,,,,,6.0,0.0,6.0,0.0,0.0,12.0,12.0,15.0,,,,,,,,,,,,,,,,,,,,,,,,,,,,,,,2338.9900612680003,None,2341.012057189,2342.5327292599995,2342.516020559,None,2344.0868307560004,None,0.0,2346.041984244,None,2346.0419842439997,None,2346.0419842439997,None,None,None,None,None,2347.178306056,None,2347.178306056,None,0,0.3115121089999775,2347.178306056,None,2347.5292316349996,2349.1669056829996,None,None,0.9838382920002005,,,,,,,,,,,,,999.0,1,9,1,2019_Dec_03_1004,Test,3.2.4,59.8404477731557
150,Pictures/IA50_L30.bmp,Pictures/IA50_L30.bmp,50,"

Take a leap, I think you should gamble.""""",1,risk,,,,,6.0,0.0,6.0,0.0,0.0,13.0,13.0,7.0,,,,,,,,,,,,,,,,,,,,,,,,,,,,,,,2349.1835890169996,None,2351.205584364,2352.7095457080004,2352.6928424059997,None,2354.2302198979996,None,2.0,2356.2355083410002,None,2356.2355083410002,None,2356.2355083410002,None,None,None,None,None,2357.605759418,None,2357.605759418,None,0,0.23606054000038054,2357.605759418,None,2357.8898676950002,2359.5943561080003,None,None,1.1903214639996804,,,,,,,,,,,,,999.0,1,9,1,2019_Dec_03_1004,Test,3.2.4,59.8404477731557
151,Pictures/IA25_G10.bmp,Pictures/IA25_G10.bmp,25,"

What's life without a little risk?""""",1,risk,,,,,6.0,0.0,6.0,0.0,0.0,14.0,14.0,3.0,,,,,,,,,,,,,,,,,,,,,,,,,,,,,,,2359.6110715060004,None,2361.633061427,2363.153738894,2363.137037065,None,2364.6911192119996,None,0.0,2366.662984507,None,2366.662984507,None,2366.662984507,None,None,None,None,None,2367.414965791,None,2367.414965791,None,0,0.10685105699985797,2367.414965791,None,2367.5653569100004,2369.4035335050003,None,None,0.5788667350002471,,,,,,,,,,,,,999.0,1,9,1,2019_Dec_03_1004,Test,3.2.4,59.8404477731557
152,Pictures/IA40_20_G95p.bmp,Pictures/IA40_20_G95p.bmp,40,"

Hold back, stay with the safe choice.""""",0,safe,,,,,6.0,0.0,6.0,0.0,0.0,15.0,15.0,8.0,,,,,,,,,,,,,,,,,,,,,,,,,,,,,,,2369.420244485,None,2371.4422438310003,2372.962913939,2372.946206472,None,2374.4835931629996,None,2.0,2376.472161787,None,2376.472161787,None,2376.472161787,None,None,None,None,None,2377.073752294,None,2377.073752294,None,0,0.17606597399981186,2377.073752294,None,2377.29098513,2379.0623165180004,None,None,0.4256660719997853,,,,,,,,,,,,,999.0,1,9,1,2019_Dec_03_1004,Test,3.2.4,59.8404477731557
153,Pictures/IA100_L40.bmp,Pictures/IA100_L40.bmp,100,"

Think of the payoff, gamble!""""",1,risk,,,,,6.0,0.0,6.0,0.0,0.0,16.0,16.0,14.0,,,,,,,,,,,,,,,,,,,,,,,,,,,,,,,2379.0790311299997,None,2381.101025123,2382.621697138,2382.6049899339996,None,2384.1590928690002,None,1.0,2386.1309499259996,None,2386.1309499259996,None,2386.1309499259996,None,2386.999903848,None,2386.999903848,2388.002541856,2389.105454421,None,2389.105454421,None,1,0.6003583480000998,2389.105454421,None,None,None,2389.7404573659996,2391.1107338559996,0.7428745619999972,,,,,,,,,,,,,999.0,1,9,1,2019_Dec_03_1004,Test,3.2.4,59.8404477731557
154,Pictures/IA50_G40.bmp,Pictures/IA50_G40.bmp,50,"

It would probably be best to play it safe.""""",0,safe,,,,,6.0,0.0,6.0,0.0,0.0,17.0,17.0,18.0,,,,,,,,,,,,,,,,,,,,,,,,,,,,,,,2391.127444486,None,2393.149453145,2394.6701153100007,2394.653408466,None,2396.1907898199997,None,0.0,2398.1793636290004,None,2398.1793636290004,None,2398.1793636290004,None,None,None,None,None,2398.8645019100004,None,2398.8645019100004,None,1,0.11330824600008782,2398.8645019100004,None,None,None,2399.014895786,2400.8530717659996,0.4944714060002298,,,,,,,,,,,,,999.0,1,9,1,2019_Dec_03_1004,Test,3.2.4,59.8404477731557
155,Pictures/IA50_L10.bmp,Pictures/IA50_L10.bmp,50,"

Play it safe, don’t gamble!""""",0,safe,,,,,6.0,0.0,6.0,0.0,0.0,18.0,18.0,1.0,,,,,,,,,,,,,,,,,,,,,,,,,,,,,,,2400.869782326,None,2402.891784074,2404.4124496390004,2404.395747709,None,2405.933127397,None,2.0,2407.9217014819997,None,2407.9217014819997,None,2407.9217014819997,None,None,None,None,None,2408.4564450280004,None,2408.4564450280004,None,1,0.0733738019998782,2408.4564450280004,None,None,None,2408.5734158369996,2410.4450125949998,0.3681357919999755,,,,,,,,,,,,,999.0,1,9,1,2019_Dec_03_1004,Test,3.2.4,59.8404477731557
156,Pictures/IA100_L20.bmp,Pictures/IA100_L20.bmp,100,"

Try to win as much money as you can, gamble!""""",1,risk,,,,,6.0,0.0,6.0,0.0,0.0,19.0,19.0,19.0,,,,,,,,,,,,,,,,,,,,,,,,,,,,,,,2410.4617258119997,None,2412.4837212410002,2414.0043930290008,2413.9876838500004,None,2415.508361495,None,2.0,2417.51364708,None,2417.51364708,None,2417.51364708,None,None,None,None,None,2418.1152281530003,None,2418.1152281530003,None,1,0.07858558599991737,2418.1152281530003,None,None,None,2418.2322005349997,2420.1037983329998,0.40019196599996576,,,,,,,,,,,,,999.0,1,9,1,2019_Dec_03_1004,Test,3.2.4,59.8404477731557
158,Pictures/IA75_G30.bmp,Pictures/IA75_G30.bmp,75,"

Be bold, gamble!""""",1,risk,,,,,7.0,0.0,7.0,0.0,0.0,0.0,0.0,0.0,,,,,,,,,,,,,2425.033456405,None,2425.033456405,None,2425.033456405,None,1,5.52836060799973,2425.033456405,None,2425.033456405,None,2425.033456405,None,return,6.26413773100012,2425.033456405,None,2431.3500990840002,None,2433.3553864180003,2434.876059696,2434.8593488260003,None,2436.363311991,None,1.0,2438.3685965209997,None,2438.3685965209997,None,2438.3685965209997,None,2440.4574327359996,None,2440.4574327359996,2441.460070637,2442.579695177,None,2442.579695177,None,0,1.1261322650002512,2442.579695177,None,2443.7494412610004,None,None,None,1.985236661000272,,,,,,,,,,,,,999.0,1,9,1,2019_Dec_03_1004,Test,3.2.4,59.8404477731557
159,Pictures/IA50_L20.bmp,Pictures/IA50_L20.bmp,50,"

Certainty is boring, take a risk!""""",1,risk,,,,,7.0,0.0,7.0,0.0,0.0,1.0,1.0,4.0,,,,,,,,,,,,,,,,,,,,,,,,,,,,,,,2444.5849734780004,None,2446.6069704779998,2448.1276401220002,2448.1109350369998,None,2449.6483165070003,None,2.0,2451.6368912099997,None,2451.6368912099997,None,2451.6368912099997,None,None,None,None,None,2453.257856448,None,2453.257856448,None,0,0.1359368009998434,2453.257856448,None,2453.4416071349997,2455.24639982,None,None,1.4529331160001675,,,,,,,,,,,,,999.0,1,9,1,2019_Dec_03_1004,Test,3.2.4,59.8404477731557
160,Pictures/IA50_L10.bmp,Pictures/IA50_L10.bmp,50,"

Play it safe, don’t gamble!""""",0,safe,,,,,7.0,0.0,7.0,0.0,0.0,2.0,2.0,2.0,,,,,,,,,,,,,,,,,,,,,,,,,,,,,,,2455.263112509,None,2457.285105629,2458.805779059,2458.7890701429997,None,2460.293034499,None,2.0,2462.3150286219998,None,2462.3150286219998,None,2462.3150286219998,None,None,None,None,None,2463.3176704670004,None,2463.3176704670004,None,1,0.1241487679999409,2463.3176704670004,None,None,None,2463.484775459,2465.32295263,0.8308209769998031,,,,,,,,,,,,,999.0,1,9,1,2019_Dec_03_1004,Test,3.2.4,59.8404477731557
161,Pictures/IA25_L15.bmp,Pictures/IA25_L15.bmp,25,"

There's not much on the line here, gamble!""""",1,risk,,,,,7.0,0.0,7.0,0.0,0.0,3.0,3.0,10.0,,,,,,,,,,,,,,,,,,,,,,,,,,,,,,,2465.3396617030003,None,2467.361656741,2468.8656194329997,2468.8489107080004,None,2470.403006675,None,2.0,2472.391579819,None,2472.391579819,None,2472.391579819,None,None,None,None,None,2473.026594682,None,2473.026594682,None,0,0.10322070300026097,2473.026594682,None,2473.176980149,2475.015156798,None,None,0.426252882999961,,,,,,,,,,,,,999.0,1,9,1,2019_Dec_03_1004,Test,3.2.4,59.8404477731557
162,Pictures/IA75_G15.bmp,Pictures/IA75_G15.bmp,75,"

Take a chance!""""",1,risk,,,,,7.0,0.0,7.0,0.0,0.0,4.0,4.0,5.0,,,,,,,,,,,,,,,,,,,,,,,,,,,,,,,2475.031865844,None,2477.0538639140004,2478.574533534,2478.557827093,None,2480.095210622,None,0.0,2482.0837920940007,None,2482.0837920940003,None,2482.0837920940003,None,None,None,None,None,2482.80234776,None,2482.80234776,None,0,0.16747569199969803,2482.80234776,None,2483.019582735,2484.7909162739998,None,None,0.558038198000304,,,,,,,,,,,,,999.0,1,9,1,2019_Dec_03_1004,Test,3.2.4,59.8404477731557
163,Pictures/IA25_L10.bmp,Pictures/IA25_L10.bmp,25,"

Dont be afraid to take the risk!""""",1,risk,,,,,7.0,0.0,7.0,0.0,0.0,5.0,5.0,11.0,,,,,,,,,,,,,,,,,,,,,,,,,,,,,,,2484.8076268610002,None,2486.8296217589996,2488.3335831229997,2488.3168801029997,None,2489.8709705170004,None,0.0,2491.8595450420003,None,2491.859545042,None,2491.859545042,None,None,None,None,None,2492.929029872,None,2492.929029872,None,1,0.040788063000036345,2492.9290298720002,None,None,None,2493.012579882,2494.9175983550003,0.8942886990002992,,,,,,,,,,,,,999.0,1,9,1,2019_Dec_03_1004,Test,3.2.4,59.8404477731557
164,Pictures/IA40_20_L95p.bmp,Pictures/IA40_20_L95p.bmp,40,"

Trust me, gamble!""""",1,risk,,,,,7.0,0.0,7.0,0.0,0.0,6.0,6.0,3.0,,,,,,,,,,,,,,,,,,,,,,,,,,,,,,,2494.9343090419998,None,2496.9563073470003,2498.476977224,2498.460271297,None,2499.997660473,None,2.0,2501.986230052,None,2501.986230052,None,2501.986230052,None,None,None,None,None,2502.5543962640004,None,2502.5543962640004,None,1,0.2554231350000009,2502.5543962640004,None,None,None,2502.855184905,2504.5597313589997,0.4075950930000545,,,,,,,,,,,,,999.0,1,9,1,2019_Dec_03_1004,Test,3.2.4,59.8404477731557
165,Pictures/IA50_G10.bmp,Pictures/IA50_G10.bmp,50,"

Go with the safe option here!""""",0,safe,,,,,7.0,0.0,7.0,0.0,0.0,7.0,7.0,9.0,,,,,,,,,,,,,,,,,,,,,,,,,,,,,,,2504.576387522,None,2506.598380005,2508.1190514170003,2508.1023427120003,None,2509.6397296309997,None,0.0,2511.628302125,None,2511.628302125,None,2511.628302125,None,None,None,None,None,2512.1296236480002,None,2512.1296236480002,None,0,0.08019354099997145,2512.129623648,None,2512.2465984789997,2514.118190168,None,None,0.3335227889997441,,,,,,,,,,,,,999.0,1,9,1,2019_Dec_03_1004,Test,3.2.4,59.8404477731557
166,Pictures/IA20_10_L95p.bmp,Pictures/IA20_10_L95p.bmp,20,"

Don't be tempted to gamble.""""",0,safe,,,,,7.0,0.0,7.0,0.0,0.0,8.0,8.0,15.0,,,,,,,,,,,,,,,,,,,,,,,,,,,,,,,2514.134901951,None,2516.156900154,2517.677570702,2517.6608631480003,None,2519.214971161,None,0.0,2521.1868245620003,None,2521.186824562,None,2521.186824562,None,None,None,None,None,2521.8218278739996,None,2521.8218278739996,None,1,0.22798270700013745,2521.821827874,None,None,None,2521.9555120880004,2523.810399874,0.4469936700002109,,,,,,,,,,,,,999.0,1,9,1,2019_Dec_03_1004,Test,3.2.4,59.8404477731557
167,Pictures/IA100_G40.bmp,Pictures/IA100_G40.bmp,100,"

Try your luck and gamble!""""",1,risk,,,,,7.0,0.0,7.0,0.0,0.0,9.0,9.0,7.0,,,,,,,,,,,,,,,,,,,,,,,,,,,,,,,2523.827108491,None,2525.849105286,2527.369775647,2527.353069551,None,2528.873741382,None,0.0,2530.8790273490004,None,2530.8790273490004,None,2530.8790273490004,None,None,None,None,None,2531.7145693009998,None,2531.7145693009998,None,0,0.023250329999882524,2531.714569301,None,2531.781405427,2533.703130699,None,None,0.682796583000254,,,,,,,,,,,,,999.0,1,9,1,2019_Dec_03_1004,Test,3.2.4,59.8404477731557
168,Pictures/IA80_40_L95p.bmp,Pictures/IA80_40_L95p.bmp,80,"

Let's stay with the certain option.""""",0,safe,,,,,7.0,0.0,7.0,0.0,0.0,10.0,10.0,1.0,,,,,,,,,,,,,,,,,,,,,,,,,,,,,,,2533.719843862,None,2535.741839137,2537.245798844,2537.229093966,None,2538.78318399,None,0.0,2540.7717603580004,None,2540.7717603580004,None,2540.7717603580004,None,None,None,None,None,2541.2897938819997,None,2541.2897938819997,None,1,0.5280060100003539,2541.289793882,None,None,None,2541.857958406,2543.2783601809997,0.32606113099973305,,,,,,,,,,,,,999.0,1,9,1,2019_Dec_03_1004,Test,3.2.4,59.8404477731557
169,Pictures/IA50_L30.bmp,Pictures/IA50_L30.bmp,50,"

Take a leap, I think you should gamble.""""",1,risk,,,,,7.0,0.0,7.0,0.0,0.0,11.0,11.0,16.0,,,,,,,,,,,,,,,,,,,,,,,,,,,,,,,2543.2950728530004,None,2545.317067618,2546.837748127,2546.8210343250003,None,2548.341705131,None,2.0,2550.346991876,None,2550.346991876,None,2550.346991876,None,None,None,None,None,2551.5000303360002,None,2551.5000303360002,None,0,0.04578592300003948,2551.5000303360002,None,2551.583579417,2553.5053115170003,None,None,0.9668330219997188,,,,,,,,,,,,,999.0,1,9,1,2019_Dec_03_1004,Test,3.2.4,59.8404477731557
170,Pictures/IA100_G20.bmp,Pictures/IA100_G20.bmp,100,"

Go ahead and gamble!""""",1,risk,,,,,7.0,0.0,7.0,0.0,0.0,12.0,12.0,6.0,,,,,,,,,,,,,,,,,,,,,,,,,,,,,,,2553.5219824980004,None,2555.544016242,2557.0646892040004,2557.04798121,None,2558.568616959,None,1.0,2560.573937131,None,2560.573937131,None,2560.573937131,None,2561.3593409429996,None,2561.3593409429996,2562.361977523,2563.464890896,None,2563.464890896,None,0,0.49692285299988725,2563.4648908960003,None,2563.999631463,2565.453464399,None,None,0.6998918340000273,,,,,,,,,,,,,999.0,1,9,1,2019_Dec_03_1004,Test,3.2.4,59.8404477731557
171,Pictures/IA80_40_G95p.bmp,Pictures/IA80_40_G95p.bmp,80,"

Think of the payoff, gamble!""""",1,risk,,,,,7.0,0.0,7.0,0.0,0.0,13.0,13.0,13.0,,,,,,,,,,,,,,,,,,,,,,,,,,,,,,,2565.4701693959996,None,2567.492165686,2569.012842952,2568.996131414,None,2570.5335168929996,None,2.0,2572.5220882330004,None,2572.5220882330004,None,2572.5220882330004,None,None,None,None,None,2573.7252591320002,None,2573.7252591320002,None,0,0.2605651859998943,2573.7252591320002,None,2574.0260469530003,2575.730539123,None,None,1.0157463310001729,,,,,,,,,,,,,999.0,1,9,1,2019_Dec_03_1004,Test,3.2.4,59.8404477731557
172,Pictures/IA110_55_L95p.bmp,Pictures/IA110_55_L95p.bmp,110,"

Trust me, gamble!""""",1,risk,,,,,7.0,0.0,7.0,0.0,0.0,14.0,14.0,12.0,,,,,,,,,,,,,,,,,,,,,,,,,,,,,,,2575.747249074,None,2577.7692485079997,2579.2899213110004,2579.273214004,None,2580.793885389,None,2.0,2582.7991782199997,None,2582.7991782199997,None,2582.7991782199997,None,None,None,None,None,2583.5678648989997,None,2583.5678648989997,None,1,0.23394687300014996,2583.5678648989997,None,None,None,2583.835227695,2585.573139385,0.6026544709998234,,,,,,,,,,,,,999.0,1,9,1,2019_Dec_03_1004,Test,3.2.4,59.8404477731557
173,Pictures/IA25_G5.bmp,Pictures/IA25_G5.bmp,25,"

Let's stay with the certain option.""""",0,safe,,,,,7.0,0.0,7.0,0.0,0.0,15.0,15.0,8.0,,,,,,,,,,,,,,,,,,,,,,,,,,,,,,,2585.589849434,None,2587.611848069,2589.115808126,2589.099100169,None,2590.6364851549997,None,0.0,2592.641769493,None,2592.6417694929996,None,2592.6417694929996,None,None,None,None,None,2593.5107249639996,None,2593.5107249639996,None,0,0.0670977770000718,2593.510724964,None,2593.6276956559996,2595.5160082439997,None,None,0.6960691220001536,,,,,,,,,,,,,999.0,1,9,1,2019_Dec_03_1004,Test,3.2.4,59.8404477731557
174,Pictures/IA25_L5.bmp,Pictures/IA25_L5.bmp,25,"

It would be smarter to choose the safe option.""""",0,safe,,,,,7.0,0.0,7.0,0.0,0.0,16.0,16.0,18.0,,,,,,,,,,,,,,,,,,,,,,,,,,,,,,,2595.532716185,None,2597.5547113230004,2599.0753849700004,2599.058676862,None,2600.579349085,None,0.0,2602.584634187,None,2602.584634187,None,2602.584634187,None,None,None,None,None,2603.5371461160003,None,2603.5371461160003,None,1,0.08066962200018679,2603.5371461160003,None,None,None,2603.654117047,2605.525713616,0.769198759000119,,,,,,,,,,,,,999.0,1,9,1,2019_Dec_03_1004,Test,3.2.4,59.8404477731557
175,Pictures/IA75_G45.bmp,Pictures/IA75_G45.bmp,75,"

Don't gamble for this one.""""",0,safe,,,,,7.0,0.0,7.0,0.0,0.0,17.0,17.0,19.0,,,,,,,,,,,,,,,,,,,,,,,,,,,,,,,2605.54242394,None,2607.5644214120002,2609.085091542,2609.0683868739998,None,2610.6057759470004,None,0.0,2612.594344001,None,2612.5943440009996,None,2612.5943440009996,None,None,None,None,None,2613.530143911,None,2613.530143911,None,0,0.055679179999970074,2613.530143911,None,2613.6304034860004,2615.5354208380004,None,None,0.7434859079999114,,,,,,,,,,,,,999.0,1,9,1,2019_Dec_03_1004,Test,3.2.4,59.8404477731557
176,Pictures/IA25_L20.bmp,Pictures/IA25_L20.bmp,25,"

Don't be tempted to gamble.""""",0,safe,,,,,7.0,0.0,7.0,0.0,0.0,18.0,18.0,17.0,,,,,,,,,,,,,,,,,,,,,,,,,,,,,,,2615.5521324419997,None,2617.57413268,2619.094804243,2619.078094371,None,2620.5987701309996,None,0.0,2622.6040565880003,None,2622.6040565880003,None,2622.6040565880003,None,None,None,None,None,2623.757090151,None,2623.757090151,None,0,0.22073000099999263,2623.7570901510003,None,2624.0244571699996,2625.7623689499997,None,None,0.9737720549996992,,,,,,,,,,,,,999.0,1,9,1,2019_Dec_03_1004,Test,3.2.4,59.8404477731557
177,Pictures/IA50_L40.bmp,Pictures/IA50_L40.bmp,50,"

That gamble doesn't sound too good, play it safe.""""",0,safe,,,,,7.0,0.0,7.0,0.0,0.0,19.0,19.0,14.0,,,,,,,,,,,,,,,,,,,,,,,,,,,,,,,2625.7790800189996,None,2627.8010757929997,2629.321748435,2629.3050406700004,None,2630.8424276690002,None,2.0,2632.8309999370003,None,2632.8309999370003,None,2632.8309999370003,None,None,None,None,None,2633.532847421,None,2633.532847421,None,0,0.18096391600010972,2633.532847421,None,2633.750084108,2635.521417467,None,None,0.5228235730000961,,,,,,,,,,,,,999.0,1,9,1,2019_Dec_03_1004,Test,3.2.4,59.8404477731557
179,Pictures/IA50_L10.bmp,Pictures/IA50_L10.bmp,50,"

Play it safe, don’t gamble!""""",0,safe,,,,,8.0,0.0,8.0,0.0,0.0,0.0,0.0,7.0,,,,,,,,,,,,,2639.3481685260003,None,2639.3481685260003,None,2639.3481685260003,None,1,1.5656427310000254,2639.3481685260003,None,2639.3481685260003,None,2639.3481685260003,None,return,2.261432628999956,2639.3481685260003,None,2641.670955159,None,2643.676239902,2645.196916107,2645.180206014,None,2646.6674598910004,None,2.0,2648.6894526799997,None,2648.6894526799997,None,2648.6894526799997,None,None,None,None,None,2649.140655862,None,2649.140655862,None,1,0.09316726099996232,2649.140655862,None,None,None,2649.2743231329996,2651.145936031,0.29637177099994005,,,,,,,,,,,,,999.0,1,9,1,2019_Dec_03_1004,Test,3.2.4,59.8404477731557
180,Pictures/IA100_G20.bmp,Pictures/IA100_G20.bmp,100,"

Go ahead and gamble!""""",1,risk,,,,,8.0,0.0,8.0,0.0,0.0,1.0,1.0,14.0,,,,,,,,,,,,,,,,,,,,,,,,,,,,,,,2651.1626327759996,None,2653.184626896,2654.705300691,2654.6885920510003,None,2656.1925522969996,None,0.0,2658.2145584849995,None,2658.2145584849995,None,2658.2145584849995,None,None,None,None,None,2658.6323175790003,None,2658.6323175790003,None,0,0.06549827699973321,2658.6323175790008,None,2658.7325846739996,2660.637596144,None,None,0.2672639520001212,,,,,,,,,,,,,999.0,1,9,1,2019_Dec_03_1004,Test,3.2.4,59.8404477731557
181,Pictures/IA50_G40.bmp,Pictures/IA50_G40.bmp,50,"

It would probably be best to play it safe.""""",0,safe,,,,,8.0,0.0,8.0,0.0,0.0,2.0,2.0,6.0,,,,,,,,,,,,,,,,,,,,,,,,,,,,,,,2660.654310787,None,2662.6763167970003,2664.196979064,2664.1802730570002,None,2665.684234061,None,0.0,2667.706225891,None,2667.706225891,None,2667.706225891,None,None,None,None,None,2668.174125834,None,2668.174125834,None,1,0.4676850230002856,2668.174125834,None,None,None,2668.6754428679997,2670.1794082300003,0.2795995290002793,,,,,,,,,,,,,999.0,1,9,1,2019_Dec_03_1004,Test,3.2.4,59.8404477731557
182,Pictures/IA40_20_L95p.bmp,Pictures/IA40_20_L95p.bmp,40,"

Trust me, gamble!""""",1,risk,,,,,8.0,0.0,8.0,0.0,0.0,3.0,3.0,3.0,,,,,,,,,,,,,,,,,,,,,,,,,,,,,,,2670.196116512,None,2672.218114963,2673.73878292,2673.7220782120003,None,2675.259460208,None,2.0,2677.2480354030004,None,2677.2480354030004,None,2677.2480354030004,None,None,None,None,None,2677.749359914,None,2677.749359914,None,1,0.23646013899997345,2677.749359914,None,None,None,2678.0334340580002,2679.737931816,0.3297839259998909,,,,,,,,,,,,,999.0,1,9,1,2019_Dec_03_1004,Test,3.2.4,59.8404477731557
