,Choice,Choice2,Amount,AdviceVar1,GambleAdviceNum,GambleAdviceType,practice.thisRepN,practice.thisTrialN,practice.thisN,practice.thisIndex,trials_2.thisRepN,trials_2.thisTrialN,trials_2.thisN,trials_2.thisIndex,trials.thisRepN,trials.thisTrialN,trials.thisN,trials.thisIndex,text.started,text.stopped,key_resp_4.keys,key_resp_4.rt,key_resp_4.started,key_resp_4.stopped,instructions.started,instructions.stopped,space.keys,space.rt,space.started,space.stopped,chooseInst.started,chooseInst.stopped,Ad1.started,Ad1.stopped,Ad2.started,Ad2.stopped,key_resp_3.keys,key_resp_3.rt,key_resp_3.started,key_resp_3.stopped,Ad1pic.started,Ad1pic.stopped,Ad2pic.started,Ad2pic.stopped,enter.keys,enter.rt,enter.started,enter.stopped,iSi.started,iSi.stopped,receiveMoneyPicture.started,receiveMoneyPicture.stopped,ISI2.started,ISI2.stopped,ChoicePic.started,ChoicePic.stopped,response.keys,response.started,response.stopped,yesNo.started,yesNo.stopped,ask.started,ask.stopped,getAdv.started,getAdv.stopped,textForCode.started,textForCode.stopped,blank.started,blank.stopped,ChoicePic2.started,ChoicePic2.stopped,resp.keys,resp.started,resp.stopped,checkL1.started,checkL1.stopped,checkR1.started,checkR1.stopped,response.rt,resp.rt,EndPrac.started,EndPrac.stopped,key_resp.keys,key_resp.rt,key_resp.started,key_resp.stopped,endText.started,endText.stopped,key_resp_2.keys,key_resp_2.rt,key_resp_2.started,key_resp_2.stopped,participant,session,age,gender,date,expName,psychopyVersion,frameRate
4,Pictures/IA50_G40.bmp,Pictures/IA50_G40.bmp,Pictures/IA50.bmp,"

It would probably be best to play it safe.""""",0,safe,0,0.0,0.0,3.0,,,,,,,,,,,,,,,,,,,,,,,,,,,,,,,,,,,,,,,728.2539992369993,None,730.225873413,731.729831575999,731.7131232860003,None,733.2505139230007,None,,735.3059300079996,None,735.3059300079995,None,735.3059300079995,None,None,None,None,None,738.3472864639998,None,738.3472864639998,None,None,738.3472864639998,None,None,None,None,None,,,,,,,,,,,,,,,102.0,1,18,1,2019_Dec_04_1211,Test,3.2.4,59.84470323470423
5,Pictures/IA100_G20.bmp,Pictures/IA100_G20.bmp,Pictures/IA100.bmp,"

Go ahead and gamble!""""",1,risk,0,1.0,1.0,4.0,,,,,,,,,,,,,,,,,,,,,,,,,,,,,,,,,,,,,,,740.352568194,None,742.3912795440001,743.8952444960005,743.8785389329996,None,745.432637945999,None,,747.4045073560001,None,747.4045073560001,None,747.4045073560001,None,None,None,None,None,750.5127093159999,None,750.5127093159999,None,None,750.5127093159999,None,None,None,None,None,,,,,,,,,,,,,,,102.0,1,18,1,2019_Dec_04_1211,Test,3.2.4,59.84470323470423
6,Pictures/IA100_G40.bmp,Pictures/IA100_G40.bmp,Pictures/IA100.bmp,"

Try your luck and gamble!""""",1,risk,0,2.0,2.0,5.0,,,,,,,,,,,,,,,,,,,,,,,,,,,,,,,,,,,,,,,752.5179861829993,None,754.5400009640007,756.0606632589997,756.0439665250004,None,757.6147686430004,None,2.0,759.5699252599996,None,759.5699252599998,None,759.5699252599998,None,None,None,None,None,761.7590350210003,None,761.7590350210003,None,None,761.7590350210003,None,None,None,None,None,2.034292469999855,,,,,,,,,,,,,,102.0,1,18,1,2019_Dec_04_1211,Test,3.2.4,59.84470323470423
7,Pictures/IA50_G10.bmp,Pictures/IA50_G10.bmp,Pictures/IA50.bmp,"

Go with the safe option here!""""",0,safe,0,3.0,3.0,0.0,,,,,,,,,,,,,,,,,,,,,,,,,,,,,,,,,,,,,,,763.7643150510003,None,765.7863156030007,767.3069908030002,767.2902877699989,None,768.844380816,None,1.0,770.8162646539995,None,770.8162646539995,None,770.8162646539995,None,772.1196874730003,None,772.1196874730003,773.1223268080003,774.2252427619997,None,774.2252427619997,None,None,774.2252427619997,None,None,None,None,None,1.1719487350001143,,,,,,,,,,,,,,102.0,1,18,1,2019_Dec_04_1211,Test,3.2.4,59.84470323470423
8,Pictures/IA50_G20.bmp,Pictures/IA50_G20.bmp,Pictures/IA50.bmp,"

Let's venture and take a risk!""""",1,risk,0,4.0,4.0,1.0,,,,,,,,,,,,,,,,,,,,,,,,,,,,,,,,,,,,,,,776.2305256829995,None,778.2525292340006,779.7732042889992,779.7564966870004,None,781.2938851919998,None,2.0,783.2824677109993,None,783.2824677109993,None,783.2824677109993,None,None,None,None,None,784.7362977439998,None,784.7362977439998,None,1,784.7362977439998,None,None,None,786.3071098299997,None,1.2817669550004211,1.5319121510001423,,,,,,,,,,,,,102.0,1,18,1,2019_Dec_04_1211,Test,3.2.4,59.84470323470423
9,Pictures/IA50_G30.bmp,Pictures/IA50_G30.bmp,Pictures/IA50.bmp,"

I think you should gamble.""""",1,risk,0,5.0,5.0,2.0,,,,,,,,,,,,,,,,,,,,,,,,,,,,,,,,,,,,,,,786.758293717,None,788.7802940230004,790.3009781659995,790.2842628539992,None,791.8383706039995,None,2.0,793.8102308730004,None,793.8102308730004,None,793.8102308730004,None,None,None,None,None,794.5287970910003,None,794.5287970910003,None,1,794.5287970910003,None,None,None,795.6818290359997,None,0.5379931749994284,1.1154305529998965,,,,,,,,,,,,,102.0,1,18,1,2019_Dec_04_1211,Test,3.2.4,59.84470323470423
11,Pictures/IA100_G60.bmp,Pictures/IA100_G60.bmp,Pictures/IA100.bmp,"

Be cautious, don't gamble for this one.""""",0,safe,,,,,0.0,0.0,0.0,0.0,0.0,0.0,0.0,13.0,,,,,,,,,,,,,808.0979143459999,None,808.0979143459999,None,808.0979143459999,None,0,1.9943069550008656,808.0979143459999,None,808.0979143459999,None,808.0979143459999,None,return,5.706106399999044,808.0979143459999,None,813.8798292849997,None,815.8684081000001,817.3890836380007,817.3723761659994,None,818.9264814320004,None,2.0,820.8816322020002,None,820.8816322020002,None,820.8816322020002,None,None,None,None,None,822.4190200359999,None,822.4190200359999,None,1,822.4190200359999,None,None,None,823.0707417439999,824.4243057510002,1.3625935049985856,0.6172040740002558,,,,,,,,,,,,,102.0,1,18,1,2019_Dec_04_1211,Test,3.2.4,59.84470323470423
12,Pictures/IA50_G40.bmp,Pictures/IA50_G40.bmp,Pictures/IA50.bmp,"

It would probably be best to play it safe.""""",0,safe,,,,,0.0,0.0,0.0,0.0,0.0,1.0,1.0,17.0,,,,,,,,,,,,,,,,,,,,,,,,,,,,,,,824.4409846049994,None,826.4630215690004,827.983694558,827.9669915730002,None,829.4709649940005,None,2.0,831.4929565369994,None,831.4929565369994,None,831.4929565369994,None,None,None,None,None,833.4982431729995,None,833.4982431729995,None,0,833.4982431729995,None,834.183382184,835.4868160270007,None,None,1.7992636360013419,0.6419714109997585,,,,,,,,,,,,,102.0,1,18,1,2019_Dec_04_1211,Test,3.2.4,59.84470323470423
13,Pictures/IA100_L20.bmp,Pictures/IA100_L20.bmp,Pictures/IA100.bmp,"

Try to win as much money as you can, gamble!""""",1,risk,,,,,0.0,0.0,0.0,0.0,0.0,2.0,2.0,16.0,,,,,,,,,,,,,,,,,,,,,,,,,,,,,,,835.5035294229992,None,837.5255343050003,839.0462081390006,839.0295272899994,None,840.617018255999,None,2.0,842.5554674160003,None,842.5554674160003,None,842.5554674160003,None,None,None,None,None,843.8756174170003,None,843.8756174170003,None,0,843.8756174170003,None,844.577463749999,845.8809036809989,None,None,1.1207570799997484,0.6645932610008458,,,,,,,,,,,,,102.0,1,18,1,2019_Dec_04_1211,Test,3.2.4,59.84470323470423
14,Pictures/IA110_55_L95p.bmp,Pictures/IA110_55_L95p.bmp,Pictures/IA110.bmp,"

Trust me, gamble!""""",1,risk,,,,,0.0,0.0,0.0,0.0,0.0,3.0,3.0,7.0,,,,,,,,,,,,,,,,,,,,,,,,,,,,,,,845.8976112949995,None,847.9363205050003,849.4570028190001,849.4402996759991,None,850.9776844849994,None,2.0,852.9495507860001,None,852.9495507860001,None,852.9495507860001,None,None,None,None,None,854.0357484879996,None,854.0357484879996,None,1,854.0357484879996,None,None,None,854.8712811060004,856.0410334100006,0.9346640559997468,0.7924707109996234,,,,,,,,,,,,,102.0,1,18,1,2019_Dec_04_1211,Test,3.2.4,59.84470323470423
15,Pictures/IA50_G10.bmp,Pictures/IA50_G10.bmp,Pictures/IA50.bmp,"

Go with the safe option here!""""",0,safe,,,,,0.0,0.0,0.0,0.0,0.0,4.0,4.0,15.0,,,,,,,,,,,,,,,,,,,,,,,,,,,,,,,856.0577440410007,None,858.0797463650006,859.6004289000003,859.5837127210008,None,861.0876785779992,None,1.0,863.1096854699998,None,863.1096854699999,None,863.1096854699999,None,864.1457466540005,None,864.1457466540005,865.1483847320005,866.3515676870002,None,866.3515676870002,None,0,866.3515676870002,None,867.3876322400001,None,None,None,0.9185335729998768,0.9966434919988388,,,,,,,,,,,,,102.0,1,18,1,2019_Dec_04_1211,Test,3.2.4,59.84470323470423
16,Pictures/IA50_L10.bmp,Pictures/IA50_L10.bmp,Pictures/IA50.bmp,"

Play it safe, don’t gamble!""""",0,safe,,,,,0.0,0.0,0.0,0.0,0.0,5.0,5.0,4.0,,,,,,,,,,,,,,,,,,,,,,,,,,,,,,,868.3735633719998,None,870.3955669430006,871.9162410359994,871.8995321020002,None,873.4535985779994,None,2.0,875.4255000639996,None,875.4255000639996,None,875.4255000639996,None,None,None,None,None,876.578539743,None,876.578539743,None,1,876.578539743,None,None,None,877.0130158599995,878.5838322810005,0.9307236990007368,0.39367063799909374,,,,,,,,,,,,,102.0,1,18,1,2019_Dec_04_1211,Test,3.2.4,59.84470323470423
17,Pictures/IA75_G30.bmp,Pictures/IA75_G30.bmp,Pictures/IA75.bmp,"

Be bold, gamble!""""",1,risk,,,,,0.0,0.0,0.0,0.0,0.0,6.0,6.0,1.0,,,,,,,,,,,,,,,,,,,,,,,,,,,,,,,878.6005366769996,None,880.6392510239991,882.1432140839997,882.1265075809997,None,883.697318734,None,1.0,885.6524769790003,None,885.6524769790003,None,885.6524769790003,None,887.0728522039999,None,887.0728522039999,888.0755290349998,889.1784437169999,None,889.1784437169999,None,1,889.1784437169999,None,None,None,890.01397653,891.1837309049997,1.3277421969996794,0.7937755240000115,,,,,,,,,,,,,102.0,1,18,1,2019_Dec_04_1211,Test,3.2.4,59.84470323470423
18,Pictures/IA75_L45.bmp,Pictures/IA75_L45.bmp,Pictures/IA75.bmp,"

Don't gamble for this one, play it safe.""""",0,safe,,,,,0.0,0.0,0.0,0.0,0.0,7.0,7.0,19.0,,,,,,,,,,,,,,,,,,,,,,,,,,,,,,,891.200445685,None,893.2224402599995,894.7431212000001,894.7264169759992,None,896.2637967069995,None,1.0,898.252374581999,None,898.252374581999,None,898.252374581999,None,899.2717323539991,None,899.2717323539991,900.2743720909993,901.377287336999,None,901.377287336999,None,0,901.377287336999,None,902.1292663129998,903.3825833359997,None,None,0.879841698000746,0.7069284490007703,,,,,,,,,,,,,102.0,1,18,1,2019_Dec_04_1211,Test,3.2.4,59.84470323470423
19,Pictures/IA110_55_G95p.bmp,Pictures/IA110_55_G95p.bmp,Pictures/IA110.bmp,"

Take a chance!""""",1,risk,,,,,0.0,0.0,0.0,0.0,0.0,8.0,8.0,11.0,,,,,,,,,,,,,,,,,,,,,,,,,,,,,,,903.3992822339997,None,905.4212840619994,906.9419614040007,906.925251607,None,908.5127730209997,None,2.0,910.4512220349997,None,910.4512220349998,None,910.4512220349998,None,None,None,None,None,911.0862284879995,None,911.0862284879995,None,0,911.0862284879995,None,912.0721604889995,None,None,None,0.4810005109993654,0.9499885790010012,,,,,,,,,,,,,102.0,1,18,1,2019_Dec_04_1211,Test,3.2.4,59.84470323470423
20,Pictures/IA25_L20.bmp,Pictures/IA25_L20.bmp,Pictures/IA25.bmp,"

Don't be tempted to gamble.""""",0,safe,,,,,0.0,0.0,0.0,0.0,0.0,9.0,9.0,9.0,,,,,,,,,,,,,,,,,,,,,,,,,,,,,,,913.0915159829992,None,915.1302270829992,916.6509169049997,916.634198195,None,918.1882996659997,None,1.0,920.1434642079994,None,920.1434642079994,None,920.1434642079994,None,921.3967621229995,None,921.3967621229995,922.3994019840002,923.5023142370001,None,923.5023142370001,None,0,923.5023142370001,None,924.4381208330005,925.5075986689999,None,None,1.1487450569984503,0.8858973260012135,,,,,,,,,,,,,102.0,1,18,1,2019_Dec_04_1211,Test,3.2.4,59.84470323470423
21,Pictures/IA75_L60.bmp,Pictures/IA75_L60.bmp,Pictures/IA75.bmp,"

Why not take the gamble?""""",1,risk,,,,,0.0,0.0,0.0,0.0,0.0,10.0,10.0,18.0,,,,,,,,,,,,,,,,,,,,,,,,,,,,,,,925.5243141229994,None,927.5463082420001,929.0669862389997,929.0502907090004,None,930.6210874849994,None,1.0,932.576274738999,None,932.576274738999,None,932.576274738999,None,933.4117866129991,None,933.4117866129991,934.414424603,935.5173379489997,None,935.5173379489997,None,1,935.5173379489997,None,None,None,936.5868219909999,None,0.7239322890000041,1.0308654090003984,,,,,,,,,,,,,102.0,1,18,1,2019_Dec_04_1211,Test,3.2.4,59.84470323470423
22,Pictures/IA50_G20.bmp,Pictures/IA50_G20.bmp,Pictures/IA50.bmp,"

Let's venture and take a risk!""""",1,risk,,,,,0.0,0.0,0.0,0.0,0.0,11.0,11.0,6.0,,,,,,,,,,,,,,,,,,,,,,,,,,,,,,,937.539333063999,None,939.6950476350003,941.1989918890004,941.1822807519992,None,942.6194002029997,None,1.0,944.5912743619999,None,944.5912743620001,None,944.5912743620001,None,946.1788239440002,None,946.1788239440002,947.1814703099999,948.3344918049997,None,948.3344918049997,None,1,948.3344918049997,None,None,None,949.0697494080005,950.3397662779998,1.4769590019986936,0.7017108330001065,,,,,,,,,,,,,102.0,1,18,1,2019_Dec_04_1211,Test,3.2.4,59.84470323470423
23,Pictures/IA25_L5.bmp,Pictures/IA25_L5.bmp,Pictures/IA25.bmp,"

It would be smarter to choose the safe option.""""",0,safe,,,,,0.0,0.0,0.0,0.0,0.0,12.0,12.0,12.0,,,,,,,,,,,,,,,,,,,,,,,,,,,,,,,950.3564758729999,None,952.395188518999,953.9158689999997,953.8991589459993,None,955.4365457840004,None,2.0,957.4084164160004,None,957.4084164160004,None,957.4084164160004,None,None,None,None,None,958.5280383109994,None,958.5280383109994,None,0,958.5280383109994,None,959.1797501310002,960.5166192639999,None,None,0.923813565999808,0.612173822000841,,,,,,,,,,,,,102.0,1,18,1,2019_Dec_04_1211,Test,3.2.4,59.84470323470423
24,Pictures/IA100_G20.bmp,Pictures/IA100_G20.bmp,Pictures/IA100.bmp,"

Go ahead and gamble!""""",1,risk,,,,,0.0,0.0,0.0,0.0,0.0,13.0,13.0,0.0,,,,,,,,,,,,,,,,,,,,,,,,,,,,,,,960.5333212439991,None,962.5720395630005,964.0759998219992,964.05929174,None,965.6133926209995,None,2.0,967.5852692609996,None,967.5852692609997,None,967.5852692609997,None,None,None,None,None,969.0725122970007,None,969.0725122970007,None,0,969.0725122970007,None,969.8245092070001,971.0610901350001,None,None,1.3309579659999144,0.7156996550002077,,,,,,,,,,,,,102.0,1,18,1,2019_Dec_04_1211,Test,3.2.4,59.84470323470423
25,Pictures/IA40_20_G95p.bmp,Pictures/IA40_20_G95p.bmp,Pictures/IA40.bmp,"

Hold back, stay with the safe choice.""""",0,safe,,,,,0.0,0.0,0.0,0.0,0.0,14.0,14.0,14.0,,,,,,,,,,,,,,,,,,,,,,,,,,,,,,,971.0778062140007,None,973.1165135620005,974.6371899230008,974.6204861260003,None,976.157869362999,None,2.0,978.1297425170005,None,978.1297425170005,None,978.1297425170005,None,None,None,None,None,978.8650167379992,None,978.8650167379992,None,0,978.8650167379992,None,979.3496208410006,980.8535877439999,None,None,0.5464796709984512,0.43519645800006396,,,,,,,,,,,,,102.0,1,18,1,2019_Dec_04_1211,Test,3.2.4,59.84470323470423
26,Pictures/IA50_L30.bmp,Pictures/IA50_L30.bmp,Pictures/IA50.bmp,"

Take a leap, I think you should gamble.""""",1,risk,,,,,0.0,0.0,0.0,0.0,0.0,15.0,15.0,5.0,,,,,,,,,,,,,,,,,,,,,,,,,,,,,,,980.8702972599995,None,982.9090105509996,984.4296890809993,984.4129854329994,None,986.3012906359991,None,1.0,987.922236211999,None,987.922236211999,None,987.922236211999,None,989.2591018119992,None,989.2591018119992,990.2617449109994,991.3646496709998,None,991.3646496709998,None,1,991.3646496709998,None,None,None,991.8158489659991,993.3699400140003,1.193983945000582,0.4155599219993745,,,,,,,,,,,,,102.0,1,18,1,2019_Dec_04_1211,Test,3.2.4,59.84470323470423
27,Pictures/IA75_G60.bmp,Pictures/IA75_G60.bmp,Pictures/IA75.bmp,"

Make it exciting, take a chance!""""",1,risk,,,,,0.0,0.0,0.0,0.0,0.0,16.0,16.0,8.0,,,,,,,,,,,,,,,,,,,,,,,,,,,,,,,993.3866453159999,None,995.4253636040004,996.9460337720003,996.929339768999,None,998.483435436,None,2.0,1000.438584597,None,1000.438584597,None,1000.438584597,None,None,None,None,None,1002.0762405369996,None,1002.0762405369996,None,0,1002.0762405369996,None,1002.9284827279998,1004.0648166700003,None,None,1.461638667000443,0.8079793559991231,,,,,,,,,,,,,102.0,1,18,1,2019_Dec_04_1211,Test,3.2.4,59.84470323470423
28,Pictures/IA50_G30.bmp,Pictures/IA50_G30.bmp,Pictures/IA50.bmp,"

I think you should gamble.""""",1,risk,,,,,0.0,0.0,0.0,0.0,0.0,17.0,17.0,3.0,,,,,,,,,,,,,,,,,,,,,,,,,,,,,,,1004.0815266279997,None,1006.1035240909996,1007.6242037959993,1007.6074950480006,None,1009.1448834209996,None,2.0,1011.133468224999,None,1011.133468224999,None,1011.133468224999,None,None,None,None,None,1012.1528295880007,None,1012.1528295880007,None,1,1012.1528295880007,None,None,None,1012.6541140439995,1014.141392266999,0.8467410390003351,0.4593818239991378,,,,,,,,,,,,,102.0,1,18,1,2019_Dec_04_1211,Test,3.2.4,59.84470323470423
29,Pictures/IA25_L15.bmp,Pictures/IA25_L15.bmp,Pictures/IA25.bmp,"

There's not much on the line here, gamble!""""",1,risk,,,,,0.0,0.0,0.0,0.0,0.0,18.0,18.0,2.0,,,,,,,,,,,,,,,,,,,,,,,,,,,,,,,1014.1581092049992,None,1016.1801043019997,1017.7007814899997,1017.6840753349998,None,1019.2214669529994,None,1.0,1021.2100409940003,None,1021.2100409940003,None,1021.2100409940003,None,1022.3463779799995,None,1022.3463779799995,1023.3490098390002,1024.4686410719996,None,1024.4686410719996,None,1,1024.4686410719996,None,None,None,1024.9365531989997,1026.457211303,0.9861728679989028,0.4315640069999063,,,,,,,,,,,,,102.0,1,18,1,2019_Dec_04_1211,Test,3.2.4,59.84470323470423
30,Pictures/IA20_10_G95p.bmp,Pictures/IA20_10_G95p.bmp,Pictures/IA20.bmp,"

Take a leap, I think you should gamble.""""",1,risk,,,,,0.0,0.0,0.0,0.0,0.0,19.0,19.0,10.0,,,,,,,,,,,,,,,,,,,,,,,,,,,,,,,1026.4739209009995,None,1028.512635061,1030.0165993090004,1029.99989077,None,1031.587409417999,None,2.0,1033.5258587409999,None,1033.5258587409999,None,1033.5258587409999,None,None,None,None,None,1034.8292992329998,None,1034.8292992329998,None,0,1034.8292992329998,None,1035.4141726970001,1036.817891443,None,None,1.1343545969994009,0.5509106330009672,,,,,,,,,,,,,102.0,1,18,1,2019_Dec_04_1211,Test,3.2.4,59.84470323470423
32,Pictures/IA75_G60.bmp,Pictures/IA75_G60.bmp,Pictures/IA75.bmp,"

Make it exciting, take a chance!""""",1,risk,,,,,1.0,0.0,1.0,0.0,0.0,0.0,0.0,17.0,,,,,,,,,,,,,1051.7238629859994,None,1051.7238629859994,None,1051.7238629859994,None,0,6.368350651999206,1051.7238629859994,None,1051.7238629859994,None,1051.7238629859994,None,return,9.57613831099843,1051.7238629859994,None,1061.3492490029994,None,1063.3712469409993,1064.891922373,1064.875216215999,None,1066.362469699,None,2.0,1068.3844716579997,None,1068.3844716579997,None,1068.3844716579997,None,None,None,None,None,1069.604357182,None,1069.604357182,None,0,1069.604357182,None,1070.1223858999992,1071.5929603920004,None,None,1.0437515289995645,0.4798607119992084,,,,,,,,,,,,,102.0,1,18,1,2019_Dec_04_1211,Test,3.2.4,59.84470323470423
33,Pictures/IA50_G20.bmp,Pictures/IA50_G20.bmp,Pictures/IA50.bmp,"

Let's venture and take a risk!""""",1,risk,,,,,1.0,0.0,1.0,0.0,0.0,1.0,1.0,5.0,,,,,,,,,,,,,,,,,,,,,,,,,,,,,,,1071.6096491100006,None,1073.631644434,1075.1523189890004,1075.1356135350006,None,1076.6395783649996,None,2.0,1078.6615796319993,None,1078.6615796319993,None,1078.6615796319993,None,None,None,None,None,1080.533179813,None,1080.533179813,None,1,1080.533179813,None,None,None,1081.719643936999,None,1.7186231649993715,1.143045278999125,,,,,,,,,,,,,102.0,1,18,1,2019_Dec_04_1211,Test,3.2.4,59.84470323470423
34,Pictures/IA100_L20.bmp,Pictures/IA100_L20.bmp,Pictures/IA100.bmp,"

Try to win as much money as you can, gamble!""""",1,risk,,,,,1.0,0.0,1.0,0.0,0.0,2.0,2.0,18.0,,,,,,,,,,,,,,,,,,,,,,,,,,,,,,,1082.5384682909998,None,1084.5604700209997,1086.0811501889991,1086.0644417199992,None,1087.6185382680005,None,2.0,1089.590415190999,None,1089.590415190999,None,1089.590415190999,None,None,None,None,None,1091.0776607199996,None,1091.0776607199996,None,1,1091.0776607199996,None,None,None,1091.4954324929995,1093.0829470580002,1.3098003089999108,0.3745607919991016,,,,,,,,,,,,,102.0,1,18,1,2019_Dec_04_1211,Test,3.2.4,59.84470323470423
35,Pictures/IA75_G30.bmp,Pictures/IA75_G30.bmp,Pictures/IA75.bmp,"

Be bold, gamble!""""",1,risk,,,,,1.0,0.0,1.0,0.0,0.0,3.0,3.0,16.0,,,,,,,,,,,,,,,,,,,,,,,,,,,,,,,1093.099662280999,None,1095.1216639109998,1096.6423379130001,1096.6256347040007,None,1098.1630193640003,None,2.0,1100.151597052999,None,1100.151597052999,None,1100.151597052999,None,None,None,None,None,1101.1041100030006,None,1101.1041100030006,None,0,1101.1041100030006,None,1101.655560541999,1103.1093932390004,None,None,0.7966401029989356,0.5161021349995281,,,,,,,,,,,,,102.0,1,18,1,2019_Dec_04_1211,Test,3.2.4,59.84470323470423
36,Pictures/IA75_L60.bmp,Pictures/IA75_L60.bmp,Pictures/IA75.bmp,"

Why not take the gamble?""""",1,risk,,,,,1.0,0.0,1.0,0.0,0.0,4.0,4.0,1.0,,,,,,,,,,,,,,,,,,,,,,,,,,,,,,,1103.1261041570006,None,1105.1481279089994,1106.6687824579994,1106.6520819589996,None,1108.1894612749993,None,2.0,1110.1780431340003,None,1110.1780431340003,None,1110.1780431340003,None,None,None,None,None,1112.3671565239993,None,1112.3671565239993,None,1,1112.3671565239993,None,None,None,1112.868475286,1114.3724340500003,2.0261782920006226,0.4610626220000995,,,,,,,,,,,,,102.0,1,18,1,2019_Dec_04_1211,Test,3.2.4,59.84470323470423
37,Pictures/IA100_G40.bmp,Pictures/IA100_G40.bmp,Pictures/IA100.bmp,"

Try your luck and gamble!""""",1,risk,,,,,1.0,0.0,1.0,0.0,0.0,5.0,5.0,7.0,,,,,,,,,,,,,,,,,,,,,,,,,,,,,,,1114.3891553000003,None,1116.4111474280007,1117.915111027999,1117.8984065409995,None,1119.4692145239997,None,1.0,1121.4410891920006,None,1121.4410891920006,None,1121.4410891920006,None,1122.4604439099994,None,1122.4604439099994,1123.4630775140004,1124.5659927709994,None,1124.5659927709994,None,1,1124.5659927709994,None,None,None,1125.2344201999995,1126.5712770519995,0.9071298529997875,0.6302182950003044,,,,,,,,,,,,,102.0,1,18,1,2019_Dec_04_1211,Test,3.2.4,59.84470323470423
38,Pictures/IA80_40_L95p.bmp,Pictures/IA80_40_L95p.bmp,Pictures/IA80.bmp,"

Let's stay with the certain option.""""",0,safe,,,,,1.0,0.0,1.0,0.0,0.0,6.0,6.0,9.0,,,,,,,,,,,,,,,,,,,,,,,,,,,,,,,1126.5879888049994,None,1128.6267019929992,1130.1473805289995,1130.1306697360005,None,1131.6680554080003,None,2.0,1133.6399260829996,None,1133.6399260829994,None,1133.6399260829994,None,None,None,None,None,1135.2942939819995,None,1135.2942939819995,None,1,1135.2942939819995,None,None,None,1135.9125818549992,1137.2828690779997,1.4842903169992496,0.5739201000014873,,,,,,,,,,,,,102.0,1,18,1,2019_Dec_04_1211,Test,3.2.4,59.84470323470423
39,Pictures/IA50_L20.bmp,Pictures/IA50_L20.bmp,Pictures/IA50.bmp,"

Certainty is boring, take a risk!""""",1,risk,,,,,1.0,0.0,1.0,0.0,0.0,7.0,7.0,8.0,,,,,,,,,,,,,,,,,,,,,,,,,,,,,,,1137.2995734200003,None,1139.3215849100004,1140.8422519349995,1140.8255583159998,None,1142.3963565069998,None,1.0,1144.3515195850005,None,1144.3515195850005,None,1144.3515195850005,None,1145.487846899,None,1145.487846899,1146.4904879230007,1147.5933957320003,None,1147.5933957320003,None,1,1147.5933957320003,None,None,None,1149.2143377080001,None,1.004695460000221,1.5788187289999769,,,,,,,,,,,,,102.0,1,18,1,2019_Dec_04_1211,Test,3.2.4,59.84470323470423
40,Pictures/IA75_L15.bmp,Pictures/IA75_L15.bmp,Pictures/IA75.bmp,"

Trust me, gamble!""""",1,risk,,,,,1.0,0.0,1.0,0.0,0.0,8.0,8.0,4.0,,,,,,,,,,,,,,,,,,,,,,,,,,,,,,,1149.598680660999,None,1151.6206841459998,1153.1413610089994,1153.1246518220005,None,1154.6787573699994,None,1.0,1156.6506169159993,None,1156.6506169159993,None,1156.6506169159993,None,1158.3216905729996,None,1158.3216905729996,1159.3243306779996,1160.4272499070003,None,1160.4272499070003,None,1,1160.4272499070003,None,None,None,1160.811586802999,1162.415821349,1.5776016899999377,0.3369578340007138,,,,,,,,,,,,,102.0,1,18,1,2019_Dec_04_1211,Test,3.2.4,59.84470323470423
41,Pictures/IA100_L80.bmp,Pictures/IA100_L80.bmp,Pictures/IA100.bmp,"

Go all in!""""",1,risk,,,,,1.0,0.0,1.0,0.0,0.0,9.0,9.0,12.0,,,,,,,,,,,,,,,,,,,,,,,,,,,,,,,1162.432531972,None,1164.454532032999,1165.9752107220004,1165.9584996069998,None,1167.5293125260005,None,1.0,1169.4844727789996,None,1169.4844727789996,None,1169.4844727789996,None,1170.9383062480001,None,1170.9383062480001,1171.940950965999,1173.0438552570004,None,1173.0438552570004,None,1,1173.0438552570004,None,None,None,1173.7624125600005,1175.032434673999,1.3837470190010208,0.6723558670000784,,,,,,,,,,,,,102.0,1,18,1,2019_Dec_04_1211,Test,3.2.4,59.84470323470423
42,Pictures/IA40_20_G95p.bmp,Pictures/IA40_20_G95p.bmp,Pictures/IA40.bmp,"

Hold back, stay with the safe choice.""""",0,safe,,,,,1.0,0.0,1.0,0.0,0.0,10.0,10.0,0.0,,,,,,,,,,,,,,,,,,,,,,,,,,,,,,,1175.0491400460005,None,1177.071151432,1178.5918212730005,1178.5751112459993,None,1180.0790757200002,None,2.0,1182.1010806780005,None,1182.1010806780005,None,1182.1010806780005,None,None,None,None,None,1183.1538707560003,None,1183.1538707560003,None,0,1183.1538707560003,None,1183.7888569960005,1185.159139368,None,None,0.8471470219992625,0.5943382079985895,,,,,,,,,,,,,102.0,1,18,1,2019_Dec_04_1211,Test,3.2.4,59.84470323470423
43,Pictures/IA25_G5.bmp,Pictures/IA25_G5.bmp,Pictures/IA25.bmp,"

Let's stay with the certain option.""""",0,safe,,,,,1.0,0.0,1.0,0.0,0.0,11.0,11.0,19.0,,,,,,,,,,,,,,,,,,,,,,,,,,,,,,,1185.1758574959995,None,1187.1978491910004,1188.7185232099991,1188.7018168450004,None,1190.2726274049992,None,1.0,1192.227783551999,None,1192.227783551999,None,1192.227783551999,None,1193.5813550649991,None,1193.5813550649991,1194.5839930459997,1195.7036183949995,None,1195.7036183949995,None,1,1195.7036183949995,None,None,None,1197.20758132,None,1.2324282560002755,1.4606022269999812,,,,,,,,,,,,,102.0,1,18,1,2019_Dec_04_1211,Test,3.2.4,59.84470323470423
44,Pictures/IA50_L40.bmp,Pictures/IA50_L40.bmp,Pictures/IA50.bmp,"

That gamble doesn't sound too good, play it safe.""""",0,safe,,,,,1.0,0.0,1.0,0.0,0.0,12.0,12.0,2.0,,,,,,,,,,,,,,,,,,,,,,,,,,,,,,,1197.725613440999,None,1199.7476140829995,1201.2683012900004,1201.2515860350004,None,1202.8224007199997,None,2.0,1204.777548514,None,1204.777548514,None,1204.777548514,None,None,None,None,None,1206.53218071,None,1206.53218071,None,1,1206.53218071,None,None,None,1207.0669169309995,1208.5374582169998,1.554667905000315,0.4880396270000346,,,,,,,,,,,,,102.0,1,18,1,2019_Dec_04_1211,Test,3.2.4,59.84470323470423
45,Pictures/IA40_20_L95p.bmp,Pictures/IA40_20_L95p.bmp,Pictures/IA40.bmp,"

Trust me, gamble!""""",1,risk,,,,,1.0,0.0,1.0,0.0,0.0,13.0,13.0,14.0,,,,,,,,,,,,,,,,,,,,,,,,,,,,,,,1208.5541761159993,None,1210.576172909,1212.0968489479992,1212.080142976999,None,1213.6509515280004,None,2.0,1215.7063733589994,None,1215.7063733589994,None,1215.7063733589994,None,None,None,None,None,1216.3413900349997,None,1216.3413900349997,None,1,1216.3413900349997,None,None,None,1216.6588849499994,1218.329966975999,0.4818383930014534,0.27081968799939204,,,,,,,,,,,,,102.0,1,18,1,2019_Dec_04_1211,Test,3.2.4,59.84470323470423
46,Pictures/IA25_L15.bmp,Pictures/IA25_L15.bmp,Pictures/IA25.bmp,"

There's not much on the line here, gamble!""""",1,risk,,,,,1.0,0.0,1.0,0.0,0.0,14.0,14.0,11.0,,,,,,,,,,,,,,,,,,,,,,,,,,,,,,,1218.346663317,None,1220.3686655989995,1221.8893395240002,1221.8726419149998,None,1223.376597771,None,1.0,1225.3986017929992,None,1225.3986017929992,None,1225.3986017929992,None,1226.6017726979999,None,1226.6017726979999,1227.6044167650007,1228.707325765,None,1228.707325765,None,1,1228.707325765,None,None,None,1229.2755006069992,1230.7126091380005,1.0536113569996814,0.5288823080009024,,,,,,,,,,,,,102.0,1,18,1,2019_Dec_04_1211,Test,3.2.4,59.84470323470423
47,Pictures/IA25_G20.bmp,Pictures/IA25_G20.bmp,Pictures/IA25.bmp,"

I wouldn't gamble for this one. """"",0,safe,,,,,1.0,0.0,1.0,0.0,0.0,15.0,15.0,3.0,,,,,,,,,,,,,,,,,,,,,,,,,,,,,,,1230.7293347759996,None,1232.7513210919997,1234.272000214999,1234.2552889080007,None,1235.8093854520002,None,2.0,1237.7812567640005,None,1237.7812567640003,None,1237.7812567640003,None,None,None,None,None,1238.884162117999,None,1238.884162117999,None,0,1238.884162117999,None,1239.218376193,1240.889454174,None,None,0.9269762220010308,0.2960482119997323,,,,,,,,,,,,,102.0,1,18,1,2019_Dec_04_1211,Test,3.2.4,59.84470323470423
48,Pictures/IA100_L60.bmp,Pictures/IA100_L60.bmp,Pictures/IA100.bmp,"

You'd have a lot to lose, don't gamble.""""",0,safe,,,,,1.0,0.0,1.0,0.0,0.0,16.0,16.0,10.0,,,,,,,,,,,,,,,,,,,,,,,,,,,,,,,1240.9061611019997,None,1242.9281976310006,1244.4321478430002,1244.4153945389999,None,1246.0029403189992,None,1.0,1247.9580963470007,None,1247.9580963470007,None,1247.9580963470007,None,1249.3785070610002,None,1249.3785070610002,1250.3811496879998,1251.4840571840004,None,1251.4840571840004,None,0,1251.4840571840004,None,1252.369729486999,1253.4726306889997,None,None,1.2781252619988663,0.8401527710011578,,,,,,,,,,,,,102.0,1,18,1,2019_Dec_04_1211,Test,3.2.4,59.84470323470423
49,Pictures/IA50_L10.bmp,Pictures/IA50_L10.bmp,Pictures/IA50.bmp,"

Play it safe, don’t gamble!""""",0,safe,,,,,1.0,0.0,1.0,0.0,0.0,17.0,17.0,6.0,,,,,,,,,,,,,,,,,,,,,,,,,,,,,,,1253.4893661340002,None,1255.511342584,1257.0320175829993,1257.0153116390002,None,1258.5694081070005,None,2.0,1260.5412776160001,None,1260.5412776160001,None,1260.5412776160001,None,None,None,None,None,1261.2097029589995,None,1261.2097029589995,None,0,1261.2097029589995,None,1261.861420315,1263.2149877910006,None,None,0.5109428750001825,0.6105372010006249,,,,,,,,,,,,,102.0,1,18,1,2019_Dec_04_1211,Test,3.2.4,59.84470323470423
50,Pictures/IA75_G15.bmp,Pictures/IA75_G15.bmp,Pictures/IA75.bmp,"

Take a chance!""""",1,risk,,,,,1.0,0.0,1.0,0.0,0.0,18.0,18.0,13.0,,,,,,,,,,,,,,,,,,,,,,,,,,,,,,,1263.2316995709998,None,1265.2537015080006,1266.7743751389999,1266.7576686319999,None,1268.328478069,None,2.0,1270.2836334140002,None,1270.2836334140002,None,1270.2836334140002,None,None,None,None,None,1270.9854830140002,None,1270.9854830140002,None,0,1270.9854830140002,None,1271.4534036190007,1272.9740639990005,None,None,0.5045874589995947,0.4267287120001129,,,,,,,,,,,,,102.0,1,18,1,2019_Dec_04_1211,Test,3.2.4,59.84470323470423
51,Pictures/IA50_G40.bmp,Pictures/IA50_G40.bmp,Pictures/IA50.bmp,"

It would probably be best to play it safe.""""",0,safe,,,,,1.0,0.0,1.0,0.0,0.0,19.0,19.0,15.0,,,,,,,,,,,,,,,,,,,,,,,,,,,,,,,1272.9907700190006,None,1275.0127676860002,1276.5334436820003,1276.5167352039998,None,1278.0707946970006,None,2.0,1280.0427032109992,None,1280.0427032109992,None,1280.0427032109992,None,None,None,None,None,1281.4798216959998,None,1281.4798216959998,None,0,1281.4798216959998,None,1282.0145691349999,1283.485108980999,None,None,1.2415161349999837,0.5003881819993694,,,,,,,,,,,,,102.0,1,18,1,2019_Dec_04_1211,Test,3.2.4,59.84470323470423
53,Pictures/IA100_L40.bmp,Pictures/IA100_L40.bmp,Pictures/IA100.bmp,"

Think of the payoff, gamble!""""",1,risk,,,,,2.0,0.0,2.0,0.0,0.0,0.0,0.0,18.0,,,,,,,,,,,,,1290.085847940999,None,1290.085847940999,None,1290.085847940999,None,0,1.958358555999439,1290.085847940999,None,1290.085847940999,None,1290.085847940999,None,return,3.8861440939999734,1290.085847940999,None,1294.029579089999,None,1296.0348669829993,1297.5555410879995,1297.538834512,None,1299.092930029,None,1.0,1301.048088765,None,1301.048088765,None,1301.048088765,None,1302.3348239590005,None,1302.3348239590005,1303.3374585299998,1304.4403675250005,None,1304.4403675250005,None,1,1304.4403675250005,None,None,None,1305.309319891,1306.4456495170007,1.1561322170000494,0.8278553519994603,,,,,,,,,,,,,102.0,1,18,1,2019_Dec_04_1211,Test,3.2.4,59.84470323470423
54,Pictures/IA100_G40.bmp,Pictures/IA100_G40.bmp,Pictures/IA100.bmp,"

Try your luck and gamble!""""",1,risk,,,,,2.0,0.0,2.0,0.0,0.0,1.0,1.0,15.0,,,,,,,,,,,,,,,,,,,,,,,,,,,,,,,1306.4623618350006,None,1308.4843680929998,1310.0050342219993,1309.988371687,None,1311.492295858,None,1.0,1313.5142901269999,None,1313.514290127,None,1313.514290127,None,1314.801018989,None,1314.801018989,1315.8036544029992,1316.906568509,None,1316.906568509,None,0,1316.906568509,None,1318.0428923930003,None,None,None,1.1699264109993237,1.0896438479994686,,,,,,,,,,,,,102.0,1,18,1,2019_Dec_04_1211,Test,3.2.4,59.84470323470423
55,Pictures/IA25_G10.bmp,Pictures/IA25_G10.bmp,Pictures/IA25.bmp,"

What's life without a little risk?""""",1,risk,,,,,2.0,0.0,2.0,0.0,0.0,2.0,2.0,11.0,,,,,,,,,,,,,,,,,,,,,,,,,,,,,,,1318.9285664209992,None,1320.950567253999,1322.4712459459995,1322.4545339450005,None,1324.0253419459996,None,1.0,1325.9804927779996,None,1325.9804927779996,None,1325.9804927779996,None,1326.9330229430007,None,1326.9330229430007,1327.935644283999,1329.038563359999,None,1329.038563359999,None,1,1329.038563359999,None,None,None,1329.9409338350006,1331.0438386619999,0.8317206820011052,0.8536489170001005,,,,,,,,,,,,,102.0,1,18,1,2019_Dec_04_1211,Test,3.2.4,59.84470323470423
56,Pictures/IA25_G15.bmp,Pictures/IA25_G15.bmp,Pictures/IA25.bmp,"

I think you should take a gamble.""""",1,risk,,,,,2.0,0.0,2.0,0.0,0.0,3.0,3.0,6.0,,,,,,,,,,,,,,,,,,,,,,,,,,,,,,,1331.0605497900006,None,1333.0825480159992,1334.6032212029995,1334.586520975,None,1336.1740339590006,None,1.0,1338.1124775559992,None,1338.1124775559992,None,1338.1124775559992,None,1339.1485441779996,None,1339.1485441779996,1340.1511811749997,1341.254101186999,None,1341.254101186999,None,1,1341.254101186999,None,None,None,1341.6217261150005,1343.2426654710007,0.907741832999818,0.33410008200007724,,,,,,,,,,,,,102.0,1,18,1,2019_Dec_04_1211,Test,3.2.4,59.84470323470423
57,Pictures/IA50_G20.bmp,Pictures/IA50_G20.bmp,Pictures/IA50.bmp,"

Let's venture and take a risk!""""",1,risk,,,,,2.0,0.0,2.0,0.0,0.0,4.0,4.0,10.0,,,,,,,,,,,,,,,,,,,,,,,,,,,,,,,1343.259375908,None,1345.2813807989996,1346.8020483409994,1346.7853544220004,None,1348.322731964,None,1.0,1350.3113055570002,None,1350.3113055570002,None,1350.3113055570002,None,1350.9797414640007,None,1350.9797414640007,1351.9823723889995,1353.0852857660002,None,1353.0852857660002,None,1,1353.0852857660002,None,None,None,1354.0712202269997,None,0.5649237040015578,0.950932850000754,,,,,,,,,,,,,102.0,1,18,1,2019_Dec_04_1211,Test,3.2.4,59.84470323470423
58,Pictures/IA75_G60.bmp,Pictures/IA75_G60.bmp,Pictures/IA75.bmp,"

Make it exciting, take a chance!""""",1,risk,,,,,2.0,0.0,2.0,0.0,0.0,5.0,5.0,17.0,,,,,,,,,,,,,,,,,,,,,,,,,,,,,,,1355.0905698020006,None,1357.1125647079998,1358.6332404119996,1358.6165336780005,None,1360.1372066190006,None,2.0,1362.1424951790004,None,1362.1424951790004,None,1362.1424951790004,None,None,None,None,None,1363.2121351239994,None,1363.2121351239994,None,0,1363.2121351239994,None,1363.5461977690002,1365.2172644369994,None,None,0.877724219000811,0.2960640860001149,,,,,,,,,,,,,102.0,1,18,1,2019_Dec_04_1211,Test,3.2.4,59.84470323470423
59,Pictures/IA25_L15.bmp,Pictures/IA25_L15.bmp,Pictures/IA25.bmp,"

There's not much on the line here, gamble!""""",1,risk,,,,,2.0,0.0,2.0,0.0,0.0,6.0,6.0,5.0,,,,,,,,,,,,,,,,,,,,,,,,,,,,,,,1365.2339730939993,None,1367.2559811549988,1368.7766540399996,1368.7599402309997,None,1370.2806141659994,None,2.0,1372.2859050729994,None,1372.2859050729994,None,1372.2859050729994,None,None,None,None,None,1373.238415068,None,1373.238415068,None,1,1373.238415068,None,None,None,1373.5224904350007,1375.2269829879997,0.7823229899986472,0.2378070869999647,,,,,,,,,,,,,102.0,1,18,1,2019_Dec_04_1211,Test,3.2.4,59.84470323470423
60,Pictures/IA20_10_G95p.bmp,Pictures/IA20_10_G95p.bmp,Pictures/IA20.bmp,"

Take a leap, I think you should gamble.""""",1,risk,,,,,2.0,0.0,2.0,0.0,0.0,7.0,7.0,9.0,,,,,,,,,,,,,,,,,,,,,,,,,,,,,,,1375.2436949230005,None,1377.2824219259992,1378.8030779389999,1378.7863742969994,None,1380.290333369,None,2.0,1382.2956300329997,None,1382.2956300329997,None,1382.2956300329997,None,None,None,None,None,1383.5823510309992,None,1383.5823510309992,None,0,1383.5823510309992,None,1383.8330164789995,1385.5709188259998,None,None,1.1165810499987856,0.20586586900026305,,,,,,,,,,,,,102.0,1,18,1,2019_Dec_04_1211,Test,3.2.4,59.84470323470423
61,Pictures/IA40_20_G95p.bmp,Pictures/IA40_20_G95p.bmp,Pictures/IA40.bmp,"

Hold back, stay with the safe choice.""""",0,safe,,,,,2.0,0.0,2.0,0.0,0.0,8.0,8.0,7.0,,,,,,,,,,,,,,,,,,,,,,,,,,,,,,,1385.5876306349992,None,1387.609626946999,1389.130302348999,1389.1135952840004,None,1390.6342684710007,None,2.0,1392.6395187259996,None,1392.6395187259996,None,1392.6395187259996,None,None,None,None,None,1393.592066279999,None,1393.592066279999,None,0,1393.592066279999,None,1394.2604929979998,1395.5973469669998,None,None,0.7727138729987928,0.6201586960014538,,,,,,,,,,,,,102.0,1,18,1,2019_Dec_04_1211,Test,3.2.4,59.84470323470423
62,Pictures/IA80_40_L95p.bmp,Pictures/IA80_40_L95p.bmp,Pictures/IA80.bmp,"

Let's stay with the certain option.""""",0,safe,,,,,2.0,0.0,2.0,0.0,0.0,9.0,9.0,4.0,,,,,,,,,,,,,,,,,,,,,,,,,,,,,,,1395.6140588919998,None,1397.6527326900004,1399.173446664,1399.1567414699994,None,1400.6439854129994,None,2.0,1402.6659853800004,None,1402.6659853800002,None,1402.6659853800002,None,None,None,None,None,1403.9527080340004,None,1403.9527080340004,None,1,1403.9527080340004,None,None,None,1404.3036345640003,1405.9412947829996,1.114253698999164,0.30751649500052736,,,,,,,,,,,,,102.0,1,18,1,2019_Dec_04_1211,Test,3.2.4,59.84470323470423
63,Pictures/IA50_L30.bmp,Pictures/IA50_L30.bmp,Pictures/IA50.bmp,"

Take a leap, I think you should gamble.""""",1,risk,,,,,2.0,0.0,2.0,0.0,0.0,10.0,10.0,1.0,,,,,,,,,,,,,,,,,,,,,,,,,,,,,,,1405.957992962999,None,1407.9799901840006,1409.5006635969994,1409.4839539359991,None,1411.0213400179991,None,1.0,1413.0099167510007,None,1413.0099167510007,None,1413.0099167510007,None,1414.5472998260002,None,1414.5472998260002,1415.5499457449996,1416.6528522010003,None,1416.6528522010003,None,1,1416.6528522010003,None,None,None,1417.6220754920005,1418.6581388259992,1.4022974639992754,0.9273580049994052,,,,,,,,,,,,,102.0,1,18,1,2019_Dec_04_1211,Test,3.2.4,59.84470323470423
64,Pictures/IA100_L20.bmp,Pictures/IA100_L20.bmp,Pictures/IA100.bmp,"

Try to win as much money as you can, gamble!""""",1,risk,,,,,2.0,0.0,2.0,0.0,0.0,11.0,11.0,16.0,,,,,,,,,,,,,,,,,,,,,,,,,,,,,,,1418.6748431759997,None,1420.696848228,1422.2175187990006,1422.2008071249993,None,1423.738197865,None,2.0,1425.7267701179999,None,1425.7267701179999,None,1425.7267701179999,None,None,None,None,None,1426.7461265810007,None,1426.7461265810007,None,0,1426.7461265810007,None,1427.414546645,1428.7514074910005,None,None,0.8294469989996287,0.6340961629994126,,,,,,,,,,,,,102.0,1,18,1,2019_Dec_04_1211,Test,3.2.4,59.84470323470423
65,Pictures/IA100_L60.bmp,Pictures/IA100_L60.bmp,Pictures/IA100.bmp,"

You'd have a lot to lose, don't gamble.""""",0,safe,,,,,2.0,0.0,2.0,0.0,0.0,12.0,12.0,19.0,,,,,,,,,,,,,,,,,,,,,,,,,,,,,,,1428.7681176670003,None,1430.7901141009995,1432.3107854540006,1432.294078078,None,1433.8314667620007,None,1.0,1435.8200481899994,None,1435.8200481899994,None,1435.8200481899994,None,1437.3072900550005,None,1437.3072900550005,1438.3099360459992,1439.4128426399993,None,1439.4128426399993,None,1,1439.4128426399993,None,None,None,1440.9669424800004,None,1.3441658700012342,1.5113674410004023,,,,,,,,,,,,,102.0,1,18,1,2019_Dec_04_1211,Test,3.2.4,59.84470323470423
66,Pictures/IA25_G20.bmp,Pictures/IA25_G20.bmp,Pictures/IA25.bmp,"

I wouldn't gamble for this one. """"",0,safe,,,,,2.0,0.0,2.0,0.0,0.0,13.0,13.0,3.0,,,,,,,,,,,,,,,,,,,,,,,,,,,,,,,1441.418122737,None,1443.440126302,1444.9607928859994,1444.9440867450005,None,1446.448049574,None,2.0,1448.470047025,None,1448.470047025,None,1448.470047025,None,None,None,None,None,1450.1411166110001,None,1450.1411166110001,None,0,1450.1411166110001,None,1450.976649149,1452.1464011609996,None,None,1.5101827930011495,0.7990892050002003,,,,,,,,,,,,,102.0,1,18,1,2019_Dec_04_1211,Test,3.2.4,59.84470323470423
67,Pictures/IA25_L10.bmp,Pictures/IA25_L10.bmp,Pictures/IA25.bmp,"

Dont be afraid to take the risk!""""",1,risk,,,,,2.0,0.0,2.0,0.0,0.0,14.0,14.0,12.0,,,,,,,,,,,,,,,,,,,,,,,,,,,,,,,1452.1631099310007,None,1454.1851055260004,1455.7057797919995,1455.6890726110003,None,1457.243165085999,None,1.0,1459.2150385239993,None,1459.2150385239993,None,1459.2150385239993,None,1460.652157686999,None,1460.652157686999,1461.654793069999,1462.7577024939992,None,1462.7577024939992,None,1,1462.7577024939992,None,None,None,1463.225562450999,1464.7629920329991,1.3171730409994782,0.4225123279993568,,,,,,,,,,,,,102.0,1,18,1,2019_Dec_04_1211,Test,3.2.4,59.84470323470423
68,Pictures/IA100_G60.bmp,Pictures/IA100_G60.bmp,Pictures/IA100.bmp,"

Be cautious, don't gamble for this one.""""",0,safe,,,,,2.0,0.0,2.0,0.0,0.0,15.0,15.0,0.0,,,,,,,,,,,,,,,,,,,,,,,,,,,,,,,1464.7796951089995,None,1466.801702451,1468.3223665939997,1468.3056605270003,None,1469.8597584629997,None,1.0,1471.8316213900007,None,1471.8316213900007,None,1471.8316213900007,None,1472.6337390939998,None,1472.6337390939998,1473.6363712230004,1474.7392810909996,None,1474.7392810909996,None,0,1474.7392810909996,None,1475.2071917229996,1476.7445695630004,None,None,0.65259708800113,0.4329275359996245,,,,,,,,,,,,,102.0,1,18,1,2019_Dec_04_1211,Test,3.2.4,59.84470323470423
69,Pictures/IA80_40_G95p.bmp,Pictures/IA80_40_G95p.bmp,Pictures/IA80.bmp,"

Think of the payoff, gamble!""""",1,risk,,,,,2.0,0.0,2.0,0.0,0.0,16.0,16.0,14.0,,,,,,,,,,,,,,,,,,,,,,,,,,,,,,,1476.7612738279995,None,1478.7832759620005,1480.303943201,1480.2872368020007,None,1481.8580425209993,None,2.0,1483.8131991180007,None,1483.8131991180007,None,1483.8131991180007,None,None,None,None,None,1485.5511103380004,None,1485.5511103380004,None,0,1485.5511103380004,None,1487.0717820649998,None,None,None,1.5670127770008548,1.4771111959998962,,,,,,,,,,,,,102.0,1,18,1,2019_Dec_04_1211,Test,3.2.4,59.84470323470423
70,Pictures/IA25_G5.bmp,Pictures/IA25_G5.bmp,Pictures/IA25.bmp,"

Let's stay with the certain option.""""",0,safe,,,,,2.0,0.0,2.0,0.0,0.0,17.0,17.0,8.0,,,,,,,,,,,,,,,,,,,,,,,,,,,,,,,1487.5563820809994,None,1489.5783942120006,1491.0990622639993,1491.0823544909993,None,1492.603028765,None,2.0,1494.6083197260004,None,1494.6083197260004,None,1494.6083197260004,None,None,None,None,None,1496.396359587,None,1496.396359587,None,1,1496.396359587,None,None,None,1496.814124903999,1498.3849314230001,1.6198986669987792,0.3838582000007591,,,,,,,,,,,,,102.0,1,18,1,2019_Dec_04_1211,Test,3.2.4,59.84470323470423
71,Pictures/IA50_G30.bmp,Pictures/IA50_G30.bmp,Pictures/IA50.bmp,"

I think you should gamble.""""",1,risk,,,,,2.0,0.0,2.0,0.0,0.0,18.0,18.0,2.0,,,,,,,,,,,,,,,,,,,,,,,,,,,,,,,1498.401641592999,None,1500.4236440310005,1501.9443108099995,1501.927611787999,None,1503.448279452,None,1.0,1505.453570671999,None,1505.453570671999,None,1505.453570671999,None,1506.3224893710003,None,1506.3224893710003,1507.3251591050002,1508.4280713159997,None,1508.4280713159997,None,1,1508.4280713159997,None,None,None,1509.430709587,None,0.7586498729997402,0.9681409410004562,,,,,,,,,,,,,102.0,1,18,1,2019_Dec_04_1211,Test,3.2.4,59.84470323470423
72,Pictures/IA110_55_L95p.bmp,Pictures/IA110_55_L95p.bmp,Pictures/IA110.bmp,"

Trust me, gamble!""""",1,risk,,,,,2.0,0.0,2.0,0.0,0.0,19.0,19.0,13.0,,,,,,,,,,,,,,,,,,,,,,,,,,,,,,,1510.450061781,None,1512.4720738610004,1513.99273972,1513.9760283650003,None,1515.5301256159992,None,2.0,1517.5019865660006,None,1517.5019865660006,None,1517.5019865660006,None,None,None,None,None,1518.387650620999,None,1518.387650620999,None,1,1518.387650620999,None,None,None,1518.7887060469993,1520.392938725,0.7342283870002575,0.36055705299986585,,,,,,,,,,,,,102.0,1,18,1,2019_Dec_04_1211,Test,3.2.4,59.84470323470423
74,Pictures/IA75_L45.bmp,Pictures/IA75_L45.bmp,Pictures/IA75.bmp,"

Don't gamble for this one, play it safe.""""",0,safe,,,,,3.0,0.0,3.0,0.0,0.0,0.0,0.0,9.0,,,,,,,,,,,,,1526.3252505869996,None,1526.3252505869996,None,1526.3252505869996,None,0,1.9909599099992192,1526.3252505869996,None,1526.3252505869996,None,1526.3252505869996,None,return,3.1987291299992653,1526.3252505869996,None,1529.5838248190003,None,1531.589110336,1533.109784661,1533.0930805849994,None,1534.6304677319995,None,1.0,1536.6023250480002,None,1536.6023250480002,None,1536.6023250480002,None,1537.3375972719996,None,1537.3375972719996,1538.3402474709992,1539.4431599699992,None,1539.4431599699992,None,0,1539.4431599699992,None,1540.863553451999,None,None,None,0.5858990479991917,1.3850520529995265,,,,,,,,,,,,,102.0,1,18,1,2019_Dec_04_1211,Test,3.2.4,59.84470323470423
75,Pictures/IA40_20_G95p.bmp,Pictures/IA40_20_G95p.bmp,Pictures/IA40.bmp,"

Hold back, stay with the safe choice.""""",0,safe,,,,,3.0,0.0,3.0,0.0,0.0,1.0,1.0,7.0,,,,,,,,,,,,,,,,,,,,,,,,,,,,,,,1541.4484265279998,None,1543.470424667,1544.9910953509998,1544.9743956640004,None,1546.4950613360006,None,2.0,1548.5003503639991,None,1548.5003503639991,None,1548.5003503639991,None,None,None,None,None,1549.3191735400005,None,1549.3191735400005,None,0,1549.3191735400005,None,1549.753648371,1551.3244548039993,None,None,0.6398708070009889,0.3890410340009112,,,,,,,,,,,,,102.0,1,18,1,2019_Dec_04_1211,Test,3.2.4,59.84470323470423
76,Pictures/IA50_L30.bmp,Pictures/IA50_L30.bmp,Pictures/IA50.bmp,"

Take a leap, I think you should gamble.""""",1,risk,,,,,3.0,0.0,3.0,0.0,0.0,2.0,2.0,13.0,,,,,,,,,,,,,,,,,,,,,,,,,,,,,,,1551.3411712400002,None,1553.3631941079993,1554.8838365109993,1554.8671341670006,None,1556.3710973730003,None,1.0,1558.3930966020007,None,1558.3930966020007,None,1558.3930966020007,None,1559.5294206659992,None,1559.5294206659992,1560.532061551,1561.6516787560004,None,1561.6516787560004,None,1,1561.6516787560004,None,None,None,1562.136319488999,1563.640253315999,0.995116809999672,0.4405481989997497,,,,,,,,,,,,,102.0,1,18,1,2019_Dec_04_1211,Test,3.2.4,59.84470323470423
77,Pictures/IA75_L30.bmp,Pictures/IA75_L30.bmp,Pictures/IA75.bmp,"

Hold back, stay with the safe choice.""""",0,safe,,,,,3.0,0.0,3.0,0.0,0.0,3.0,3.0,4.0,,,,,,,,,,,,,,,,,,,,,,,,,,,,,,,1563.6569578890003,None,1565.6789532510004,1567.1996272820004,1567.182920975999,None,1568.7370170549993,None,2.0,1570.7088857259996,None,1570.7088857259996,None,1570.7088857259996,None,None,None,None,None,1571.6112586669997,None,1571.6112586669997,None,1,1571.6112586669997,None,None,None,1571.978890776999,1573.5998339829994,0.7273337810001976,0.3289733919991704,,,,,,,,,,,,,102.0,1,18,1,2019_Dec_04_1211,Test,3.2.4,59.84470323470423
78,Pictures/IA25_G5.bmp,Pictures/IA25_G5.bmp,Pictures/IA25.bmp,"

Let's stay with the certain option.""""",0,safe,,,,,3.0,0.0,3.0,0.0,0.0,4.0,4.0,3.0,,,,,,,,,,,,,,,,,,,,,,,,,,,,,,,1573.6165389259995,None,1575.6385420300003,1577.1592231860004,1577.1425020739996,None,1578.6631826490002,None,1.0,1580.6684801639997,None,1580.6684801639994,None,1580.6684801639994,None,1582.1891391609997,None,1582.1891391609997,1583.1918240189998,1584.3113968749994,None,1584.3113968749994,None,0,1584.3113968749994,None,1584.829437170999,1586.2999670220006,None,None,1.3837327410001308,0.4688167839995003,,,,,,,,,,,,,102.0,1,18,1,2019_Dec_04_1211,Test,3.2.4,59.84470323470423
79,Pictures/IA100_L40.bmp,Pictures/IA100_L40.bmp,Pictures/IA100.bmp,"

Think of the payoff, gamble!""""",1,risk,,,,,3.0,0.0,3.0,0.0,0.0,5.0,5.0,12.0,,,,,,,,,,,,,,,,,,,,,,,,,,,,,,,1586.3166793859991,None,1588.3553907020005,1589.8593490129995,1589.842643178,None,1591.380022708,None,1.0,1593.368601064999,None,1593.368601064999,None,1593.368601064999,None,1594.3211127469995,None,1594.3211127469995,1595.3237609840007,1596.4433710570001,None,1596.4433710570001,None,1,1596.4433710570001,None,None,None,1596.861141556,1598.4319444149996,0.8276360350009782,0.3768552609999461,,,,,,,,,,,,,102.0,1,18,1,2019_Dec_04_1211,Test,3.2.4,59.84470323470423
80,Pictures/IA75_L60.bmp,Pictures/IA75_L60.bmp,Pictures/IA75.bmp,"

Why not take the gamble?""""",1,risk,,,,,3.0,0.0,3.0,0.0,0.0,6.0,6.0,10.0,,,,,,,,,,,,,,,,,,,,,,,,,,,,,,,1598.448653254999,None,1600.470657040999,1601.9913269630006,1601.9746227349995,None,1603.5287174739997,None,1.0,1605.5005777840006,None,1605.5005777840006,None,1605.5005777840006,None,1605.9183434840006,None,1605.9183434840006,1606.9209831710004,1608.0238951359997,None,1608.0238951359997,None,1,1608.0238951359997,None,None,None,1608.6923300930002,1610.0291742519994,0.31163980099881883,0.6283343589984725,,,,,,,,,,,,,102.0,1,18,1,2019_Dec_04_1211,Test,3.2.4,59.84470323470423
81,Pictures/IA25_G15.bmp,Pictures/IA25_G15.bmp,Pictures/IA25.bmp,"

I think you should take a gamble.""""",1,risk,,,,,3.0,0.0,3.0,0.0,0.0,7.0,7.0,2.0,,,,,,,,,,,,,,,,,,,,,,,,,,,,,,,1610.0458859599994,None,1612.0678821810006,1613.5885569129996,1613.571864057999,None,1615.1092429480004,None,1.0,1617.0978081519995,None,1617.0978081519997,None,1617.0978081519997,None,1618.0837416200002,None,1618.0837416200002,1619.0863765299991,1620.189290407,None,1620.189290407,None,1,1620.189290407,None,None,None,1620.5235057700002,1622.194577452,0.8584243610002886,0.2949136940005701,,,,,,,,,,,,,102.0,1,18,1,2019_Dec_04_1211,Test,3.2.4,59.84470323470423
82,Pictures/IA25_L10.bmp,Pictures/IA25_L10.bmp,Pictures/IA25.bmp,"

Dont be afraid to take the risk!""""",1,risk,,,,,3.0,0.0,3.0,0.0,0.0,8.0,8.0,5.0,,,,,,,,,,,,,,,,,,,,,,,,,,,,,,,1622.211281245999,None,1624.2332789170005,1625.7539519049994,1625.7372447019998,None,1627.274627591999,None,2.0,1629.2632111869998,None,1629.2632111869998,None,1629.2632111869998,None,None,None,None,None,1630.7337473540001,None,1630.7337473540001,None,1,1630.7337473540001,None,None,None,1631.5692799050003,1632.7390264800006,1.316997492000155,0.7984706770002958,,,,,,,,,,,,,102.0,1,18,1,2019_Dec_04_1211,Test,3.2.4,59.84470323470423
83,Pictures/IA80_40_L95p.bmp,Pictures/IA80_40_L95p.bmp,Pictures/IA80.bmp,"

Let's stay with the certain option.""""",0,safe,,,,,3.0,0.0,3.0,0.0,0.0,9.0,9.0,15.0,,,,,,,,,,,,,,,,,,,,,,,,,,,,,,,1632.7557478379995,None,1634.8111640109992,1636.3151263989996,1636.2984133399993,None,1637.852505726999,None,2.0,1639.8076666989994,None,1639.8076666989991,None,1639.8076666989991,None,None,None,None,None,1640.9105683009993,None,1640.9105683009993,None,1,1640.9105683009993,None,None,None,1641.2615035850004,1642.8991428649997,0.9245508029998746,0.301648007998665,,,,,,,,,,,,,102.0,1,18,1,2019_Dec_04_1211,Test,3.2.4,59.84470323470423
84,Pictures/IA100_G40.bmp,Pictures/IA100_G40.bmp,Pictures/IA100.bmp,"

Try your luck and gamble!""""",1,risk,,,,,3.0,0.0,3.0,0.0,0.0,10.0,10.0,18.0,,,,,,,,,,,,,,,,,,,,,,,,,,,,,,,1642.9158561720005,None,1644.9378538669998,1646.458523508999,1646.44182053,None,1647.9959066910005,None,1.0,1649.967779873,None,1649.967779873,None,1649.967779873,None,1650.5192357099995,None,1650.5192357099995,1651.5218642829996,1652.6247774890007,None,1652.6247774890007,None,None,1652.6247774890007,None,None,None,None,None,0.43643180599974585,,,,,,,,,,,,,,102.0,1,18,1,2019_Dec_04_1211,Test,3.2.4,59.84470323470423
85,Pictures/IA50_G40.bmp,Pictures/IA50_G40.bmp,Pictures/IA50.bmp,"

It would probably be best to play it safe.""""",0,safe,,,,,3.0,0.0,3.0,0.0,0.0,11.0,11.0,14.0,,,,,,,,,,,,,,,,,,,,,,,,,,,,,,,1654.6300589339999,None,1656.652059862,1658.1727286579999,1658.156019129,None,1659.710115727,None,2.0,1661.6819855669992,None,1661.6819855669992,None,1661.6819855669992,None,None,None,None,None,1662.3504154470002,None,1662.3504154470002,None,0,1662.3504154470002,None,1662.6344977729996,1664.3389773989993,None,None,0.4742289079986222,0.237794742000915,,,,,,,,,,,,,102.0,1,18,1,2019_Dec_04_1211,Test,3.2.4,59.84470323470423
86,Pictures/IA50_L20.bmp,Pictures/IA50_L20.bmp,Pictures/IA50.bmp,"

Certainty is boring, take a risk!""""",1,risk,,,,,3.0,0.0,3.0,0.0,0.0,12.0,12.0,6.0,,,,,,,,,,,,,,,,,,,,,,,,,,,,,,,1664.3556905619998,None,1666.3776879900006,1667.8983682980004,1667.8816574170005,None,1669.4691824409992,None,1.0,1671.4076483620001,None,1671.4076483620001,None,1671.4076483620001,None,1672.2766047239993,None,1672.2766047239993,1673.2792268820003,1674.4155423000002,None,1674.4155423000002,None,1,1674.4155423000002,None,None,None,1675.1341760490004,1676.4208761159998,0.7485653710009501,0.6686667610010772,,,,,,,,,,,,,102.0,1,18,1,2019_Dec_04_1211,Test,3.2.4,59.84470323470423
87,Pictures/IA20_10_G95p.bmp,Pictures/IA20_10_G95p.bmp,Pictures/IA20.bmp,"

Take a leap, I think you should gamble.""""",1,risk,,,,,3.0,0.0,3.0,0.0,0.0,13.0,13.0,1.0,,,,,,,,,,,,,,,,,,,,,,,,,,,,,,,1676.43761009,None,1678.4762860839994,1679.9802049799994,1679.9635152559995,None,1681.517592887999,None,2.0,1683.4894591059992,None,1683.4894591059992,None,1683.4894591059992,None,None,None,None,None,1684.1411755010004,None,1684.1411755010004,None,0,1684.1411755010004,None,1684.5422375829994,1686.129747393,None,None,0.4827707430013106,0.3670284939998965,,,,,,,,,,,,,102.0,1,18,1,2019_Dec_04_1211,Test,3.2.4,59.84470323470423
88,Pictures/IA100_G20.bmp,Pictures/IA100_G20.bmp,Pictures/IA100.bmp,"

Go ahead and gamble!""""",1,risk,,,,,3.0,0.0,3.0,0.0,0.0,14.0,14.0,16.0,,,,,,,,,,,,,,,,,,,,,,,,,,,,,,,1686.1464569150003,None,1688.168459829999,1689.6891295630005,1689.6724304499994,None,1691.226514178,None,2.0,1693.198384061,None,1693.198384061,None,1693.198384061,None,None,None,None,None,1694.9697219719992,None,1694.9697219719992,None,0,1694.9697219719992,None,1695.3540584640004,1696.958285918,None,None,1.6138480819990946,0.3464955750005174,,,,,,,,,,,,,102.0,1,18,1,2019_Dec_04_1211,Test,3.2.4,59.84470323470423
89,Pictures/IA50_L40.bmp,Pictures/IA50_L40.bmp,Pictures/IA50.bmp,"

That gamble doesn't sound too good, play it safe.""""",0,safe,,,,,3.0,0.0,3.0,0.0,0.0,15.0,15.0,8.0,,,,,,,,,,,,,,,,,,,,,,,,,,,,,,,1696.9750157019998,None,1698.9969944899995,1700.5176697929992,1700.50096656,None,1702.0550552729992,None,2.0,1704.0269236409995,None,1704.0269236409995,None,1704.0269236409995,None,None,None,None,None,1705.062983928,None,1705.062983928,None,1,1705.062983928,None,None,None,1706.299577154,None,0.8493010109996249,1.1972317869986,,,,,,,,,,,,,102.0,1,18,1,2019_Dec_04_1211,Test,3.2.4,59.84470323470423
90,Pictures/IA100_G80.bmp,Pictures/IA100_G80.bmp,Pictures/IA100.bmp,"

Why not gamble?""""",1,risk,,,,,3.0,0.0,3.0,0.0,0.0,16.0,16.0,0.0,,,,,,,,,,,,,,,,,,,,,,,,,,,,,,,1707.0849786339995,None,1709.1069739549994,1710.6276531680005,1710.61093996,None,1712.1817487510007,None,2.0,1714.1369069420007,None,1714.1369069420007,None,1714.1369069420007,None,None,None,None,None,1715.8246899840005,None,1715.8246899840005,None,0,1715.8246899840005,None,1717.0612728059996,None,None,None,1.5233182829997531,1.1875195409993466,,,,,,,,,,,,,102.0,1,18,1,2019_Dec_04_1211,Test,3.2.4,59.84470323470423
91,Pictures/IA75_G30.bmp,Pictures/IA75_G30.bmp,Pictures/IA75.bmp,"

Be bold, gamble!""""",1,risk,,,,,3.0,0.0,3.0,0.0,0.0,17.0,17.0,11.0,,,,,,,,,,,,,,,,,,,,,,,,,,,,,,,1717.8466770570003,None,1719.8686752229996,1721.3893513510004,1721.3726412639999,None,1722.9267443029994,None,1.0,1724.8986007169997,None,1724.8986007169997,None,1724.8986007169997,None,1726.101770586999,None,1726.101770586999,1727.1044097660006,1728.2073214019993,None,1728.2073214019993,None,1,1728.2073214019993,None,None,None,1728.625089234999,1730.1959045390004,1.1056352549985604,0.38088137799968536,,,,,,,,,,,,,102.0,1,18,1,2019_Dec_04_1211,Test,3.2.4,59.84470323470423
92,Pictures/IA40_20_L95p.bmp,Pictures/IA40_20_L95p.bmp,Pictures/IA40.bmp,"

Trust me, gamble!""""",1,risk,,,,,3.0,0.0,3.0,0.0,0.0,18.0,18.0,19.0,,,,,,,,,,,,,,,,,,,,,,,,,,,,,,,1730.2126036050004,None,1732.2345996209995,1733.7552730729997,1733.7385675689993,None,1735.2926596410007,None,2.0,1737.2645315609998,None,1737.2645315609998,None,1737.2645315609998,None,None,None,None,None,1738.1000688329996,None,1738.1000688329996,None,1,1738.1000688329996,None,None,None,1738.3674295869996,1740.1053445280004,0.6836973810004565,0.2321401909994165,,,,,,,,,,,,,102.0,1,18,1,2019_Dec_04_1211,Test,3.2.4,59.84470323470423
93,Pictures/IA80_40_G95p.bmp,Pictures/IA80_40_G95p.bmp,Pictures/IA80.bmp,"

Think of the payoff, gamble!""""",1,risk,,,,,3.0,0.0,3.0,0.0,0.0,19.0,19.0,17.0,,,,,,,,,,,,,,,,,,,,,,,,,,,,,,,1740.122053393,None,1742.144052029001,1743.6647259440006,1743.6480280309997,None,1745.185408151,None,2.0,1747.1739795799995,None,1747.1739795799995,None,1747.1739795799995,None,None,None,None,None,1747.8257031179992,None,1747.8257031179992,None,0,1747.8257031179992,None,1748.109779943,1749.8142727879995,None,None,0.4542407290009578,0.2504980399990018,,,,,,,,,,,,,102.0,1,18,1,2019_Dec_04_1211,Test,3.2.4,59.84470323470423
95,Pictures/IA80_40_L95p.bmp,Pictures/IA80_40_L95p.bmp,Pictures/IA80.bmp,"

Let's stay with the certain option.""""",0,safe,,,,,4.0,0.0,4.0,0.0,0.0,0.0,0.0,18.0,,,,,,,,,,,,,1752.8389079889996,None,1752.8389079889994,None,1752.8389079889994,None,0,1.44530073200076,1752.8389079889996,None,1752.8389079889994,None,1752.8389079889994,None,return,2.5490856369997346,1752.8389079889996,None,1755.4457859179993,None,1757.4343559550007,1758.9550274849996,1758.9383252899993,None,1760.4422821199996,None,2.0,1762.4642869629995,None,1762.4642869629997,None,1762.4642869629997,None,None,None,None,None,1762.9990208789995,None,1762.9990208789995,None,1,1762.9990208789995,None,None,None,1763.3165222519992,1764.9875977719994,0.3399332429999049,0.27719122000053176,,,,,,,,,,,,,102.0,1,18,1,2019_Dec_04_1211,Test,3.2.4,59.84470323470423
96,Pictures/IA20_10_L95p.bmp,Pictures/IA20_10_L95p.bmp,Pictures/IA20.bmp,"

Don't be tempted to gamble.""""",0,safe,,,,,4.0,0.0,4.0,0.0,0.0,1.0,1.0,0.0,,,,,,,,,,,,,,,,,,,,,,,,,,,,,,,1765.00430951,None,1767.0263000789992,1768.546976418001,1768.5302674639997,None,1770.0843592419997,None,2.0,1772.0562345440005,None,1772.0562345440003,None,1772.0562345440003,None,None,None,None,None,1772.6577798089993,None,1772.6577798089993,None,1,1772.6577798089993,None,None,None,1773.025446736,1774.6630983339992,0.4439887780008576,0.3304485110002133,,,,,,,,,,,,,102.0,1,18,1,2019_Dec_04_1211,Test,3.2.4,59.84470323470423
97,Pictures/IA80_40_G95p.bmp,Pictures/IA80_40_G95p.bmp,Pictures/IA80.bmp,"

Think of the payoff, gamble!""""",1,risk,,,,,4.0,0.0,4.0,0.0,0.0,2.0,2.0,19.0,,,,,,,,,,,,,,,,,,,,,,,,,,,,,,,1774.6798066620004,None,1776.7018112529995,1778.2057667729996,1778.189067241,None,1779.7097336859997,None,2.0,1781.7317313489993,None,1781.7317313489993,None,1781.7317313489993,None,None,None,None,None,1782.4335850729994,None,1782.4335850729994,None,0,1782.4335850729994,None,1783.6367515850006,None,None,None,0.5124790030004078,1.1546196899998904,,,,,,,,,,,,,102.0,1,18,1,2019_Dec_04_1211,Test,3.2.4,59.84470323470423
98,Pictures/IA110_55_L95p.bmp,Pictures/IA110_55_L95p.bmp,Pictures/IA110.bmp,"

Trust me, gamble!""""",1,risk,,,,,4.0,0.0,4.0,0.0,0.0,3.0,3.0,14.0,,,,,,,,,,,,,,,,,,,,,,,,,,,,,,,1784.4555763859998,None,1786.5109983209995,1788.0149557319992,1787.998248625,None,1789.5189200199993,None,2.0,1791.5074943640002,None,1791.5074943640002,None,1791.5074943640002,None,None,None,None,None,1793.529493817,None,1793.529493817,None,1,1793.529493817,None,None,None,1794.0642324459996,1795.5347751769996,1.8487224729997247,0.4987248580000596,,,,,,,,,,,,,102.0,1,18,1,2019_Dec_04_1211,Test,3.2.4,59.84470323470423
99,Pictures/IA75_L30.bmp,Pictures/IA75_L30.bmp,Pictures/IA75.bmp,"

Hold back, stay with the safe choice.""""",0,safe,,,,,4.0,0.0,4.0,0.0,0.0,4.0,4.0,9.0,,,,,,,,,,,,,,,,,,,,,,,,,,,,,,,1795.5514880380006,None,1797.5734839450006,1799.0941590230004,1799.0774510500005,None,1800.581413896999,None,2.0,1802.603417457999,None,1802.603417457999,None,1802.603417457999,None,None,None,None,None,1804.0238216360003,None,1804.0238216360003,None,0,1804.0238216360003,None,1804.3413219639997,1806.0123891169997,None,None,1.2088014939999994,0.268393794000076,,,,,,,,,,,,,102.0,1,18,1,2019_Dec_04_1211,Test,3.2.4,59.84470323470423
100,Pictures/IA25_G5.bmp,Pictures/IA25_G5.bmp,Pictures/IA25.bmp,"

Let's stay with the certain option.""""",0,safe,,,,,4.0,0.0,4.0,0.0,0.0,5.0,5.0,4.0,,,,,,,,,,,,,,,,,,,,,,,,,,,,,,,1806.029103550999,None,1808.0511011629997,1809.5717741849994,1809.5550680629997,None,1811.0757413889996,None,2.0,1813.0810348509995,None,1813.0810348509995,None,1813.0810348509995,None,None,None,None,None,1813.9834077160003,None,1813.9834077160003,None,1,1813.9834077160003,None,None,None,1814.752105658,1815.9886971490005,0.6991804989993398,0.7248007670004881,,,,,,,,,,,,,102.0,1,18,1,2019_Dec_04_1211,Test,3.2.4,59.84470323470423
101,Pictures/IA25_G20.bmp,Pictures/IA25_G20.bmp,Pictures/IA25.bmp,"

I wouldn't gamble for this one. """"",0,safe,,,,,4.0,0.0,4.0,0.0,0.0,6.0,6.0,16.0,,,,,,,,,,,,,,,,,,,,,,,,,,,,,,,1816.0054002539991,None,1818.0274006520003,1819.548075872,1819.5313620780007,None,1821.085457582999,None,2.0,1823.0573313430004,None,1823.0573313430004,None,1823.0573313430004,None,None,None,None,None,1824.1769410770003,None,1824.1769410770003,None,0,1824.1769410770003,None,1824.5278680740003,1826.1822263799995,None,None,0.9468929440008652,0.3152629149990389,,,,,,,,,,,,,102.0,1,18,1,2019_Dec_04_1211,Test,3.2.4,59.84470323470423
102,Pictures/IA50_G10.bmp,Pictures/IA50_G10.bmp,Pictures/IA50.bmp,"

Go with the safe option here!""""",0,safe,,,,,4.0,0.0,4.0,0.0,0.0,7.0,7.0,13.0,,,,,,,,,,,,,,,,,,,,,,,,,,,,,,,1826.1989316869995,None,1828.220932149,1829.741615354001,1829.7248983220006,None,1831.278998331999,None,1.0,1833.2508586609995,None,1833.2508586609993,None,1833.2508586609993,None,1834.3370650780007,None,1834.3370650780007,1835.3397202219994,1836.4593160729992,None,1836.4593160729992,None,0,1836.4593160729992,None,1837.261428339999,1838.4646003209991,None,None,0.9533614229985689,0.7528882030001114,,,,,,,,,,,,,102.0,1,18,1,2019_Dec_04_1211,Test,3.2.4,59.84470323470423
103,Pictures/IA50_L20.bmp,Pictures/IA50_L20.bmp,Pictures/IA50.bmp,"

Certainty is boring, take a risk!""""",1,risk,,,,,4.0,0.0,4.0,0.0,0.0,8.0,8.0,15.0,,,,,,,,,,,,,,,,,,,,,,,,,,,,,,,1838.481306654,None,1840.503310034,1842.0239793119988,1842.0072725340005,None,1843.511235002,None,2.0,1845.5332347640006,None,1845.5332347640006,None,1845.5332347640006,None,None,None,None,None,1846.4189088600006,None,1846.4189088600006,None,0,1846.4189088600006,None,1847.1708786970003,1848.4074705039993,None,None,0.7109844910009997,0.7132997530006833,,,,,,,,,,,,,102.0,1,18,1,2019_Dec_04_1211,Test,3.2.4,59.84470323470423
104,Pictures/IA25_L15.bmp,Pictures/IA25_L15.bmp,Pictures/IA25.bmp,"

There's not much on the line here, gamble!""""",1,risk,,,,,4.0,0.0,4.0,0.0,0.0,9.0,9.0,7.0,,,,,,,,,,,,,,,,,,,,,,,,,,,,,,,1848.4241818229993,None,1850.446180765,1851.96685457,1851.9501567010002,None,1853.5042413239998,None,1.0,1855.4761099689995,None,1855.4761099689995,None,1855.4761099689995,None,1856.6123964209992,None,1856.6123964209992,1857.6150746619996,1858.7179914239996,None,1858.7179914239996,None,1,1858.7179914239996,None,None,None,1859.6704934609998,1860.706556663,1.000114250999104,0.918223107999438,,,,,,,,,,,,,102.0,1,18,1,2019_Dec_04_1211,Test,3.2.4,59.84470323470423
105,Pictures/IA40_20_L95p.bmp,Pictures/IA40_20_L95p.bmp,Pictures/IA40.bmp,"

Trust me, gamble!""""",1,risk,,,,,4.0,0.0,4.0,0.0,0.0,10.0,10.0,3.0,,,,,,,,,,,,,,,,,,,,,,,,,,,,,,,1860.7232659640003,None,1862.7452671160002,1864.2659592049995,1864.249233567999,None,1865.753194763999,None,2.0,1867.7751974869998,None,1867.7751974869998,None,1867.7751974869998,None,None,None,None,None,1868.3934941340003,None,1868.3934941340003,None,1,1868.3934941340003,None,None,None,1868.6441471659991,1870.3820585679996,0.4530154540007061,0.20272171100077685,,,,,,,,,,,,,102.0,1,18,1,2019_Dec_04_1211,Test,3.2.4,59.84470323470423
106,Pictures/IA100_G20.bmp,Pictures/IA100_G20.bmp,Pictures/IA100.bmp,"

Go ahead and gamble!""""",1,risk,,,,,4.0,0.0,4.0,0.0,0.0,11.0,11.0,5.0,,,,,,,,,,,,,,,,,,,,,,,,,,,,,,,1870.3987709940002,None,1872.4207673270002,1873.9414496500005,1873.9247404629998,None,1875.4287010159996,None,2.0,1877.4507038500005,None,1877.4507038500005,None,1877.4507038500005,None,None,None,None,None,1878.6371616789993,None,1878.6371616789993,None,0,1878.6371616789993,None,1878.9045246039996,1880.6424386949993,None,None,1.0335145970002486,0.22305479799979366,,,,,,,,,,,,,102.0,1,18,1,2019_Dec_04_1211,Test,3.2.4,59.84470323470423
107,Pictures/IA25_L20.bmp,Pictures/IA25_L20.bmp,Pictures/IA25.bmp,"

Don't be tempted to gamble.""""",0,safe,,,,,4.0,0.0,4.0,0.0,0.0,12.0,12.0,11.0,,,,,,,,,,,,,,,,,,,,,,,,,,,,,,,1880.6591534360005,None,1882.681147974,1884.201825277999,1884.185117077,None,1885.7392063809993,None,2.0,1887.71107495,None,1887.7110749499998,None,1887.7110749499998,None,None,None,None,None,1890.1174144730003,None,1890.1174144730003,None,1,1890.1174144730003,None,None,None,1890.5017633060006,1892.106000625,2.2371516209987017,0.3507966420002049,,,,,,,,,,,,,102.0,1,18,1,2019_Dec_04_1211,Test,3.2.4,59.84470323470423
108,Pictures/IA50_L40.bmp,Pictures/IA50_L40.bmp,Pictures/IA50.bmp,"

That gamble doesn't sound too good, play it safe.""""",0,safe,,,,,4.0,0.0,4.0,0.0,0.0,13.0,13.0,17.0,,,,,,,,,,,,,,,,,,,,,,,,,,,,,,,1892.1226972609993,None,1894.1446973600007,1895.665370816,1895.6486656379993,None,1897.152630526999,None,2.0,1899.1746261039998,None,1899.1746261039998,None,1899.1746261039998,None,None,None,None,None,1900.3777954469997,None,1900.3777954469997,None,1,1900.3777954469997,None,None,None,1900.8457082739997,1902.3830865989994,1.0295888249984273,0.4264303790005215,,,,,,,,,,,,,102.0,1,18,1,2019_Dec_04_1211,Test,3.2.4,59.84470323470423
109,Pictures/IA100_L20.bmp,Pictures/IA100_L20.bmp,Pictures/IA100.bmp,"

Try to win as much money as you can, gamble!""""",1,risk,,,,,4.0,0.0,4.0,0.0,0.0,14.0,14.0,10.0,,,,,,,,,,,,,,,,,,,,,,,,,,,,,,,1902.3997867999997,None,1904.4217850329999,1905.942461608999,1905.925753294,None,1907.479846928999,None,1.0,1909.4517127360004,None,1909.4517127360004,None,1909.4517127360004,None,1909.9530345440007,None,1909.9530345440007,1910.9556723750002,1912.0752960540003,None,1912.0752960540003,None,1,1912.0752960540003,None,None,None,1913.4455702759997,None,0.3605040750007902,1.3369170239984671,,,,,,,,,,,,,102.0,1,18,1,2019_Dec_04_1211,Test,3.2.4,59.84470323470423
110,Pictures/IA100_L60.bmp,Pictures/IA100_L60.bmp,Pictures/IA100.bmp,"

You'd have a lot to lose, don't gamble.""""",0,safe,,,,,4.0,0.0,4.0,0.0,0.0,15.0,15.0,8.0,,,,,,,,,,,,,,,,,,,,,,,,,,,,,,,1914.0972860859993,None,1916.1192856589998,1917.639963491999,1917.6232515809997,None,1919.1773458479993,None,2.0,1921.1492149649994,None,1921.1492149649994,None,1921.1492149649994,None,None,None,None,None,1922.2521195100007,None,1922.2521195100007,None,0,1922.2521195100007,None,1923.304892014,None,None,None,0.9350047660009296,1.0161039140002686,,,,,,,,,,,,,102.0,1,18,1,2019_Dec_04_1211,Test,3.2.4,59.84470323470423
111,Pictures/IA75_G30.bmp,Pictures/IA75_G30.bmp,Pictures/IA75.bmp,"

Be bold, gamble!""""",1,risk,,,,,4.0,0.0,4.0,0.0,0.0,16.0,16.0,6.0,,,,,,,,,,,,,,,,,,,,,,,,,,,,,,,1924.257416218,None,1926.2794019389996,1927.8000737710001,1927.783369017,None,1929.3207513850002,None,2.0,1931.309333524,None,1931.309333524,None,1931.309333524,None,None,None,None,None,1932.345396575999,None,1932.345396575999,None,0,1932.345396575999,None,1932.8968504110007,1934.3339699229991,None,None,0.8788847759988129,0.5148124110000936,,,,,,,,,,,,,102.0,1,18,1,2019_Dec_04_1211,Test,3.2.4,59.84470323470423
112,Pictures/IA110_55_G95p.bmp,Pictures/IA110_55_G95p.bmp,Pictures/IA110.bmp,"

Take a chance!""""",1,risk,,,,,4.0,0.0,4.0,0.0,0.0,17.0,17.0,12.0,,,,,,,,,,,,,,,,,,,,,,,,,,,,,,,1934.3506812959995,None,1936.3893878419995,1937.893342987999,1937.8766392219995,None,1939.4307328509994,None,2.0,1941.402605561,None,1941.4026055610002,None,1941.4026055610002,None,None,None,None,None,1942.8731485140006,None,1942.8731485140006,None,0,1942.8731485140006,None,1943.157225464999,1944.861716851,None,None,1.3056055300003209,0.2350686070003576,,,,,,,,,,,,,102.0,1,18,1,2019_Dec_04_1211,Test,3.2.4,59.84470323470423
113,Pictures/IA100_G80.bmp,Pictures/IA100_G80.bmp,Pictures/IA100.bmp,"

Why not gamble?""""",1,risk,,,,,4.0,0.0,4.0,0.0,0.0,18.0,18.0,1.0,,,,,,,,,,,,,,,,,,,,,,,,,,,,,,,1944.8784305039999,None,1946.9004223479997,1948.4210952780004,1948.4043918479992,None,1949.9083609279996,None,2.0,1951.9303520780004,None,1951.9303520780004,None,1951.9303520780004,None,None,None,None,None,1952.7658905679991,None,1952.7658905679991,None,0,1952.7658905679991,None,1952.9831268120006,1954.7544562569992,None,None,0.6738682960003644,0.18231654800001704,,,,,,,,,,,,,102.0,1,18,1,2019_Dec_04_1211,Test,3.2.4,59.84470323470423
114,Pictures/IA50_G30.bmp,Pictures/IA50_G30.bmp,Pictures/IA50.bmp,"

I think you should gamble.""""",1,risk,,,,,4.0,0.0,4.0,0.0,0.0,19.0,19.0,2.0,,,,,,,,,,,,,,,,,,,,,,,,,,,,,,,1954.7711648739996,None,1956.7931712439995,1958.313836991,1958.297131961,None,1959.8512348859995,None,1.0,1961.8231090630009,None,1961.8231090630006,None,1961.8231090630006,None,1963.143252720999,None,1963.143252720999,1964.1458771240004,1965.248788852,None,1965.248788852,None,1,1965.248788852,None,None,None,1965.8336719949993,1967.23737154,1.2131093699990745,0.5394317579994095,,,,,,,,,,,,,102.0,1,18,1,2019_Dec_04_1211,Test,3.2.4,59.84470323470423
116,Pictures/IA75_L60.bmp,Pictures/IA75_L60.bmp,Pictures/IA75.bmp,"

Why not take the gamble?""""",1,risk,,,,,5.0,0.0,5.0,0.0,0.0,0.0,0.0,8.0,,,,,,,,,,,,,1970.596215356999,None,1970.596215356999,None,1970.596215356999,None,0,0.7360004969996226,1970.596215356999,None,1970.596215356999,None,1970.596215356999,None,return,1.5518034329998045,1970.596215356999,None,1972.183729645999,None,1974.2057345940002,1975.726403905,1975.7096956550006,None,1977.2136569120003,None,2.0,1979.2189549290008,None,1979.2189549290006,None,1979.2189549290006,None,None,None,None,None,1979.9375139289996,None,1979.9375139289996,None,0,1979.9375139289996,None,1981.541731937,None,None,None,0.5452730859997246,1.5706911380002566,,,,,,,,,,,,,102.0,1,18,1,2019_Dec_04_1211,Test,3.2.4,59.84470323470423
117,Pictures/IA50_G30.bmp,Pictures/IA50_G30.bmp,Pictures/IA50.bmp,"

I think you should gamble.""""",1,risk,,,,,5.0,0.0,5.0,0.0,0.0,1.0,1.0,9.0,,,,,,,,,,,,,,,,,,,,,,,,,,,,,,,1981.9594999310002,None,1983.9814971719998,1985.5021725939998,1985.4854635979998,None,1986.9894251769992,None,2.0,1989.01142575,None,1989.01142575,None,1989.01142575,None,None,None,None,None,1990.097627484999,None,1990.097627484999,None,0,1990.097627484999,None,1990.4819637749997,1992.0861929979992,None,None,0.896789947999423,0.3465805449995969,,,,,,,,,,,,,102.0,1,18,1,2019_Dec_04_1211,Test,3.2.4,59.84470323470423
118,Pictures/IA40_20_L95p.bmp,Pictures/IA40_20_L95p.bmp,Pictures/IA40.bmp,"

Trust me, gamble!""""",1,risk,,,,,5.0,0.0,5.0,0.0,0.0,2.0,2.0,16.0,,,,,,,,,,,,,,,,,,,,,,,,,,,,,,,1992.1029014379992,None,1994.1249017979999,1995.6455766240008,1995.6288734189993,None,1997.1328292240005,None,2.0,1999.1548284499995,None,1999.1548284499995,None,1999.1548284499995,None,None,None,None,None,2000.1240496809996,None,2000.1240496809996,None,1,2000.1240496809996,None,None,None,2000.4248388240003,2002.1293310739993,0.8173891910009843,0.2561640690000786,,,,,,,,,,,,,102.0,1,18,1,2019_Dec_04_1211,Test,3.2.4,59.84470323470423
119,Pictures/IA20_10_G95p.bmp,Pictures/IA20_10_G95p.bmp,Pictures/IA20.bmp,"

Take a leap, I think you should gamble.""""",1,risk,,,,,5.0,0.0,5.0,0.0,0.0,3.0,3.0,0.0,,,,,,,,,,,,,,,,,,,,,,,,,,,,,,,2002.1460445029998,None,2004.168041245,2005.6887353569991,2005.6720074319992,None,2007.192679756,None,2.0,2009.1979688420006,None,2009.1979688420006,None,2009.1979688420006,None,None,None,None,None,2010.6183808270007,None,2010.6183808270007,None,0,2010.6183808270007,None,2010.902458604999,2012.6069493999994,None,None,1.246259216000908,0.2418336219998309,,,,,,,,,,,,,102.0,1,18,1,2019_Dec_04_1211,Test,3.2.4,59.84470323470423
120,Pictures/IA50_G10.bmp,Pictures/IA50_G10.bmp,Pictures/IA50.bmp,"

Go with the safe option here!""""",0,safe,,,,,5.0,0.0,5.0,0.0,0.0,4.0,4.0,11.0,,,,,,,,,,,,,,,,,,,,,,,,,,,,,,,2012.6236596650006,None,2014.6456614480003,2016.1663373229997,2016.1496336610007,None,2017.6535885500007,None,1.0,2019.6756014529992,None,2019.6756014529992,None,2019.6756014529992,None,2021.2463949069997,None,2021.2463949069997,2022.249033821,2023.3853654040004,None,2023.3853654040004,None,0,2023.3853654040004,None,2024.0203691350007,2025.3906593479996,None,None,1.4406200520006678,0.5868472310012294,,,,,,,,,,,,,102.0,1,18,1,2019_Dec_04_1211,Test,3.2.4,59.84470323470423
121,Pictures/IA25_G15.bmp,Pictures/IA25_G15.bmp,Pictures/IA25.bmp,"

I think you should take a gamble.""""",1,risk,,,,,5.0,0.0,5.0,0.0,0.0,5.0,5.0,12.0,,,,,,,,,,,,,,,,,,,,,,,,,,,,,,,2025.4073567940004,None,2027.4293618050006,2028.9500291239992,2028.9333243600006,None,2030.4707071189996,None,1.0,2032.4592901820008,None,2032.4592901820006,None,2032.4592901820006,None,2034.4144372319997,None,2034.4144372319997,2035.4170747010003,2036.5199880030004,None,2036.5199880030004,None,1,2036.5199880030004,None,None,None,2036.9711712580001,2038.5085564709998,1.8249262949993863,0.4122267969996756,,,,,,,,,,,,,102.0,1,18,1,2019_Dec_04_1211,Test,3.2.4,59.84470323470423
122,Pictures/IA100_L20.bmp,Pictures/IA100_L20.bmp,Pictures/IA100.bmp,"

Try to win as much money as you can, gamble!""""",1,risk,,,,,5.0,0.0,5.0,0.0,0.0,6.0,6.0,15.0,,,,,,,,,,,,,,,,,,,,,,,,,,,,,,,2038.5252783360002,None,2040.54726615,2042.067939464,2042.0512329170006,None,2043.5552014659997,None,2.0,2045.5771944769995,None,2045.5771944769995,None,2045.5771944769995,None,None,None,None,None,2046.6132625309992,None,2046.6132625309992,None,1,2046.6132625309992,None,None,None,2046.8973367360004,2048.6018301920003,0.8590323949993035,0.2389606279994041,,,,,,,,,,,,,102.0,1,18,1,2019_Dec_04_1211,Test,3.2.4,59.84470323470423
123,Pictures/IA50_L10.bmp,Pictures/IA50_L10.bmp,Pictures/IA50.bmp,"

Play it safe, don’t gamble!""""",0,safe,,,,,5.0,0.0,5.0,0.0,0.0,7.0,7.0,4.0,,,,,,,,,,,,,,,,,,,,,,,,,,,,,,,2048.6185399159995,None,2050.6405388329995,2052.1612155870002,2052.144505669,None,2053.6986043259994,None,2.0,2055.670467571,None,2055.670467571,None,2055.670467571,None,None,None,None,None,2057.3248276309996,None,2057.3248276309996,None,1,2057.3248276309996,None,None,None,2057.6089053160003,2059.3133976050003,1.4777515690002474,0.2393834249996871,,,,,,,,,,,,,102.0,1,18,1,2019_Dec_04_1211,Test,3.2.4,59.84470323470423
124,Pictures/IA100_L80.bmp,Pictures/IA100_L80.bmp,Pictures/IA100.bmp,"

Go all in!""""",1,risk,,,,,5.0,0.0,5.0,0.0,0.0,8.0,8.0,1.0,,,,,,,,,,,,,,,,,,,,,,,,,,,,,,,2059.3301089959996,None,2061.3521048310004,2062.8727802799995,2062.856069269,None,2064.410166814,None,2.0,2066.3820384670007,None,2066.3820384670007,None,2066.3820384670007,None,None,None,None,None,2067.852592951999,None,2067.852592951999,None,1,2067.852592951999,None,None,None,2069.72417882,None,1.2781858800008197,1.8316335670006083,,,,,,,,,,,,,102.0,1,18,1,2019_Dec_04_1211,Test,3.2.4,59.84470323470423
125,Pictures/IA50_L20.bmp,Pictures/IA50_L20.bmp,Pictures/IA50.bmp,"

Certainty is boring, take a risk!""""",1,risk,,,,,5.0,0.0,5.0,0.0,0.0,9.0,9.0,7.0,,,,,,,,,,,,,,,,,,,,,,,,,,,,,,,2069.8745696680007,None,2071.896567031,2073.4172411030004,2073.4005359390003,None,2074.9379288949995,None,2.0,2076.9265056249997,None,2076.9265056249997,None,2076.9265056249997,None,None,None,None,None,2078.179813223999,None,2078.179813223999,None,1,2078.179813223999,None,None,None,2078.798094568,2080.1683992650005,1.1017095769984735,0.5684029650001321,,,,,,,,,,,,,102.0,1,18,1,2019_Dec_04_1211,Test,3.2.4,59.84470323470423
126,Pictures/IA110_55_G95p.bmp,Pictures/IA110_55_G95p.bmp,Pictures/IA110.bmp,"

Take a chance!""""",1,risk,,,,,5.0,0.0,5.0,0.0,0.0,10.0,10.0,2.0,,,,,,,,,,,,,,,,,,,,,,,,,,,,,,,2080.1850811270006,None,2082.2070778280004,2083.7277501129997,2083.711045494,None,2085.2150079779994,None,2.0,2087.237006807999,None,2087.237006807999,None,2087.237006807999,None,None,None,None,None,2088.5070257929992,None,2088.5070257929992,None,0,2088.5070257929992,None,2089.2757094729996,2090.5123040219996,None,None,1.1112092789990131,0.7211879900005442,,,,,,,,,,,,,102.0,1,18,1,2019_Dec_04_1211,Test,3.2.4,59.84470323470423
127,Pictures/IA100_L60.bmp,Pictures/IA100_L60.bmp,Pictures/IA100.bmp,"

You'd have a lot to lose, don't gamble.""""",0,safe,,,,,5.0,0.0,5.0,0.0,0.0,11.0,11.0,13.0,,,,,,,,,,,,,,,,,,,,,,,,,,,,,,,2090.529011877,None,2092.5510093939997,2094.0716824429987,2094.0549793319997,None,2095.558946696,None,2.0,2097.5809389960004,None,2097.5809389960004,None,2097.5809389960004,None,None,None,None,None,2099.185165799,None,2099.185165799,None,0,2099.185165799,None,2100.1543941049995,2101.1904562610007,None,None,1.4152738819993829,0.9230488829998648,,,,,,,,,,,,,102.0,1,18,1,2019_Dec_04_1211,Test,3.2.4,59.84470323470423
128,Pictures/IA100_G60.bmp,Pictures/IA100_G60.bmp,Pictures/IA100.bmp,"

Be cautious, don't gamble for this one.""""",0,safe,,,,,5.0,0.0,5.0,0.0,0.0,12.0,12.0,3.0,,,,,,,,,,,,,,,,,,,,,,,,,,,,,,,2101.207160084,None,2103.2291585460002,2104.7498297329994,2104.7331221350005,None,2106.287221293999,None,2.0,2108.2590904180006,None,2108.2590904180006,None,2108.2590904180006,None,None,None,None,None,2110.398059962,None,2110.398059962,None,0,2110.398059962,None,2111.2001714299995,2112.403337741999,None,None,1.961130337000213,0.766148858001543,,,,,,,,,,,,,102.0,1,18,1,2019_Dec_04_1211,Test,3.2.4,59.84470323470423
129,Pictures/IA75_G15.bmp,Pictures/IA75_G15.bmp,Pictures/IA75.bmp,"

Take a chance!""""",1,risk,,,,,5.0,0.0,5.0,0.0,0.0,13.0,13.0,6.0,,,,,,,,,,,,,,,,,,,,,,,,,,,,,,,2112.4200470139995,None,2114.4420460169995,2115.962726360999,2115.946018813999,None,2117.5001099440005,None,2.0,2119.471981204,None,2119.4719812039993,None,2119.4719812039993,None,None,None,None,None,2120.1571236699992,None,2120.1571236699992,None,1,2120.1571236699992,None,None,None,2121.1931790829994,None,0.5162287629991624,0.9990832020012022,,,,,,,,,,,,,102.0,1,18,1,2019_Dec_04_1211,Test,3.2.4,59.84470323470423
130,Pictures/IA40_20_G95p.bmp,Pictures/IA40_20_G95p.bmp,Pictures/IA40.bmp,"

Hold back, stay with the safe choice.""""",0,safe,,,,,5.0,0.0,5.0,0.0,0.0,14.0,14.0,18.0,,,,,,,,,,,,,,,,,,,,,,,,,,,,,,,2122.1791051579994,None,2124.201105459,2125.721777071999,2125.7050771179993,None,2127.225747821999,None,2.0,2129.231032225999,None,2129.231032225999,None,2129.231032225999,None,None,None,None,None,2130.2503856659996,None,2130.2503856659996,None,0,2130.2503856659996,None,2130.8185608899994,2132.255666893,None,None,0.8371866760007833,0.5298216400005913,,,,,,,,,,,,,102.0,1,18,1,2019_Dec_04_1211,Test,3.2.4,59.84470323470423
131,Pictures/IA25_L15.bmp,Pictures/IA25_L15.bmp,Pictures/IA25.bmp,"

There's not much on the line here, gamble!""""",1,risk,,,,,5.0,0.0,5.0,0.0,0.0,15.0,15.0,14.0,,,,,,,,,,,,,,,,,,,,,,,,,,,,,,,2132.272378016999,None,2134.2943752599995,2135.815052374,2135.798343682999,None,2137.302304968999,None,1.0,2139.324307914,None,2139.324307914,None,2139.324307914,None,2140.1932928689994,None,2140.1932928689994,2141.195896675,2142.2988120790005,None,2142.2988120790005,None,1,2142.2988120790005,None,None,None,2142.800128706999,2144.287387939,0.7119075829996291,0.465397739000764,,,,,,,,,,,,,102.0,1,18,1,2019_Dec_04_1211,Test,3.2.4,59.84470323470423
132,Pictures/IA50_G20.bmp,Pictures/IA50_G20.bmp,Pictures/IA50.bmp,"

Let's venture and take a risk!""""",1,risk,,,,,5.0,0.0,5.0,0.0,0.0,16.0,16.0,19.0,,,,,,,,,,,,,,,,,,,,,,,,,,,,,,,2144.3040911769995,None,2146.3260964440005,2147.8467688650007,2147.8300682140007,None,2149.3841574749995,None,1.0,2151.356018760999,None,2151.356018760999,None,2151.356018760999,None,2152.559194134,None,2152.559194134,2153.5618264939994,2154.6814507280005,None,2154.6814507280005,None,1,2154.6814507280005,None,None,None,2155.032377134,2156.686733288,1.0962187519999134,0.3147535789994436,,,,,,,,,,,,,102.0,1,18,1,2019_Dec_04_1211,Test,3.2.4,59.84470323470423
133,Pictures/IA75_L45.bmp,Pictures/IA75_L45.bmp,Pictures/IA75.bmp,"

Don't gamble for this one, play it safe.""""",0,safe,,,,,5.0,0.0,5.0,0.0,0.0,17.0,17.0,17.0,,,,,,,,,,,,,,,,,,,,,,,,,,,,,,,2156.703442637,None,2158.7254442450007,2160.2461167379997,2160.229408659,None,2161.783505516999,None,1.0,2163.755369423,None,2163.755369423,None,2163.755369423,None,2164.8415654499995,None,2164.8415654499995,2165.8442022989993,2166.9471147859995,None,2166.9471147859995,None,0,2166.9471147859995,None,2167.247903901999,2168.9524001260006,None,None,0.9448620729999676,0.2650873780003167,,,,,,,,,,,,,102.0,1,18,1,2019_Dec_04_1211,Test,3.2.4,59.84470323470423
134,Pictures/IA25_G5.bmp,Pictures/IA25_G5.bmp,Pictures/IA25.bmp,"

Let's stay with the certain option.""""",0,safe,,,,,5.0,0.0,5.0,0.0,0.0,18.0,18.0,5.0,,,,,,,,,,,,,,,,,,,,,,,,,,,,,,,2168.9691100730006,None,2170.9911074229994,2172.5117786710007,2172.495072641,None,2174.0324545409994,None,2.0,2176.0210329760002,None,2176.0210329760002,None,2176.0210329760002,None,None,None,None,None,2177.541706932,None,2177.541706932,None,1,2177.541706932,None,None,None,2178.059734579,2179.530280545,1.3431845600007364,0.4784979220003152,,,,,,,,,,,,,102.0,1,18,1,2019_Dec_04_1211,Test,3.2.4,59.84470323470423
135,Pictures/IA75_L15.bmp,Pictures/IA75_L15.bmp,Pictures/IA75.bmp,"

Trust me, gamble!""""",1,risk,,,,,5.0,0.0,5.0,0.0,0.0,19.0,19.0,10.0,,,,,,,,,,,,,,,,,,,,,,,,,,,,,,,2179.5469945960003,None,2181.5689868750005,2183.0896603220003,2183.0729557509994,None,2184.6270476559994,None,2.0,2186.59891408,None,2186.59891408,None,2186.59891408,None,None,None,None,None,2188.119595235,None,2188.119595235,None,0,2188.119595235,None,2188.9718330339992,2190.108159246999,None,None,1.3573081750000708,0.8126103409995267,,,,,,,,,,,,,102.0,1,18,1,2019_Dec_04_1211,Test,3.2.4,59.84470323470423
137,Pictures/IA50_G10.bmp,Pictures/IA50_G10.bmp,Pictures/IA50.bmp,"

Go with the safe option here!""""",0,safe,,,,,6.0,0.0,6.0,0.0,0.0,0.0,0.0,19.0,,,,,,,,,,,,,2194.6869066589998,None,2194.6869066589998,None,2194.6869066589998,None,0,1.8053064729992911,2194.6869066589998,None,2194.6869066589998,None,2194.6869066589998,None,return,3.3810524829987116,2194.6869066589998,None,2198.1293074550003,None,2200.1345959639993,2201.6552673350006,2201.6385647430006,None,2203.164036817,None,2.0,2205.1478095930006,None,2205.1478095930006,None,2205.1478095930006,None,None,None,None,None,2205.7661031609996,None,2205.7661031609996,None,0,2205.7661031609996,None,2206.2674213130003,2207.771385613999,None,None,0.4484234129995457,0.4621071659985319,,,,,,,,,,,,,102.0,1,18,1,2019_Dec_04_1211,Test,3.2.4,59.84470323470423
138,Pictures/IA25_G20.bmp,Pictures/IA25_G20.bmp,Pictures/IA25.bmp,"

I wouldn't gamble for this one. """"",0,safe,,,,,6.0,0.0,6.0,0.0,0.0,1.0,1.0,0.0,,,,,,,,,,,,,,,,,,,,,,,,,,,,,,,2207.7880963100006,None,2209.8100940249997,2211.330775255,2211.3140606459992,None,2212.8514441510006,None,2.0,2214.8400232409995,None,2214.8400232409995,None,2214.8400232409995,None,None,None,None,None,2215.3747670229995,None,2215.3747670229995,None,0,2215.3747670229995,None,2215.82596017,2217.363334744,None,None,0.3641870420015039,0.4054431519998616,,,,,,,,,,,,,102.0,1,18,1,2019_Dec_04_1211,Test,3.2.4,59.84470323470423
139,Pictures/IA75_G45.bmp,Pictures/IA75_G45.bmp,Pictures/IA75.bmp,"

Don't gamble for this one.""""",0,safe,,,,,6.0,0.0,6.0,0.0,0.0,2.0,2.0,15.0,,,,,,,,,,,,,,,,,,,,,,,,,,,,,,,2217.380049987999,None,2219.402049198,2220.922718936,2220.906015944999,None,2222.4768308079992,None,2.0,2224.4319741770005,None,2224.4319741770005,None,2224.4319741770005,None,None,None,None,None,2225.534880835,None,2225.534880835,None,0,2225.534880835,None,2226.3035680959993,2227.5401589000003,None,None,0.9242445729996688,0.7333223539990286,,,,,,,,,,,,,102.0,1,18,1,2019_Dec_04_1211,Test,3.2.4,59.84470323470423
140,Pictures/IA40_20_L95p.bmp,Pictures/IA40_20_L95p.bmp,Pictures/IA40.bmp,"

Trust me, gamble!""""",1,risk,,,,,6.0,0.0,6.0,0.0,0.0,3.0,3.0,1.0,,,,,,,,,,,,,,,,,,,,,,,,,,,,,,,2227.556871493999,None,2229.5788694640005,2231.099541512999,2231.0828372700007,None,2232.6035113850003,None,2.0,2234.608800506,None,2234.608800506,None,2234.608800506,None,None,None,None,None,2235.561274262999,None,2235.561274262999,None,1,2235.561274262999,None,None,None,2236.2631544509995,2237.5665880879997,0.7794184039994434,0.6589346250002563,,,,,,,,,,,,,102.0,1,18,1,2019_Dec_04_1211,Test,3.2.4,59.84470323470423
141,Pictures/IA50_G40.bmp,Pictures/IA50_G40.bmp,Pictures/IA50.bmp,"

It would probably be best to play it safe.""""",0,safe,,,,,6.0,0.0,6.0,0.0,0.0,4.0,4.0,14.0,,,,,,,,,,,,,,,,,,,,,,,,,,,,,,,2237.583299024999,None,2239.6052995029995,2241.125976058001,2241.109297114,None,2242.629946095999,None,,2244.635227292999,None,2244.635227292999,None,2244.635227292999,None,None,None,None,None,2247.776845235,None,2247.776845235,None,None,2247.776845235,None,None,None,None,None,,,,,,,,,,,,,,,102.0,1,18,1,2019_Dec_04_1211,Test,3.2.4,59.84470323470423
142,Pictures/IA100_G60.bmp,Pictures/IA100_G60.bmp,Pictures/IA100.bmp,"

Be cautious, don't gamble for this one.""""",0,safe,,,,,6.0,0.0,6.0,0.0,0.0,5.0,5.0,8.0,,,,,,,,,,,,,,,,,,,,,,,,,,,,,,,2249.7821225939997,None,2251.8041162540007,2253.3247923909994,2253.308089432,None,2254.812046598,None,2.0,2256.834052396999,None,2256.834052396999,None,2256.834052396999,None,None,None,None,None,2258.8226311869994,None,2258.8226311869994,None,0,2258.8226311869994,None,2259.1066986279993,2260.8111960800006,None,None,1.8181844070004445,0.24557308800103786,,,,,,,,,,,,,102.0,1,18,1,2019_Dec_04_1211,Test,3.2.4,59.84470323470423
143,Pictures/IA75_G30.bmp,Pictures/IA75_G30.bmp,Pictures/IA75.bmp,"

Be bold, gamble!""""",1,risk,,,,,6.0,0.0,6.0,0.0,0.0,6.0,6.0,10.0,,,,,,,,,,,,,,,,,,,,,,,,,,,,,,,2260.82791422,None,2262.849905286,2264.370582306,2264.3538678060004,None,2265.8912500039996,None,1.0,2267.879828716,None,2267.879828716,None,2267.879828716,None,2268.498124368999,None,2268.498124368999,2269.5007707079994,2270.6036750779995,None,2270.6036750779995,None,1,2270.6036750779995,None,None,None,2270.9880169069993,2272.5922467659993,0.5323822350001137,0.3365473949997977,,,,,,,,,,,,,102.0,1,18,1,2019_Dec_04_1211,Test,3.2.4,59.84470323470423
144,Pictures/IA20_10_G95p.bmp,Pictures/IA20_10_G95p.bmp,Pictures/IA20.bmp,"

Take a leap, I think you should gamble.""""",1,risk,,,,,6.0,0.0,6.0,0.0,0.0,7.0,7.0,11.0,,,,,,,,,,,,,,,,,,,,,,,,,,,,,,,2272.608955474,None,2274.6309553210003,2276.151631321999,2276.134922446,None,2277.638883208,None,2.0,2279.660882949999,None,2279.660882949999,None,2279.660882949999,None,None,None,None,None,2280.8640503020006,None,2280.8640503020006,None,0,2280.8640503020006,None,2281.2483955020007,2282.8526311039996,None,None,1.0233446450001793,0.3481616680001025,,,,,,,,,,,,,102.0,1,18,1,2019_Dec_04_1211,Test,3.2.4,59.84470323470423
145,Pictures/IA100_L20.bmp,Pictures/IA100_L20.bmp,Pictures/IA100.bmp,"

Try to win as much money as you can, gamble!""""",1,risk,,,,,6.0,0.0,6.0,0.0,0.0,8.0,8.0,12.0,,,,,,,,,,,,,,,,,,,,,,,,,,,,,,,2282.8693351360007,None,2284.8913315420004,2286.412004643001,2286.3952964970003,None,2287.9326870819996,None,2.0,2289.9212633960005,None,2289.9212633960005,None,2289.9212633960005,None,None,None,None,None,2290.923903468999,None,2290.923903468999,None,0,2290.923903468999,None,2291.207980353999,2292.9124778550004,None,None,0.8189468169985048,0.2483172789998207,,,,,,,,,,,,,102.0,1,18,1,2019_Dec_04_1211,Test,3.2.4,59.84470323470423
146,Pictures/IA100_L80.bmp,Pictures/IA100_L80.bmp,Pictures/IA100.bmp,"

Go all in!""""",1,risk,,,,,6.0,0.0,6.0,0.0,0.0,9.0,9.0,4.0,,,,,,,,,,,,,,,,,,,,,,,,,,,,,,,2292.92918432,None,2294.951183917,2296.471856029,2296.4551480679997,None,2297.9591170989997,None,1.0,2299.9811124380003,None,2299.9811124380003,None,2299.9811124380003,None,2301.3513858350007,None,2301.3513858350007,2302.3540248050003,2303.4569369989995,None,2303.4569369989995,None,1,2303.4569369989995,None,None,None,2303.8078635560005,2305.445515123999,1.2951170030009962,0.3072773099993356,,,,,,,,,,,,,102.0,1,18,1,2019_Dec_04_1211,Test,3.2.4,59.84470323470423
147,Pictures/IA50_G30.bmp,Pictures/IA50_G30.bmp,Pictures/IA50.bmp,"

I think you should gamble.""""",1,risk,,,,,6.0,0.0,6.0,0.0,0.0,10.0,10.0,3.0,,,,,,,,,,,,,,,,,,,,,,,,,,,,,,,2305.4622204630004,None,2307.4842351609996,2309.004889298999,2308.9881877769994,None,2310.525570241999,None,1.0,2312.514150451,None,2312.514150451,None,2312.514150451,None,2313.282837185,None,2313.282837185,2314.2854731380003,2315.3883950120007,None,2315.3883950120007,None,1,2315.3883950120007,None,None,None,2315.689182182,2317.3936686690004,0.6500571870001295,0.2638088610001432,,,,,,,,,,,,,102.0,1,18,1,2019_Dec_04_1211,Test,3.2.4,59.84470323470423
148,Pictures/IA100_L40.bmp,Pictures/IA100_L40.bmp,Pictures/IA100.bmp,"

Think of the payoff, gamble!""""",1,risk,,,,,6.0,0.0,6.0,0.0,0.0,11.0,11.0,2.0,,,,,,,,,,,,,,,,,,,,,,,,,,,,,,,2317.4103782369993,None,2319.432375534,2320.953051939,2320.936350395,None,2322.457023352,None,2.0,2324.4623086599995,None,2324.4623086599995,None,2324.4623086599995,None,None,None,None,None,2326.1333737600007,None,2326.1333737600007,None,0,2326.1333737600007,None,2327.804445343,None,None,None,1.5019046630004595,1.6308444520000194,,,,,,,,,,,,,102.0,1,18,1,2019_Dec_04_1211,Test,3.2.4,59.84470323470423
149,Pictures/IA80_40_L95p.bmp,Pictures/IA80_40_L95p.bmp,Pictures/IA80.bmp,"

Let's stay with the certain option.""""",0,safe,,,,,6.0,0.0,6.0,0.0,0.0,12.0,12.0,7.0,,,,,,,,,,,,,,,,,,,,,,,,,,,,,,,2328.1553747139997,None,2330.1773653169994,2331.698039504,2331.68133694,None,2333.218719415,None,2.0,2335.20729367,None,2335.2072936699997,None,2335.2072936699997,None,None,None,None,None,2335.7587467860003,None,2335.7587467860003,None,1,2335.7587467860003,None,None,None,2337.012046200999,None,0.3409423360008077,1.2054728640014218,,,,,,,,,,,,,102.0,1,18,1,2019_Dec_04_1211,Test,3.2.4,59.84470323470423
150,Pictures/IA100_G20.bmp,Pictures/IA100_G20.bmp,Pictures/IA100.bmp,"

Go ahead and gamble!""""",1,risk,,,,,6.0,0.0,6.0,0.0,0.0,13.0,13.0,5.0,,,,,,,,,,,,,,,,,,,,,,,,,,,,,,,2337.764026874999,None,2339.7860250999993,2341.306699152,2341.290000775999,None,2342.8273848460003,None,1.0,2344.8159713430005,None,2344.8159713430005,None,2344.8159713430005,None,2345.2838523620003,None,2345.2838523620003,2346.286488839999,2347.3894014490006,None,2347.3894014490006,None,1,2347.3894014490006,None,None,None,2348.5257284690006,None,0.3722526029996516,1.102799109999978,,,,,,,,,,,,,102.0,1,18,1,2019_Dec_04_1211,Test,3.2.4,59.84470323470423
151,Pictures/IA25_G10.bmp,Pictures/IA25_G10.bmp,Pictures/IA25.bmp,"

What's life without a little risk?""""",1,risk,,,,,6.0,0.0,6.0,0.0,0.0,14.0,14.0,16.0,,,,,,,,,,,,,,,,,,,,,,,,,,,,,,,2349.411396753,None,2351.433395776,2352.954067162001,2352.937358839,None,2354.4914529469997,None,2.0,2356.463320939999,None,2356.463320939999,None,2356.463320939999,None,None,None,None,None,2358.1176807500005,None,2358.1176807500005,None,0,2358.1176807500005,None,2359.655066123999,None,None,None,1.4849009749996185,1.5025301670011686,,,,,,,,,,,,,102.0,1,18,1,2019_Dec_04_1211,Test,3.2.4,59.84470323470423
152,Pictures/IA25_L10.bmp,Pictures/IA25_L10.bmp,Pictures/IA25.bmp,"

Dont be afraid to take the risk!""""",1,risk,,,,,6.0,0.0,6.0,0.0,0.0,15.0,15.0,9.0,,,,,,,,,,,,,,,,,,,,,,,,,,,,,,,2360.139672577,None,2362.1616708600004,2363.6823511390007,2363.665637689,None,2365.203020983,None,2.0,2367.1916033040006,None,2367.1916033040006,None,2367.1916033040006,None,None,None,None,None,2368.0104285570005,None,2368.0104285570005,None,0,2368.0104285570005,None,2368.344633538999,2370.0157033839996,None,None,0.6366300649988261,0.29777393200129154,,,,,,,,,,,,,102.0,1,18,1,2019_Dec_04_1211,Test,3.2.4,59.84470323470423
153,Pictures/IA50_L10.bmp,Pictures/IA50_L10.bmp,Pictures/IA50.bmp,"

Play it safe, don’t gamble!""""",0,safe,,,,,6.0,0.0,6.0,0.0,0.0,16.0,16.0,13.0,,,,,,,,,,,,,,,,,,,,,,,,,,,,,,,2370.0324195059993,None,2372.054410903001,2373.5750848870002,2373.5583792610005,None,2375.095763230999,None,2.0,2377.084338869,None,2377.084338869,None,2377.084338869,None,None,None,None,None,2377.752768334999,None,2377.752768334999,None,0,2377.752768334999,None,2378.0535635509996,2379.7580550760003,None,None,0.4878820489993814,0.26744099499956064,,,,,,,,,,,,,102.0,1,18,1,2019_Dec_04_1211,Test,3.2.4,59.84470323470423
154,Pictures/IA100_G40.bmp,Pictures/IA100_G40.bmp,Pictures/IA100.bmp,"

Try your luck and gamble!""""",1,risk,,,,,6.0,0.0,6.0,0.0,0.0,17.0,17.0,17.0,,,,,,,,,,,,,,,,,,,,,,,,,,,,,,,2379.774760632,None,2381.8134678920005,2383.3174324170004,2383.300725775999,None,2384.8381191710005,None,1.0,2386.8267035269987,None,2386.826703526999,None,2386.826703526999,None,2387.762495251999,None,2387.762495251999,2388.76512671,2389.9014623520006,None,2389.9014623520006,None,1,2389.9014623520006,None,None,None,2390.4529072199994,2391.890026622,0.8255146430001332,0.5107491729995672,,,,,,,,,,,,,102.0,1,18,1,2019_Dec_04_1211,Test,3.2.4,59.84470323470423
155,Pictures/IA110_55_G95p.bmp,Pictures/IA110_55_G95p.bmp,Pictures/IA110.bmp,"

Take a chance!""""",1,risk,,,,,6.0,0.0,6.0,0.0,0.0,18.0,18.0,6.0,,,,,,,,,,,,,,,,,,,,,,,,,,,,,,,2391.906739248,None,2393.9287350389995,2395.432705953,2395.415992497,None,2396.9533764020007,None,2.0,2398.958663577,None,2398.958663577,None,2398.958663577,None,None,None,None,None,2399.3764289399996,None,2399.3764289399996,None,0,2399.3764289399996,None,2399.660515232,2401.365001486999,None,None,0.26155394300076296,0.2437807310016069,,,,,,,,,,,,,102.0,1,18,1,2019_Dec_04_1211,Test,3.2.4,59.84470323470423
156,Pictures/IA75_G60.bmp,Pictures/IA75_G60.bmp,Pictures/IA75.bmp,"

Make it exciting, take a chance!""""",1,risk,,,,,6.0,0.0,6.0,0.0,0.0,19.0,19.0,18.0,,,,,,,,,,,,,,,,,,,,,,,,,,,,,,,2401.381711579,None,2403.403708188999,2404.9243819859994,2404.9076814209993,None,2406.4784792580003,None,2.0,2408.4336393210006,None,2408.4336393210006,None,2408.4336393210006,None,None,None,None,None,2409.1689069880003,None,2409.1689069880003,None,0,2409.1689069880003,None,2409.2858801150005,2411.1574778580007,None,None,0.5625846719995025,0.07530708200101799,,,,,,,,,,,,,102.0,1,18,1,2019_Dec_04_1211,Test,3.2.4,59.84470323470423
158,Pictures/IA25_L20.bmp,Pictures/IA25_L20.bmp,Pictures/IA25.bmp,"

Don't be tempted to gamble.""""",0,safe,,,,,7.0,0.0,7.0,0.0,0.0,0.0,0.0,19.0,,,,,,,,,,,,,2415.986884379,None,2415.986884379,None,2415.986884379,None,0,2.0013235489986982,2415.986884379,None,2415.986884379,None,2415.986884379,None,return,7.657108976000018,2415.986884379,None,2423.6905194620003,None,2425.695797587,2427.216474599999,2427.199772739,None,2428.7204397230007,None,2.0,2430.7257268349995,None,2430.7257268349995,None,2430.7257268349995,None,None,None,None,None,2431.5612633280007,None,2431.5612633280007,None,1,2431.5612633280007,None,None,None,2431.9289021720006,2433.566549704,0.6384930060012266,0.32294997999997577,,,,,,,,,,,,,102.0,1,18,1,2019_Dec_04_1211,Test,3.2.4,59.84470323470423
159,Pictures/IA100_L80.bmp,Pictures/IA100_L80.bmp,Pictures/IA100.bmp,"

Go all in!""""",1,risk,,,,,7.0,0.0,7.0,0.0,0.0,1.0,1.0,4.0,,,,,,,,,,,,,,,,,,,,,,,,,,,,,,,2433.5832590719992,None,2435.6052510260006,2437.1259258420005,2437.109219026,None,2438.646602308,None,2.0,2440.6351854939994,None,2440.6351854939994,None,2440.6351854939994,None,None,None,None,None,2441.4205827390006,None,2441.4205827390006,None,1,2441.4205827390006,None,None,None,2442.0221638499997,2443.4091477810007,0.6170354950008914,0.5676219739998487,,,,,,,,,,,,,102.0,1,18,1,2019_Dec_04_1211,Test,3.2.4,59.84470323470423
160,Pictures/IA100_G20.bmp,Pictures/IA100_G20.bmp,Pictures/IA100.bmp,"

Go ahead and gamble!""""",1,risk,,,,,7.0,0.0,7.0,0.0,0.0,2.0,2.0,10.0,,,,,,,,,,,,,,,,,,,,,,,,,,,,,,,2443.4258700759992,None,2445.447861841999,2446.951825296,2446.9351296190007,None,2448.4557992599994,None,1.0,2450.4777874540005,None,2450.4777874540005,None,2450.4777874540005,None,2450.9791093060003,None,2450.9791093060003,2451.981745578999,2453.084666152,None,2453.084666152,None,1,2453.084666152,None,None,None,2453.786506173,2455.0899412730005,0.41444265300015104,0.6635356829992816,,,,,,,,,,,,,102.0,1,18,1,2019_Dec_04_1211,Test,3.2.4,59.84470323470423
161,Pictures/IA25_G5.bmp,Pictures/IA25_G5.bmp,Pictures/IA25.bmp,"

Let's stay with the certain option.""""",0,safe,,,,,7.0,0.0,7.0,0.0,0.0,3.0,3.0,13.0,,,,,,,,,,,,,,,,,,,,,,,,,,,,,,,2455.106658759999,None,2457.1286483289996,2458.6493220269995,2458.63261786,None,2460.136577331,None,1.0,2462.158578477999,None,2462.158578477999,None,2462.158578477999,None,2463.2280676679993,None,2463.2280676679993,2464.2306983579992,2465.3336122949995,None,2465.3336122949995,None,0,2465.3336122949995,None,2465.734663582999,2467.338916653999,None,None,0.925643743999899,0.3665939869988506,,,,,,,,,,,,,102.0,1,18,1,2019_Dec_04_1211,Test,3.2.4,59.84470323470423
162,Pictures/IA50_G30.bmp,Pictures/IA50_G30.bmp,Pictures/IA50.bmp,"

I think you should gamble.""""",1,risk,,,,,7.0,0.0,7.0,0.0,0.0,4.0,4.0,9.0,,,,,,,,,,,,,,,,,,,,,,,,,,,,,,,2467.355612016,None,2469.377602530999,2470.898274410999,2470.881568145999,None,2472.418949971,None,1.0,2474.4075390610005,None,2474.4075390610005,None,2474.4075390610005,None,2475.209604605,None,2475.209604605,2476.212279581,2477.315198534,None,2477.315198534,None,1,2477.315198534,None,None,None,2478.4515172269994,None,0.7006782990010834,1.0970107899993309,,,,,,,,,,,,,102.0,1,18,1,2019_Dec_04_1211,Test,3.2.4,59.84470323470423
163,Pictures/IA80_40_G95p.bmp,Pictures/IA80_40_G95p.bmp,Pictures/IA80.bmp,"

Think of the payoff, gamble!""""",1,risk,,,,,7.0,0.0,7.0,0.0,0.0,5.0,5.0,8.0,,,,,,,,,,,,,,,,,,,,,,,,,,,,,,,2479.3371876289993,None,2481.3591808989995,2482.87985371,2482.863149030999,None,2484.4005324679993,None,2.0,2486.38910777,None,2486.38910777,None,2486.38910777,None,None,None,None,None,2487.508726072,None,2487.508726072,None,0,2487.508726072,None,2488.2941254280004,2489.4973010839994,None,None,0.9431184679997386,0.7434913850011071,,,,,,,,,,,,,102.0,1,18,1,2019_Dec_04_1211,Test,3.2.4,59.84470323470423
164,Pictures/IA50_L20.bmp,Pictures/IA50_L20.bmp,Pictures/IA50.bmp,"

Certainty is boring, take a risk!""""",1,risk,,,,,7.0,0.0,7.0,0.0,0.0,6.0,6.0,15.0,,,,,,,,,,,,,,,,,,,,,,,,,,,,,,,2489.5140055269994,None,2491.536026747,2493.056681548999,2493.0399698659994,None,2494.5773531759996,None,1.0,2496.5659315799994,None,2496.5659315799994,None,2496.5659315799994,None,2497.117391958999,None,2497.117391958999,2498.1200268509992,2499.2229466809995,None,2499.2229466809995,None,1,2499.2229466809995,None,None,None,2499.6741184049997,2501.2115028100006,0.4302871660001984,0.4052680370004964,,,,,,,,,,,,,102.0,1,18,1,2019_Dec_04_1211,Test,3.2.4,59.84470323470423
165,Pictures/IA100_G40.bmp,Pictures/IA100_G40.bmp,Pictures/IA100.bmp,"

Try your luck and gamble!""""",1,risk,,,,,7.0,0.0,7.0,0.0,0.0,7.0,7.0,5.0,,,,,,,,,,,,,,,,,,,,,,,,,,,,,,,2501.22824021,None,2503.266924299999,2504.787597395001,2504.770897482001,None,2506.258140326,None,1.0,2508.2801450399993,None,2508.2801450399993,None,2508.2801450399993,None,2509.516736704999,None,2509.516736704999,2510.519378722999,2511.6222828969994,None,2511.6222828969994,None,1,2511.6222828969994,None,None,None,2512.090180742999,2513.6108574950003,1.132084755001415,0.4299406549998821,,,,,,,,,,,,,102.0,1,18,1,2019_Dec_04_1211,Test,3.2.4,59.84470323470423
166,Pictures/IA25_L10.bmp,Pictures/IA25_L10.bmp,Pictures/IA25.bmp,"

Dont be afraid to take the risk!""""",1,risk,,,,,7.0,0.0,7.0,0.0,0.0,8.0,8.0,2.0,,,,,,,,,,,,,,,,,,,,,,,,,,,,,,,2513.6275585449994,None,2515.6495732619996,2517.1702385000003,2517.1535267470003,None,2518.657486519999,None,2.0,2520.679494724999,None,2520.679494724999,None,2520.679494724999,None,None,None,None,None,2522.0497674730004,None,2522.0497674730004,None,1,2522.0497674730004,None,None,None,2522.668056013,2524.038333780999,1.2047365300004458,0.5704473859987047,,,,,,,,,,,,,102.0,1,18,1,2019_Dec_04_1211,Test,3.2.4,59.84470323470423
167,Pictures/IA25_G20.bmp,Pictures/IA25_G20.bmp,Pictures/IA25.bmp,"

I wouldn't gamble for this one. """"",0,safe,,,,,7.0,0.0,7.0,0.0,0.0,9.0,9.0,12.0,,,,,,,,,,,,,,,,,,,,,,,,,,,,,,,2524.0550484389996,None,2526.0770455680004,2527.597717124,2527.58101078,None,2529.101685462,None,2.0,2531.1069735670003,None,2531.106973567,None,2531.106973567,None,None,None,None,None,2532.0093474409996,None,2532.0093474409996,None,0,2532.0093474409996,None,2532.7112123439993,2534.014635879,None,None,0.7212538169987965,0.6668707509998058,,,,,,,,,,,,,102.0,1,18,1,2019_Dec_04_1211,Test,3.2.4,59.84470323470423
168,Pictures/IA75_G60.bmp,Pictures/IA75_G60.bmp,Pictures/IA75.bmp,"

Make it exciting, take a chance!""""",1,risk,,,,,7.0,0.0,7.0,0.0,0.0,10.0,10.0,18.0,,,,,,,,,,,,,,,,,,,,,,,,,,,,,,,2534.0313409050004,None,2536.05333917,2537.574009256,2537.557304454999,None,2539.061268635999,None,2.0,2541.0832684200004,None,2541.0832684200004,None,2541.0832684200004,None,None,None,None,None,2542.5538066569998,None,2542.5538066569998,None,0,2542.5538066569998,None,2543.272394232,2544.5591232819997,None,None,1.2969471849992258,0.6904241020001791,,,,,,,,,,,,,102.0,1,18,1,2019_Dec_04_1211,Test,3.2.4,59.84470323470423
169,Pictures/IA100_L20.bmp,Pictures/IA100_L20.bmp,Pictures/IA100.bmp,"

