,Choice,Choice2,Amount,AdviceVar1,GambleAdviceNum,GambleAdviceType,practice.thisRepN,practice.thisTrialN,practice.thisN,practice.thisIndex,trials_2.thisRepN,trials_2.thisTrialN,trials_2.thisN,trials_2.thisIndex,trials.thisRepN,trials.thisTrialN,trials.thisN,trials.thisIndex,text.started,text.stopped,key_resp_4.keys,key_resp_4.rt,key_resp_4.started,key_resp_4.stopped,instructions.started,instructions.stopped,space.keys,space.rt,space.started,space.stopped,chooseInst.started,chooseInst.stopped,Ad1.started,Ad1.stopped,Ad2.started,Ad2.stopped,key_resp_3.keys,key_resp_3.rt,key_resp_3.started,key_resp_3.stopped,Ad1pic.started,Ad1pic.stopped,Ad2pic.started,Ad2pic.stopped,enter.keys,enter.rt,enter.started,enter.stopped,iSi.started,iSi.stopped,receiveMoneyPicture.started,receiveMoneyPicture.stopped,ISI2.started,ISI2.stopped,ChoicePic.started,ChoicePic.stopped,response.keys,response.started,response.stopped,yesNo.started,yesNo.stopped,ask.started,ask.stopped,getAdv.started,getAdv.stopped,textForCode.started,textForCode.stopped,blank.started,blank.stopped,ChoicePic2.started,ChoicePic2.stopped,resp.keys,resp.started,resp.stopped,checkL1.started,checkL1.stopped,checkR1.started,checkR1.stopped,response.rt,resp.rt,EndPrac.started,EndPrac.stopped,key_resp.keys,key_resp.rt,key_resp.started,key_resp.stopped,endText.started,endText.stopped,key_resp_2.keys,key_resp_2.rt,key_resp_2.started,key_resp_2.stopped,participant,session,age,gender,date,expName,psychopyVersion,frameRate
4,Pictures/IA50_G20.bmp,Pictures/IA50_G20.bmp,Pictures/IA50.bmp,"

Let's venture and take a risk!""""",1,risk,0,0.0,0.0,1.0,,,,,,,,,,,,,,,,,,,,,,,,,,,,,,,,,,,,,,,383.889486174,None,385.92817800899957,387.4488429359999,387.43215206700006,None,388.96952387700003,None,,391.0249356889999,None,391.0249356889999,None,391.0249356889999,None,None,None,None,None,394.0830046310002,None,394.0830046310002,None,None,394.0830046310002,None,None,None,None,None,,,,,,,,,,,,,,,104.0,1,18,1,2019_Dec_05_1037,Test,3.2.4,59.85106302377619
5,Pictures/IA50_G30.bmp,Pictures/IA50_G30.bmp,Pictures/IA50.bmp,"

I think you should gamble.""""",1,risk,0,1.0,1.0,2.0,,,,,,,,,,,,,,,,,,,,,,,,,,,,,,,,,,,,,,,396.08828635200007,None,398.110276632,399.6309457719999,399.6142300880001,None,401.1850438450001,None,2.0,403.1401869249994,None,403.1401869249994,None,403.1401869249994,None,None,None,None,None,404.3433675619999,None,404.3433675619999,None,None,404.3433675619999,None,None,None,None,None,1.0208814659999916,,,,,,,,,,,,,,104.0,1,18,1,2019_Dec_05_1037,Test,3.2.4,59.85106302377619
6,Pictures/IA50_G40.bmp,Pictures/IA50_G40.bmp,Pictures/IA50.bmp,"

It would probably be best to play it safe.""""",0,safe,0,2.0,2.0,3.0,,,,,,,,,,,,,,,,,,,,,,,,,,,,,,,,,,,,,,,406.3486478569994,None,408.37063707299967,409.8913100720001,409.8745904219995,None,411.4286950959995,None,2.0,413.4005572059996,None,413.4005572059996,None,413.4005572059996,None,None,None,None,None,414.75411585099937,None,414.75411585099937,None,None,414.75411585099937,None,None,None,None,None,1.1685149899994942,,,,,,,,,,,,,,104.0,1,18,1,2019_Dec_05_1037,Test,3.2.4,59.85106302377619
7,Pictures/IA50_G10.bmp,Pictures/IA50_G10.bmp,Pictures/IA50.bmp,"

Go with the safe option here!""""",0,safe,0,3.0,3.0,0.0,,,,,,,,,,,,,,,,,,,,,,,,,,,,,,,,,,,,,,,416.75939144099993,None,418.7813844729999,420.285357025,420.2686381189997,None,421.82273148999957,None,2.0,423.8113175889994,None,423.8113175889994,None,423.8113175889994,None,None,None,None,None,424.83065643899954,None,424.83065643899954,None,None,424.83065643899954,None,None,None,None,None,0.8617560239999875,,,,,,,,,,,,,,104.0,1,18,1,2019_Dec_05_1037,Test,3.2.4,59.85106302377619
8,Pictures/IA100_G40.bmp,Pictures/IA100_G40.bmp,Pictures/IA100.bmp,"

Try your luck and gamble!""""",1,risk,0,4.0,4.0,5.0,,,,,,,,,,,,,,,,,,,,,,,,,,,,,,,,,,,,,,,426.83593949999977,None,428.89135725899996,430.4119907839995,430.395332217,None,431.93269750499985,None,2.0,433.88786688299933,None,433.88786688299933,None,433.88786688299933,None,None,None,None,None,435.02417818899994,None,435.02417818899994,None,0,435.02417818899994,None,435.9265650839998,437.0294575329999,None,None,0.9532120289995872,0.8649257280003442,,,,,,,,,,,,,104.0,1,18,1,2019_Dec_05_1037,Test,3.2.4,59.85106302377619
9,Pictures/IA100_G20.bmp,Pictures/IA100_G20.bmp,Pictures/IA100.bmp,"

Go ahead and gamble!""""",1,risk,0,5.0,5.0,4.0,,,,,,,,,,,,,,,,,,,,,,,,,,,,,,,,,,,,,,,437.04618245299935,None,439.0681733249994,440.5888432229994,440.57212468199936,None,442.1429400050001,None,2.0,444.09808434800016,None,444.09808434800016,None,444.09808434800016,None,None,None,None,None,444.98375726499944,None,444.98375726499944,None,0,444.98375726499944,None,445.46837499899993,446.9723168290002,None,None,0.7349932260003698,0.4493075589998625,,,,,,,,,,,,,104.0,1,18,1,2019_Dec_05_1037,Test,3.2.4,59.85106302377619
11,Pictures/IA100_L20.bmp,Pictures/IA100_L20.bmp,Pictures/IA100.bmp,"

Try to win as much money as you can, gamble!""""",1,risk,,,,,0.0,0.0,0.0,0.0,0.0,0.0,0.0,19.0,,,,,,,,,,,,,473.174677297,None,473.174677297,None,473.174677297,None,0,1.794381155999872,473.174677297,None,473.174677297,None,473.174677297,None,return,5.938176612999996,473.174677297,None,479.1738254339998,None,481.1790974589994,482.6997660930001,482.6830722909999,None,484.22045464999974,None,2.0,486.19232094499966,None,486.19232094499966,None,486.19232094499966,None,None,None,None,None,487.56259467200016,None,487.56259467200016,None,1,487.56259467200016,None,None,None,488.36469228399983,489.567859281,1.1767648529994403,0.758472893000544,,,,,,,,,,,,,104.0,1,18,1,2019_Dec_05_1037,Test,3.2.4,59.851063023776184
12,Pictures/IA50_G20.bmp,Pictures/IA50_G20.bmp,Pictures/IA50.bmp,"

Let's venture and take a risk!""""",1,risk,,,,,0.0,0.0,0.0,0.0,0.0,1.0,1.0,16.0,,,,,,,,,,,,,,,,,,,,,,,,,,,,,,,489.58458706500005,None,491.6065780130002,493.12724826500016,493.11053382699987,None,494.61450216399953,None,2.0,496.6364851110002,None,496.6364851110002,None,496.6364851110002,None,None,None,None,None,497.5555860129998,None,497.5555860129998,None,0,497.5555860129998,None,498.40782651300015,499.5441526509994,None,None,0.7565906039999392,0.8134804090004764,,,,,,,,,,,,,104.0,1,18,1,2019_Dec_05_1037,Test,3.2.4,59.85106302377619
13,Pictures/IA110_55_G95p.bmp,Pictures/IA110_55_G95p.bmp,Pictures/IA110.bmp,"

Take a chance!""""",1,risk,,,,,0.0,0.0,0.0,0.0,0.0,2.0,2.0,14.0,,,,,,,,,,,,,,,,,,,,,,,,,,,,,,,499.5608537930002,None,501.59955893999995,503.12022936699935,503.10353380600014,None,504.6409159569994,None,2.0,506.61277860500013,None,506.61277860500013,None,506.61277860500013,None,None,None,None,None,508.0665973059995,None,508.0665973059995,None,0,508.0665973059995,None,509.0859460599995,None,None,None,1.2922960819996658,0.9824679610001112,,,,,,,,,,,,,104.0,1,18,1,2019_Dec_05_1037,Test,3.2.4,59.85106302377619
14,Pictures/IA50_L20.bmp,Pictures/IA50_L20.bmp,Pictures/IA50.bmp,"

Certainty is boring, take a risk!""""",1,risk,,,,,0.0,0.0,0.0,0.0,0.0,3.0,3.0,5.0,,,,,,,,,,,,,,,,,,,,,,,,,,,,,,,510.0718773239996,None,512.09387255,513.6145446609999,513.5978469619995,None,515.1519269290002,None,2.0,517.123792421,None,517.123792421,None,517.123792421,None,None,None,None,None,518.4940782619997,None,518.4940782619997,None,1,518.4940782619997,None,None,None,519.5969704299996,None,1.1972754839998745,1.0589876560006817,,,,,,,,,,,,,104.0,1,18,1,2019_Dec_05_1037,Test,3.2.4,59.851063023776184
15,Pictures/IA50_L10.bmp,Pictures/IA50_L10.bmp,Pictures/IA50.bmp,"

Play it safe, don’t gamble!""""",0,safe,,,,,0.0,0.0,0.0,0.0,0.0,4.0,4.0,0.0,,,,,,,,,,,,,,,,,,,,,,,,,,,,,,,520.5160626179995,None,522.538059087,524.0420251579999,524.0253143509999,None,525.5961135179996,None,2.0,527.5679766550002,None,527.5679766550002,None,527.5679766550002,None,None,None,None,None,528.888117472,None,528.888117472,None,0,528.888117472,None,529.7905027569996,530.8933937659995,None,None,1.1530953369992858,0.8649478730003466,,,,,,,,,,,,,104.0,1,18,1,2019_Dec_05_1037,Test,3.2.4,59.851063023776184
16,Pictures/IA50_L40.bmp,Pictures/IA50_L40.bmp,Pictures/IA50.bmp,"

That gamble doesn't sound too good, play it safe.""""",0,safe,,,,,0.0,0.0,0.0,0.0,0.0,5.0,5.0,4.0,,,,,,,,,,,,,,,,,,,,,,,,,,,,,,,530.9101165060001,None,532.9321159989995,534.4528086159999,534.4360831099993,None,536.0068777609995,None,1.0,537.9620214770002,None,537.9620214770002,None,537.9620214770002,None,539.6163910629994,None,539.6163910629994,540.6190280390001,541.7386596750002,None,541.7386596750002,None,0,541.7386596750002,None,543.2593176659993,None,None,None,1.49506072999975,1.4784025540002403,,,,,,,,,,,,,104.0,1,18,1,2019_Dec_05_1037,Test,3.2.4,59.851063023776184
17,Pictures/IA25_L15.bmp,Pictures/IA25_L15.bmp,Pictures/IA25.bmp,"

There's not much on the line here, gamble!""""",1,risk,,,,,0.0,0.0,0.0,0.0,0.0,6.0,6.0,12.0,,,,,,,,,,,,,,,,,,,,,,,,,,,,,,,543.7439260499996,None,545.7826215599998,547.3032914380001,547.2865994120002,None,548.8239787799994,None,2.0,550.7958459829997,None,550.7958459829997,None,550.7958459829997,None,None,None,None,None,552.1159880039995,None,552.1159880039995,None,0,552.1159880039995,None,552.8679627149995,554.1045444639994,None,None,1.1492267269995864,0.7170793989998856,,,,,,,,,,,,,104.0,1,18,1,2019_Dec_05_1037,Test,3.2.4,59.851063023776184
18,Pictures/IA75_L30.bmp,Pictures/IA75_L30.bmp,Pictures/IA75.bmp,"

Hold back, stay with the safe choice.""""",0,safe,,,,,0.0,0.0,0.0,0.0,0.0,7.0,7.0,1.0,,,,,,,,,,,,,,,,,,,,,,,,,,,,,,,554.121266053,None,556.1599720349997,557.6806408159999,557.663922316,None,559.2013052949997,None,2.0,561.1731673469994,None,561.1731673469994,None,561.1731673469994,None,None,None,None,None,562.0922674980002,None,562.0922674980002,None,0,562.0922674980002,None,562.9445090889994,564.080833041,None,None,0.7239086390000011,0.8128112260001217,,,,,,,,,,,,,104.0,1,18,1,2019_Dec_05_1037,Test,3.2.4,59.851063023776184
19,Pictures/IA100_L40.bmp,Pictures/IA100_L40.bmp,Pictures/IA100.bmp,"

Think of the payoff, gamble!""""",1,risk,,,,,0.0,0.0,0.0,0.0,0.0,8.0,8.0,3.0,,,,,,,,,,,,,,,,,,,,,,,,,,,,,,,564.0975340899995,None,566.1195300949994,567.6402028729999,567.6235056719997,None,569.177585296,None,2.0,571.1494507070001,None,571.1494507070001,None,571.1494507070001,None,None,None,None,None,572.0685364589999,None,572.0685364589999,None,0,572.0685364589999,None,572.6199875339998,574.0571178459995,None,None,0.7476329709998026,0.508532154999557,,,,,,,,,,,,,104.0,1,18,1,2019_Dec_05_1037,Test,3.2.4,59.851063023776184
20,Pictures/IA20_10_G95p.bmp,Pictures/IA20_10_G95p.bmp,Pictures/IA20.bmp,"

Take a leap, I think you should gamble.""""",1,risk,,,,,0.0,0.0,0.0,0.0,0.0,9.0,9.0,10.0,,,,,,,,,,,,,,,,,,,,,,,,,,,,,,,574.0738170320001,None,576.1125332009998,577.6331930850001,577.6164980779995,None,579.1705920710001,None,2.0,581.1257337830002,None,581.1257337830002,None,581.1257337830002,None,None,None,None,None,582.2453476310002,None,582.2453476310002,None,0,582.2453476310002,None,582.7466888509998,584.2506261829994,None,None,0.9393507040003896,0.4517220259995156,,,,,,,,,,,,,104.0,1,18,1,2019_Dec_05_1037,Test,3.2.4,59.851063023776184
21,Pictures/IA75_G60.bmp,Pictures/IA75_G60.bmp,Pictures/IA75.bmp,"

Make it exciting, take a chance!""""",1,risk,,,,,0.0,0.0,0.0,0.0,0.0,10.0,10.0,18.0,,,,,,,,,,,,,,,,,,,,,,,,,,,,,,,584.2673514279995,None,586.2893429559999,587.8100149339998,587.7932977410001,None,589.3474001670002,None,2.0,591.3192633889994,None,591.3192633889994,None,591.3192633889994,None,None,None,None,None,592.4723004489997,None,592.4723004489997,None,0,592.4723004489997,None,592.8733442659995,594.4775706009996,None,None,0.985806567999134,0.35276839100060897,,,,,,,,,,,,,104.0,1,18,1,2019_Dec_05_1037,Test,3.2.4,59.851063023776184
22,Pictures/IA100_L60.bmp,Pictures/IA100_L60.bmp,Pictures/IA100.bmp,"

You'd have a lot to lose, don't gamble.""""",0,safe,,,,,0.0,0.0,0.0,0.0,0.0,11.0,11.0,8.0,,,,,,,,,,,,,,,,,,,,,,,,,,,,,,,594.4942922639993,None,596.5162851349996,598.03695849,598.0202382910002,None,599.5743431149995,None,2.0,601.5462046229995,None,601.5462046229995,None,601.5462046229995,None,None,None,None,None,603.3843679089996,None,603.3843679089996,None,0,603.3843679089996,None,604.2031922679998,605.3729503839995,None,None,1.6308799030002774,0.7847005430003264,,,,,,,,,,,,,104.0,1,18,1,2019_Dec_05_1037,Test,3.2.4,59.851063023776184
23,Pictures/IA25_L20.bmp,Pictures/IA25_L20.bmp,Pictures/IA25.bmp,"

Don't be tempted to gamble.""""",0,safe,,,,,0.0,0.0,0.0,0.0,0.0,12.0,12.0,15.0,,,,,,,,,,,,,,,,,,,,,,,,,,,,,,,605.3896507660002,None,607.4116463529999,608.9323154919994,608.9156258339999,None,610.469701469,None,1.0,612.4415647939995,None,612.4415647939995,None,612.4415647939995,None,612.5752495199995,None,612.5752495199995,613.5778865769998,614.6975089629996,None,614.6975089629996,None,0,614.6975089629996,None,615.950841885,None,None,None,0.015509864999330603,1.2075916419998975,,,,,,,,,,,,,104.0,1,18,1,2019_Dec_05_1037,Test,3.2.4,59.85106302377619
24,Pictures/IA75_G45.bmp,Pictures/IA75_G45.bmp,Pictures/IA75.bmp,"

Don't gamble for this one.""""",0,safe,,,,,0.0,0.0,0.0,0.0,0.0,13.0,13.0,9.0,,,,,,,,,,,,,,,,,,,,,,,,,,,,,,,616.7028025359996,None,618.7247931470001,620.2454521689998,620.2287601279995,None,621.7828423350002,None,2.0,623.7546974400002,None,623.7546974400002,None,623.7546974400002,None,None,None,None,None,624.6403797759995,None,624.6403797759995,None,0,624.6403797759995,None,625.1416852109996,626.6456612269994,None,None,0.7343767499996829,0.45669078199989604,,,,,,,,,,,,,104.0,1,18,1,2019_Dec_05_1037,Test,3.2.4,59.85106302377619
25,Pictures/IA50_G40.bmp,Pictures/IA50_G40.bmp,Pictures/IA50.bmp,"

It would probably be best to play it safe.""""",0,safe,,,,,0.0,0.0,0.0,0.0,0.0,14.0,14.0,13.0,,,,,,,,,,,,,,,,,,,,,,,,,,,,,,,626.662357743,None,628.6843532479998,630.2050236109999,630.1883274849997,None,631.6922813350002,None,2.0,633.7142860140002,None,633.7142860140002,None,633.7142860140002,None,None,None,None,None,634.783758992,None,634.783758992,None,1,634.783758992,None,None,None,635.067839757,636.7723366179998,0.8867922729996279,0.24131011299959934,,,,,,,,,,,,,104.0,1,18,1,2019_Dec_05_1037,Test,3.2.4,59.85106302377619
26,Pictures/IA75_L60.bmp,Pictures/IA75_L60.bmp,Pictures/IA75.bmp,"

Why not take the gamble?""""",1,risk,,,,,0.0,0.0,0.0,0.0,0.0,15.0,15.0,6.0,,,,,,,,,,,,,,,,,,,,,,,,,,,,,,,636.7890356829994,None,638.8110295239994,640.3317071739992,640.3150079979996,None,641.8690872480001,None,1.0,643.840954964,None,643.840954964,None,643.840954964,None,645.1945207919998,None,645.1945207919998,646.1971527059995,647.3000648420002,None,647.3000648420002,None,0,647.3000648420002,None,648.8040373009999,None,None,None,1.2401209350000502,1.4689983899997967,,,,,,,,,,,,,104.0,1,18,1,2019_Dec_05_1037,Test,3.2.4,59.85106302377619
27,Pictures/IA75_G15.bmp,Pictures/IA75_G15.bmp,Pictures/IA75.bmp,"

Take a chance!""""",1,risk,,,,,0.0,0.0,0.0,0.0,0.0,16.0,16.0,11.0,,,,,,,,,,,,,,,,,,,,,,,,,,,,,,,649.3220670889996,None,651.3440636599998,652.8647347890001,652.8480125619999,None,654.4021172129997,None,2.0,656.3739841890001,None,656.3739841890001,None,656.3739841890001,None,None,None,None,None,657.1593709279996,None,657.1593709279996,None,0,657.1593709279996,None,657.5604360529996,659.1646605469996,None,None,0.6350957260001451,0.361690436000572,,,,,,,,,,,,,104.0,1,18,1,2019_Dec_05_1037,Test,3.2.4,59.85106302377619
28,Pictures/IA25_L10.bmp,Pictures/IA25_L10.bmp,Pictures/IA25.bmp,"

Dont be afraid to take the risk!""""",1,risk,,,,,0.0,0.0,0.0,0.0,0.0,17.0,17.0,17.0,,,,,,,,,,,,,,,,,,,,,,,,,,,,,,,659.1813605609996,None,661.2033552909998,662.7240257849999,662.707335866,None,664.2948346379999,None,2.0,666.2332763099994,None,666.2332763099994,None,666.2332763099994,None,None,None,None,None,667.3027593719999,None,667.3027593719999,None,0,667.3027593719999,None,667.6202634649999,669.291329361,None,None,0.8718033999994077,0.27431270700071764,,,,,,,,,,,,,104.0,1,18,1,2019_Dec_05_1037,Test,3.2.4,59.85106302377619
29,Pictures/IA80_40_G95p.bmp,Pictures/IA80_40_G95p.bmp,Pictures/IA80.bmp,"

Think of the payoff, gamble!""""",1,risk,,,,,0.0,0.0,0.0,0.0,0.0,18.0,18.0,7.0,,,,,,,,,,,,,,,,,,,,,,,,,,,,,,,669.3080506189999,None,671.346756934,672.8674270909996,672.8507080669997,None,674.3880942400001,None,2.0,676.3599542789998,None,676.3599542789998,None,676.3599542789998,None,None,None,None,None,677.8973512590001,None,677.8973512590001,None,0,677.8973512590001,None,678.4655346899999,679.902619429,None,None,1.3851175649997458,0.5197115620003387,,,,,,,,,,,,,104.0,1,18,1,2019_Dec_05_1037,Test,3.2.4,59.851063023776184
30,Pictures/IA40_20_L95p.bmp,Pictures/IA40_20_L95p.bmp,Pictures/IA40.bmp,"

Trust me, gamble!""""",1,risk,,,,,0.0,0.0,0.0,0.0,0.0,19.0,19.0,2.0,,,,,,,,,,,,,,,,,,,,,,,,,,,,,,,679.9193376909998,None,681.9580443759996,683.4619943170002,683.4452954029994,None,684.9993807399997,None,2.0,686.971243125,None,686.971243125,None,686.971243125,None,None,None,None,None,687.7399519109995,None,687.7399519109995,None,1,687.7399519109995,None,None,None,688.024024675,689.728500665,0.5898309169997447,0.23711073300000865,,,,,,,,,,,,,104.0,1,18,1,2019_Dec_05_1037,Test,3.2.4,59.851063023776184
32,Pictures/IA100_L80.bmp,Pictures/IA100_L80.bmp,Pictures/IA100.bmp,"

Go all in!""""",1,risk,,,,,1.0,0.0,1.0,0.0,0.0,0.0,0.0,1.0,,,,,,,,,,,,,697.2817471939998,None,697.2817471939998,None,697.2817471939998,None,0,5.359320059999845,697.2817471939998,None,697.2817471939998,None,697.2817471939998,None,return,5.743118557000344,697.2817471939998,None,703.0803452049995,None,705.0856389459996,706.606309191,706.5895913329996,None,708.1269780900002,None,1.0,710.0988381110001,None,710.0988381110001,None,710.0988381110001,None,712.1709740979995,None,712.1709740979995,713.1736147629999,714.2765217380002,None,714.2765217380002,None,0,714.2765217380002,None,716.0812611279998,None,None,None,1.9902388690006771,1.7645489119995543,,,,,,,,,,,,,104.0,1,18,1,2019_Dec_05_1037,Test,3.2.4,59.85106302377619
33,Pictures/IA50_G20.bmp,Pictures/IA50_G20.bmp,Pictures/IA50.bmp,"

Let's venture and take a risk!""""",1,risk,,,,,1.0,0.0,1.0,0.0,0.0,1.0,1.0,15.0,,,,,,,,,,,,,,,,,,,,,,,,,,,,,,,716.2985215119998,None,718.3205059579996,719.8411765350003,719.8244586949995,None,721.3451050929998,None,2.0,723.3504306719997,None,723.3504306719997,None,723.3504306719997,None,None,None,None,None,724.2193871740001,None,724.2193871740001,None,0,724.2193871740001,None,724.5535860339996,726.2246493940002,None,None,0.7066446759999963,0.2936893269998109,,,,,,,,,,,,,104.0,1,18,1,2019_Dec_05_1037,Test,3.2.4,59.85106302377619
34,Pictures/IA75_L45.bmp,Pictures/IA75_L45.bmp,Pictures/IA75.bmp,"

Don't gamble for this one, play it safe.""""",0,safe,,,,,1.0,0.0,1.0,0.0,0.0,2.0,2.0,14.0,,,,,,,,,,,,,,,,,,,,,,,,,,,,,,,726.2413792420002,None,728.2633673979999,729.7840416170003,729.7673214249999,None,731.3214475240002,None,2.0,733.2932868999997,None,733.2932868999997,None,733.2932868999997,None,None,None,None,None,734.0619679579995,None,734.0619679579995,None,0,734.0619679579995,None,734.3627639609995,736.0505352259997,None,None,0.5957931499997358,0.2511045559995182,,,,,,,,,,,,,104.0,1,18,1,2019_Dec_05_1037,Test,3.2.4,59.851063023776184
35,Pictures/IA75_G60.bmp,Pictures/IA75_G60.bmp,Pictures/IA75.bmp,"

Make it exciting, take a chance!""""",1,risk,,,,,1.0,0.0,1.0,0.0,0.0,3.0,3.0,10.0,,,,,,,,,,,,,,,,,,,,,,,,,,,,,,,736.0672585140001,None,738.0892586720001,739.6099238890001,739.5932111450002,None,741.0971949479999,None,2.0,743.1191616870001,None,743.1191616870001,None,743.1191616870001,None,None,None,None,None,744.1719348870001,None,744.1719348870001,None,0,744.1719348870001,None,744.4058917929997,746.1772168899997,None,None,0.8739130499998282,0.18913555400013135,,,,,,,,,,,,,104.0,1,18,1,2019_Dec_05_1037,Test,3.2.4,59.851063023776184
36,Pictures/IA50_L40.bmp,Pictures/IA50_L40.bmp,Pictures/IA50.bmp,"

That gamble doesn't sound too good, play it safe.""""",0,safe,,,,,1.0,0.0,1.0,0.0,0.0,4.0,4.0,19.0,,,,,,,,,,,,,,,,,,,,,,,,,,,,,,,746.1939368539997,None,748.2159323229997,749.7366239369993,749.7198832419999,None,751.2572762350001,None,2.0,753.2458402430002,None,753.2458402430002,None,753.2458402430002,None,None,None,None,None,754.8166467699994,None,754.8166467699994,None,0,754.8166467699994,None,755.2678286849996,756.8052123910002,None,None,1.37123967000025,0.40842199899998377,,,,,,,,,,,,,104.0,1,18,1,2019_Dec_05_1037,Test,3.2.4,59.851063023776184
37,Pictures/IA25_L5.bmp,Pictures/IA25_L5.bmp,Pictures/IA25.bmp,"

It would be smarter to choose the safe option.""""",0,safe,,,,,1.0,0.0,1.0,0.0,0.0,5.0,5.0,18.0,,,,,,,,,,,,,,,,,,,,,,,,,,,,,,,756.8219335939993,None,758.8439282959998,760.3646000589998,760.3478814680002,None,761.8852760989994,None,2.0,763.8738376820002,None,763.8738376820002,None,763.8738376820002,None,None,None,None,None,764.9433387429999,None,764.9433387429999,None,0,764.9433387429999,None,765.3109551859998,766.9486191329997,None,None,0.8952473459994508,0.32972738799981016,,,,,,,,,,,,,104.0,1,18,1,2019_Dec_05_1037,Test,3.2.4,59.85106302377619
38,Pictures/IA50_G10.bmp,Pictures/IA50_G10.bmp,Pictures/IA50.bmp,"

Go with the safe option here!""""",0,safe,,,,,1.0,0.0,1.0,0.0,0.0,6.0,6.0,13.0,,,,,,,,,,,,,,,,,,,,,,,,,,,,,,,766.9653147529998,None,768.987306731,770.5079807349994,770.4912843550002,None,772.0286537579996,None,2.0,774.0172358999998,None,774.0172358999998,None,774.0172358999998,None,None,None,None,None,775.0365796859996,None,775.0365796859996,None,0,775.0365796859996,None,775.3039589729997,777.0418702440002,None,None,0.8638357439995161,0.2204955979996157,,,,,,,,,,,,,104.0,1,18,1,2019_Dec_05_1037,Test,3.2.4,59.85106302377619
39,Pictures/IA100_G40.bmp,Pictures/IA100_G40.bmp,Pictures/IA100.bmp,"

Try your luck and gamble!""""",1,risk,,,,,1.0,0.0,1.0,0.0,0.0,7.0,7.0,7.0,,,,,,,,,,,,,,,,,,,,,,,,,,,,,,,777.0585707929995,None,779.0805672759998,780.5845357349998,780.5678175689999,None,782.105198882,None,2.0,784.1104844009997,None,784.1104844009997,None,784.1104844009997,None,None,None,None,None,785.0128739579995,None,785.0128739579995,None,0,785.0128739579995,None,785.4640840029997,787.0181394330002,None,None,0.7225911950008594,0.4041940039996916,,,,,,,,,,,,,104.0,1,18,1,2019_Dec_05_1037,Test,3.2.4,59.85106302377619
40,Pictures/IA20_10_L95p.bmp,Pictures/IA20_10_L95p.bmp,Pictures/IA20.bmp,"

Don't be tempted to gamble.""""",0,safe,,,,,1.0,0.0,1.0,0.0,0.0,8.0,8.0,17.0,,,,,,,,,,,,,,,,,,,,,,,,,,,,,,,787.0348630210001,None,789.0568571019994,790.5775304489998,790.5608099289992,None,792.1149317549998,None,2.0,794.0867789269996,None,794.0867789269996,None,794.0867789269996,None,None,None,None,None,794.9223130599994,None,794.9223130599994,None,0,794.9223130599994,None,795.256510751,796.9108757839995,None,None,0.5782949639997241,0.2867668879998746,,,,,,,,,,,,,104.0,1,18,1,2019_Dec_05_1037,Test,3.2.4,59.85106302377619
41,Pictures/IA100_L20.bmp,Pictures/IA100_L20.bmp,Pictures/IA100.bmp,"

Try to win as much money as you can, gamble!""""",1,risk,,,,,1.0,0.0,1.0,0.0,0.0,9.0,9.0,0.0,,,,,,,,,,,,,,,,,,,,,,,,,,,,,,,796.9275900060002,None,798.9495909359995,800.470261118,800.4535414840002,None,801.9909319459994,None,2.0,803.979494399,None,803.979494399,None,803.979494399,None,None,None,None,None,804.7649134029998,None,804.7649134029998,None,0,804.7649134029998,None,805.0322642189994,806.7701826960001,None,None,0.5895796909999262,0.22016658399934386,,,,,,,,,,,,,104.0,1,18,1,2019_Dec_05_1037,Test,3.2.4,59.851063023776184
42,Pictures/IA80_40_G95p.bmp,Pictures/IA80_40_G95p.bmp,Pictures/IA80.bmp,"

Think of the payoff, gamble!""""",1,risk,,,,,1.0,0.0,1.0,0.0,0.0,10.0,10.0,16.0,,,,,,,,,,,,,,,,,,,,,,,,,,,,,,,806.7869002299994,None,808.8088920700003,810.3295648849999,810.3128448059997,None,811.816821812,None,2.0,813.8388032029998,None,813.8388032029998,None,813.8388032029998,None,None,None,None,None,814.6242095549997,None,814.6242095549997,None,0,814.6242095549997,None,814.8748631319995,816.6127712629996,None,None,0.6182770099994741,0.20085197199932736,,,,,,,,,,,,,104.0,1,18,1,2019_Dec_05_1037,Test,3.2.4,59.851063023776184
43,Pictures/IA25_G10.bmp,Pictures/IA25_G10.bmp,Pictures/IA25.bmp,"

What's life without a little risk?""""",1,risk,,,,,1.0,0.0,1.0,0.0,0.0,11.0,11.0,8.0,,,,,,,,,,,,,,,,,,,,,,,,,,,,,,,816.6294968439997,None,818.651494228,820.1721612599996,820.1554458989995,None,821.7095466999999,None,2.0,823.6814093229996,None,823.6814093229996,None,823.6814093229996,None,None,None,None,None,824.533608019,None,824.533608019,None,0,824.533608019,None,824.8344460789995,826.5389312420002,None,None,0.6876633939991734,0.2674614499992458,,,,,,,,,,,,,104.0,1,18,1,2019_Dec_05_1037,Test,3.2.4,59.85106302377619
44,Pictures/IA75_G45.bmp,Pictures/IA75_G45.bmp,Pictures/IA75.bmp,"

Don't gamble for this one.""""",0,safe,,,,,1.0,0.0,1.0,0.0,0.0,12.0,12.0,6.0,,,,,,,,,,,,,,,,,,,,,,,,,,,,,,,826.5556453720001,None,828.5776505009999,830.0983114659995,830.0815992789993,None,831.5855711429995,None,2.0,833.6075493829994,None,833.6075493829994,None,833.6075493829994,None,None,None,None,None,834.5433482669996,None,834.5433482669996,None,0,834.5433482669996,None,834.6603197759996,836.5319143219995,None,None,0.7695180999999138,0.08171791899985692,,,,,,,,,,,,,104.0,1,18,1,2019_Dec_05_1037,Test,3.2.4,59.85106302377619
45,Pictures/IA25_G5.bmp,Pictures/IA25_G5.bmp,Pictures/IA25.bmp,"

Let's stay with the certain option.""""",0,safe,,,,,1.0,0.0,1.0,0.0,0.0,13.0,13.0,5.0,,,,,,,,,,,,,,,,,,,,,,,,,,,,,,,836.548637594,None,838.5706342739995,840.0913032110002,840.0745885179996,None,841.6286890269994,None,2.0,843.6005538279996,None,843.6005538279996,None,843.6005538279996,None,None,None,None,None,844.7703016260002,None,844.7703016260002,None,0,844.7703016260002,None,845.3384493499998,846.775581676,None,None,0.976519286000439,0.526763333999952,,,,,,,,,,,,,104.0,1,18,1,2019_Dec_05_1037,Test,3.2.4,59.85106302377619
46,Pictures/IA25_L10.bmp,Pictures/IA25_L10.bmp,Pictures/IA25.bmp,"

Dont be afraid to take the risk!""""",1,risk,,,,,1.0,0.0,1.0,0.0,0.0,14.0,14.0,3.0,,,,,,,,,,,,,,,,,,,,,,,,,,,,,,,846.792279321,None,848.8142796559996,850.334946125,850.3182531410002,None,851.822203234,None,2.0,853.8442100379998,None,853.8442100379998,None,853.8442100379998,None,None,None,None,None,854.663019697,None,854.663019697,None,0,854.663019697,None,854.8635584619997,856.6516150359994,None,None,0.6528666889998931,0.15404779799973767,,,,,,,,,,,,,104.0,1,18,1,2019_Dec_05_1037,Test,3.2.4,59.85106302377619
47,Pictures/IA50_L30.bmp,Pictures/IA50_L30.bmp,Pictures/IA50.bmp,"

Take a leap, I think you should gamble.""""",1,risk,,,,,1.0,0.0,1.0,0.0,0.0,15.0,15.0,4.0,,,,,,,,,,,,,,,,,,,,,,,,,,,,,,,856.6682975439999,None,858.6902916130002,860.2109644579996,860.1942681740002,None,861.7483595369995,None,2.0,863.7202140179998,None,863.7202140179998,None,863.7202140179998,None,None,None,None,None,864.4721950339999,None,864.4721950339999,None,0,864.4721950339999,None,864.6058866570002,866.4774835359995,None,None,0.5688527319998684,0.0968630409997786,,,,,,,,,,,,,104.0,1,18,1,2019_Dec_05_1037,Test,3.2.4,59.851063023776184
48,Pictures/IA110_55_L95p.bmp,Pictures/IA110_55_L95p.bmp,Pictures/IA110.bmp,"

Trust me, gamble!""""",1,risk,,,,,1.0,0.0,1.0,0.0,0.0,16.0,16.0,11.0,,,,,,,,,,,,,,,,,,,,,,,,,,,,,,,866.4941836469998,None,868.5328937029999,870.036862205,870.0201427109996,None,871.574251047,None,2.0,873.5461100080001,None,873.5461100080001,None,873.5461100080001,None,None,None,None,None,874.415071974,None,874.415071974,None,1,874.415071974,None,None,None,874.6490020169995,876.4203439189996,0.7029560919991127,0.1859959979992709,,,,,,,,,,,,,104.0,1,18,1,2019_Dec_05_1037,Test,3.2.4,59.851063023776184
49,Pictures/IA50_G30.bmp,Pictures/IA50_G30.bmp,Pictures/IA50.bmp,"

I think you should gamble.""""",1,risk,,,,,1.0,0.0,1.0,0.0,0.0,17.0,17.0,2.0,,,,,,,,,,,,,,,,,,,,,,,,,,,,,,,876.4370439969998,None,878.45904539,879.9797108559998,879.9630330959999,None,881.4836730939996,None,2.0,883.4889602399999,None,883.4889602399999,None,883.4889602399999,None,None,None,None,None,884.0237003960001,None,884.0237003960001,None,0,884.0237003960001,None,884.2743623199995,886.0122695089995,885.6780565519994,None,0.3841217150002194,1.665368443000261,,,,,,,,,,,,,104.0,1,18,1,2019_Dec_05_1037,Test,3.2.4,59.85106302377619
50,Pictures/IA75_L15.bmp,Pictures/IA75_L15.bmp,Pictures/IA75.bmp,"

Trust me, gamble!""""",1,risk,,,,,1.0,0.0,1.0,0.0,0.0,18.0,18.0,12.0,,,,,,,,,,,,,,,,,,,,,,,,,,,,,,,886.0289910129995,None,888.0509882790002,889.5716574930002,889.5549397069999,None,891.1090470849995,None,2.0,893.080907818,None,893.080907818,None,893.080907818,None,None,None,None,None,893.7994571239997,None,893.7994571239997,None,0,893.7994571239997,None,893.9665751920002,895.8047344489996,None,None,0.5681757749998724,0.12960833000033745,,,,,,,,,,,,,104.0,1,18,1,2019_Dec_05_1037,Test,3.2.4,59.851063023776184
51,Pictures/IA50_L20.bmp,Pictures/IA50_L20.bmp,Pictures/IA50.bmp,"

Certainty is boring, take a risk!""""",1,risk,,,,,1.0,0.0,1.0,0.0,0.0,19.0,19.0,9.0,,,,,,,,,,,,,,,,,,,,,,,,,,,,,,,895.8214604710001,None,897.8434654570001,899.3641278380002,899.3474074289998,None,900.8680879469994,None,2.0,902.873372221,None,902.873372221,None,902.873372221,None,None,None,None,None,904.427453622,None,904.427453622,None,0,904.427453622,None,904.6112695249994,906.4160203209995,None,None,1.3917024610000226,0.14161294299992733,,,,,,,,,,,,,104.0,1,18,1,2019_Dec_05_1037,Test,3.2.4,59.851063023776184
53,Pictures/IA20_10_G95p.bmp,Pictures/IA20_10_G95p.bmp,Pictures/IA20.bmp,"

Take a leap, I think you should gamble.""""",1,risk,,,,,2.0,0.0,2.0,0.0,0.0,0.0,0.0,5.0,,,,,,,,,,,,,910.6605522999998,None,910.6605522999998,None,910.6605522999998,None,0,2.612515308000184,910.6605522999998,None,910.6605522999998,None,910.6605522999998,None,return,4.300394913999298,910.6605522999998,None,915.0053237339998,None,917.0106124360001,918.5312885249997,918.5145659339996,None,920.0352518660002,None,2.0,922.0405378589994,None,922.0405378589994,None,922.0405378589994,None,None,None,None,None,922.5752676149996,None,922.5752676149996,None,0,922.5752676149996,None,923.1601348049999,924.5638317619996,None,None,0.36052537500017934,0.537796456000251,,,,,,,,,,,,,104.0,1,18,1,2019_Dec_05_1037,Test,3.2.4,59.851063023776184
54,Pictures/IA25_L10.bmp,Pictures/IA25_L10.bmp,Pictures/IA25.bmp,"

Dont be afraid to take the risk!""""",1,risk,,,,,2.0,0.0,2.0,0.0,0.0,1.0,1.0,18.0,,,,,,,,,,,,,,,,,,,,,,,,,,,,,,,924.5805595410002,None,926.6025508719995,928.123219225,928.106503393,None,929.6271854749994,None,2.0,931.6324693669994,None,931.6324693669994,None,931.6324693669994,None,None,None,None,None,932.0669484499995,None,932.0669484499995,None,0,932.0669484499995,None,932.267461081,934.0722175279998,None,None,0.2805953449997105,0.16611423399990602,,,,,,,,,,,,,104.0,1,18,1,2019_Dec_05_1037,Test,3.2.4,59.85106302377619
55,Pictures/IA50_G40.bmp,Pictures/IA50_G40.bmp,Pictures/IA50.bmp,"

It would probably be best to play it safe.""""",0,safe,,,,,2.0,0.0,2.0,0.0,0.0,2.0,2.0,19.0,,,,,,,,,,,,,,,,,,,,,,,,,,,,,,,934.0889363910001,None,936.1109386939997,937.631604325,937.6148914439999,None,939.1355681429995,None,2.0,941.1408701599994,None,941.1408701599994,None,941.1408701599994,None,None,None,None,None,941.6087451499998,None,941.6087451499998,None,0,941.6087451499998,None,941.8593982249995,943.5973079169999,None,None,0.2922137539999312,0.20832206400064024,,,,,,,,,,,,,104.0,1,18,1,2019_Dec_05_1037,Test,3.2.4,59.85106302377619
56,Pictures/IA40_20_G95p.bmp,Pictures/IA40_20_G95p.bmp,Pictures/IA40.bmp,"

Hold back, stay with the safe choice.""""",0,safe,,,,,2.0,0.0,2.0,0.0,0.0,3.0,3.0,8.0,,,,,,,,,,,,,,,,,,,,,,,,,,,,,,,943.6140298949995,None,945.6360311520003,947.156701045,947.1399836760002,None,948.6940844849996,None,2.0,950.6659482579998,None,950.6659482579998,None,950.6659482579998,None,None,None,None,None,951.2842409389996,None,951.2842409389996,None,0,951.2842409389996,None,952.4873993789997,None,None,None,0.43913314000019454,1.1568278069998996,,,,,,,,,,,,,104.0,1,18,1,2019_Dec_05_1037,Test,3.2.4,59.851063023776184
57,Pictures/IA100_L40.bmp,Pictures/IA100_L40.bmp,Pictures/IA100.bmp,"

Think of the payoff, gamble!""""",1,risk,,,,,2.0,0.0,2.0,0.0,0.0,4.0,4.0,17.0,,,,,,,,,,,,,,,,,,,,,,,,,,,,,,,953.3062310219993,None,955.3282258969994,956.8489028929997,956.8321765780001,None,958.3528613009994,None,2.0,960.3581472079995,None,960.3581472079995,None,960.3581472079995,None,None,None,None,None,960.8093348140001,None,960.8093348140001,None,0,960.8093348140001,None,961.0599934599995,962.797903871,None,None,0.2749298660000932,0.2157298390002325,,,,,,,,,,,,,104.0,1,18,1,2019_Dec_05_1037,Test,3.2.4,59.851063023776184
58,Pictures/IA40_20_L95p.bmp,Pictures/IA40_20_L95p.bmp,Pictures/IA40.bmp,"

Trust me, gamble!""""",1,risk,,,,,2.0,0.0,2.0,0.0,0.0,5.0,5.0,14.0,,,,,,,,,,,,,,,,,,,,,,,,,,,,,,,962.8146020909999,None,964.8365989659997,966.3572661910002,966.3405727039999,None,967.8445231449996,None,2.0,969.8665301419996,None,969.8665301419996,None,969.8665301419996,None,None,None,None,None,970.7187651939994,None,970.7187651939994,None,1,970.7187651939994,None,None,None,971.08640595,972.724041808,0.6865372210004352,0.3223151169995617,,,,,,,,,,,,,104.0,1,18,1,2019_Dec_05_1037,Test,3.2.4,59.851063023776184
59,Pictures/IA75_G15.bmp,Pictures/IA75_G15.bmp,Pictures/IA75.bmp,"

Take a chance!""""",1,risk,,,,,2.0,0.0,2.0,0.0,0.0,6.0,6.0,4.0,,,,,,,,,,,,,,,,,,,,,,,,,,,,,,,972.740774375,None,974.7627641150002,976.2834365439993,976.2667117969996,None,977.787398902,None,2.0,979.7926843679998,None,979.7926843679998,None,979.7926843679998,None,None,None,None,None,980.7284917819998,None,980.7284917819998,None,0,980.7284917819998,None,980.9457138170001,982.7170350409997,None,None,0.7763927669993791,0.17657377300020016,,,,,,,,,,,,,104.0,1,18,1,2019_Dec_05_1037,Test,3.2.4,59.85106302377619
60,Pictures/IA25_L5.bmp,Pictures/IA25_L5.bmp,Pictures/IA25.bmp,"

It would be smarter to choose the safe option.""""",0,safe,,,,,2.0,0.0,2.0,0.0,0.0,7.0,7.0,1.0,,,,,,,,,,,,,,,,,,,,,,,,,,,,,,,982.7337774739999,None,984.7557504629995,986.2764235589992,986.2597093910001,None,987.763677424,None,2.0,989.7856630229999,None,989.7856630229999,None,989.7856630229999,None,None,None,None,None,990.3538347029998,None,990.3538347029998,None,0,990.3538347029998,None,990.6379174809999,992.3423937010002,None,None,0.39940766299969255,0.2392359440000291,,,,,,,,,,,,,104.0,1,18,1,2019_Dec_05_1037,Test,3.2.4,59.85106302377619
61,Pictures/IA75_G60.bmp,Pictures/IA75_G60.bmp,Pictures/IA75.bmp,"

Make it exciting, take a chance!""""",1,risk,,,,,2.0,0.0,2.0,0.0,0.0,8.0,8.0,10.0,,,,,,,,,,,,,,,,,,,,,,,,,,,,,,,992.3591163519995,None,994.3811142240003,995.901779983,995.885066455,None,997.4057435489995,None,2.0,999.4110296680001,None,999.4110296680001,None,999.4110296680001,None,None,None,None,None,999.9624850509999,None,999.9624850509999,None,0,999.9624850509999,None,1000.2131393029995,1001.9510563329995,None,None,0.3820482239998455,0.21457473499958726,,,,,,,,,,,,,104.0,1,18,1,2019_Dec_05_1037,Test,3.2.4,59.851063023776184
62,Pictures/IA75_L30.bmp,Pictures/IA75_L30.bmp,Pictures/IA75.bmp,"

Hold back, stay with the safe choice.""""",0,safe,,,,,2.0,0.0,2.0,0.0,0.0,9.0,9.0,7.0,,,,,,,,,,,,,,,,,,,,,,,,,,,,,,,1001.9677496499999,None,1003.9897457349997,1005.5104160960001,1005.4937236320002,None,1006.9976723689997,None,2.0,1009.0196813349994,None,1009.0196813349994,None,1009.0196813349994,None,None,None,None,None,1009.9053423719997,None,1009.9053423719997,None,0,1009.9053423719997,None,1010.1726999309994,1011.9106226139993,None,None,0.7174031250015105,0.2237244850002753,,,,,,,,,,,,,104.0,1,18,1,2019_Dec_05_1037,Test,3.2.4,59.851063023776184
63,Pictures/IA25_G20.bmp,Pictures/IA25_G20.bmp,Pictures/IA25.bmp,"

I wouldn't gamble for this one. """"",0,safe,,,,,2.0,0.0,2.0,0.0,0.0,10.0,10.0,9.0,,,,,,,,,,,,,,,,,,,,,,,,,,,,,,,1011.9273226740006,None,1013.949317827999,1015.4699923400003,1015.453291595999,None,1017.0073726280007,None,1.0,1018.9792362509997,None,1018.9792362509997,None,1018.9792362509997,None,1020.6168957970003,None,1020.6168957970003,1021.6195319550006,1022.739161051999,None,1022.739161051999,None,1,1022.739161051999,None,None,None,1023.0566574969998,1024.7277211609999,1.5258376900001167,0.2778973429994949,,,,,,,,,,,,,104.0,1,18,1,2019_Dec_05_1037,Test,3.2.4,59.85106302377619
64,Pictures/IA50_L20.bmp,Pictures/IA50_L20.bmp,Pictures/IA50.bmp,"

Certainty is boring, take a risk!""""",1,risk,,,,,2.0,0.0,2.0,0.0,0.0,11.0,11.0,12.0,,,,,,,,,,,,,,,,,,,,,,,,,,,,,,,1024.7444219730005,None,1026.7664189459992,1028.2870878739996,1028.270394878,None,1029.7743401530006,None,2.0,1031.796350618999,None,1031.796350618999,None,1031.796350618999,None,None,None,None,None,1032.4313566729998,None,1032.4313566729998,None,0,1032.4313566729998,None,1032.6820100919995,1034.419926056,None,None,0.4767238370004634,0.20970595500148195,,,,,,,,,,,,,104.0,1,18,1,2019_Dec_05_1037,Test,3.2.4,59.851063023776184
65,Pictures/IA100_G80.bmp,Pictures/IA100_G80.bmp,Pictures/IA100.bmp,"

Why not gamble?""""",1,risk,,,,,2.0,0.0,2.0,0.0,0.0,12.0,12.0,0.0,,,,,,,,,,,,,,,,,,,,,,,,,,,,,,,1034.4366265970002,None,1036.458616627,1037.9792881960002,1037.962590346,None,1039.5166769200005,None,2.0,1041.4885368630003,None,1041.4885368630003,None,1041.4885368630003,None,None,None,None,None,1042.407635788999,None,1042.407635788999,None,0,1042.407635788999,None,1043.2765760420007,1044.4129025000002,None,None,0.7685273199986113,0.8254301140004827,,,,,,,,,,,,,104.0,1,18,1,2019_Dec_05_1037,Test,3.2.4,59.85106302377619
66,Pictures/IA100_L80.bmp,Pictures/IA100_L80.bmp,Pictures/IA100.bmp,"

Go all in!""""",1,risk,,,,,2.0,0.0,2.0,0.0,0.0,13.0,13.0,3.0,,,,,,,,,,,,,,,,,,,,,,,,,,,,,,,1044.429625835999,None,1046.4516203109997,1047.9722909020002,1047.955572393999,None,1049.4929704389997,None,2.0,1051.4815277060006,None,1051.4815277060006,None,1051.4815277060006,None,None,None,None,None,1052.2168091950007,None,1052.2168091950007,None,0,1052.2168091950007,None,1052.467468461,1054.205383052,None,None,0.591545216000668,0.20825575699927867,,,,,,,,,,,,,104.0,1,18,1,2019_Dec_05_1037,Test,3.2.4,59.85106302377619
67,Pictures/IA100_G40.bmp,Pictures/IA100_G40.bmp,Pictures/IA100.bmp,"

Try your luck and gamble!""""",1,risk,,,,,2.0,0.0,2.0,0.0,0.0,14.0,14.0,16.0,,,,,,,,,,,,,,,,,,,,,,,,,,,,,,,1054.2220775370006,None,1056.2440787079995,1057.764745295999,1057.748060934,None,1059.2854196980006,None,2.0,1061.274006276999,None,1061.274006276999,None,1061.274006276999,None,None,None,None,None,1061.7251826539996,None,1061.7251826539996,None,0,1061.7251826539996,None,1062.042682854999,1063.7137502839996,None,None,0.2870674220012006,0.275896000001012,,,,,,,,,,,,,104.0,1,18,1,2019_Dec_05_1037,Test,3.2.4,59.85106302377619
68,Pictures/IA75_G45.bmp,Pictures/IA75_G45.bmp,Pictures/IA75.bmp,"

Don't gamble for this one.""""",0,safe,,,,,2.0,0.0,2.0,0.0,0.0,15.0,15.0,11.0,,,,,,,,,,,,,,,,,,,,,,,,,,,,,,,1063.7304724080004,None,1065.7524680429997,1067.2731389780001,1067.256421426,None,1068.7771035040005,None,2.0,1070.7823887840004,None,1070.7823887840004,None,1070.7823887840004,None,None,None,None,None,1071.333833236,None,1071.333833236,None,0,1071.333833236,None,1071.6513308989997,1073.3223980700004,None,None,0.39468175700130814,0.2752343230004044,,,,,,,,,,,,,104.0,1,18,1,2019_Dec_05_1037,Test,3.2.4,59.85106302377619
69,Pictures/IA100_G20.bmp,Pictures/IA100_G20.bmp,Pictures/IA100.bmp,"

Go ahead and gamble!""""",1,risk,,,,,2.0,0.0,2.0,0.0,0.0,16.0,16.0,15.0,,,,,,,,,,,,,,,,,,,,,,,,,,,,,,,1073.3391207860004,None,1075.3611151610003,1076.8817860769996,1076.865067360999,None,1078.3857513919993,None,1.0,1080.391040045999,None,1080.391040045999,None,1080.391040045999,None,1082.0453841409999,None,1082.0453841409999,1083.0480200729999,1084.1676376609994,None,1084.1676376609994,None,0,1084.1676376609994,None,1084.6021257369994,1086.1729176579993,None,None,1.5620371229997545,0.3934302839988959,,,,,,,,,,,,,104.0,1,18,1,2019_Dec_05_1037,Test,3.2.4,59.85106302377619
70,Pictures/IA100_G60.bmp,Pictures/IA100_G60.bmp,Pictures/IA100.bmp,"

Be cautious, don't gamble for this one.""""",0,safe,,,,,2.0,0.0,2.0,0.0,0.0,17.0,17.0,2.0,,,,,,,,,,,,,,,,,,,,,,,,,,,,,,,1086.1896467820006,None,1088.21163575,1089.7323412860003,1089.715588481,None,1091.269699479999,None,2.0,1093.2415558110006,None,1093.2415558110006,None,1093.2415558110006,None,None,None,None,None,1093.6760319189998,None,1093.6760319189998,None,0,1093.6760319189998,None,1094.0102432429994,1095.6813125770004,None,None,0.2635166849995585,0.2930316320016573,,,,,,,,,,,,,104.0,1,18,1,2019_Dec_05_1037,Test,3.2.4,59.851063023776184
71,Pictures/IA25_G5.bmp,Pictures/IA25_G5.bmp,Pictures/IA25.bmp,"

Let's stay with the certain option.""""",0,safe,,,,,2.0,0.0,2.0,0.0,0.0,18.0,18.0,6.0,,,,,,,,,,,,,,,,,,,,,,,,,,,,,,,1095.698013407,None,1097.7200065430006,1099.2239924370006,1099.2073100569996,None,1100.744656044999,None,2.0,1102.7499273989997,None,1102.7499273989997,None,1102.7499273989997,None,None,None,None,None,1104.6382341930002,None,1104.6382341930002,None,0,1104.6382341930002,None,1105.4738025030001,1106.643514125999,None,None,1.6991586920012196,0.7868343259997346,,,,,,,,,,,,,104.0,1,18,1,2019_Dec_05_1037,Test,3.2.4,59.85106302377619
72,Pictures/IA50_G10.bmp,Pictures/IA50_G10.bmp,Pictures/IA50.bmp,"

Go with the safe option here!""""",0,safe,,,,,2.0,0.0,2.0,0.0,0.0,19.0,19.0,13.0,,,,,,,,,,,,,,,,,,,,,,,,,,,,,,,1106.6602369659995,None,1108.6822309300005,1110.1861793280004,1110.1694861260003,None,1111.7235772160002,None,2.0,1113.7121432259992,None,1113.7121432259992,None,1113.7121432259992,None,None,None,None,None,1115.2829446960004,None,1115.2829446960004,None,0,1115.2829446960004,None,1115.6505882460006,1117.2882233029995,None,None,1.4169282889997703,0.33411502200033283,,,,,,,,,,,,,104.0,1,18,1,2019_Dec_05_1037,Test,3.2.4,59.85106302377619
74,Pictures/IA25_L20.bmp,Pictures/IA25_L20.bmp,Pictures/IA25.bmp,"

Don't be tempted to gamble.""""",0,safe,,,,,3.0,0.0,3.0,0.0,0.0,0.0,0.0,11.0,,,,,,,,,,,,,1131.8432379699989,None,1131.8432379699989,None,1131.8432379699989,None,0,5.173837641999853,1131.8432379699989,None,1131.8432379699989,None,1131.8432379699989,None,return,6.517617384000914,1131.8432379699989,None,1138.4105370609996,None,1140.4325303019996,1141.9531987640005,1141.9365067349988,None,1143.4571851290002,None,2.0,1145.4457411250005,None,1145.4457411250005,None,1145.4457411250005,None,None,None,None,None,1146.1643114199996,None,1146.1643114199996,None,0,1146.1643114199996,None,1146.381548284,1148.1528678760005,None,None,0.5633321669993165,0.1807549229997676,,,,,,,,,,,,,104.0,1,18,1,2019_Dec_05_1037,Test,3.2.4,59.85106302377619
75,Pictures/IA75_G30.bmp,Pictures/IA75_G30.bmp,Pictures/IA75.bmp,"

Be bold, gamble!""""",1,risk,,,,,3.0,0.0,3.0,0.0,0.0,1.0,1.0,8.0,,,,,,,,,,,,,,,,,,,,,,,,,,,,,,,1148.169598171,None,1150.1915881160005,1151.7122563009998,1151.695536739,None,1153.2496458940004,None,2.0,1155.221507405,None,1155.221507405,None,1155.221507405,None,None,None,None,None,1155.8063681109998,None,1155.8063681109998,None,0,1155.8063681109998,None,1156.0737479750005,1157.8116647940005,None,None,0.4275663289990917,0.21870173599927512,,,,,,,,,,,,,104.0,1,18,1,2019_Dec_05_1037,Test,3.2.4,59.851063023776184
76,Pictures/IA100_G80.bmp,Pictures/IA100_G80.bmp,Pictures/IA100.bmp,"

Why not gamble?""""",1,risk,,,,,3.0,0.0,3.0,0.0,0.0,2.0,2.0,13.0,,,,,,,,,,,,,,,,,,,,,,,,,,,,,,,1157.828357164999,None,1159.8503538339992,1161.371024140999,1161.3543283220004,None,1162.858278607,None,2.0,1164.880289539,None,1164.880289539,None,1164.880289539,None,None,None,None,None,1165.381604533999,None,1165.381604533999,None,0,1165.381604533999,None,1165.6322624740005,1167.3701737810006,None,None,0.3367923839996365,0.2114614590009296,,,,,,,,,,,,,104.0,1,18,1,2019_Dec_05_1037,Test,3.2.4,59.85106302377619
77,Pictures/IA40_20_L95p.bmp,Pictures/IA40_20_L95p.bmp,Pictures/IA40.bmp,"

Trust me, gamble!""""",1,risk,,,,,3.0,0.0,3.0,0.0,0.0,3.0,3.0,6.0,,,,,,,,,,,,,,,,,,,,,,,,,,,,,,,1167.386871965,None,1169.4088709299995,1170.9295423080002,1170.9128425590006,None,1172.4335071250007,None,2.0,1174.4387920110003,None,1174.4387920110003,None,1174.4387920110003,None,None,None,None,None,1174.9066887320005,None,1174.9066887320005,None,0,1174.9066887320005,None,1175.1573447869996,1176.8952551870007,None,None,0.3142757730001904,0.20637646900104298,,,,,,,,,,,,,104.0,1,18,1,2019_Dec_05_1037,Test,3.2.4,59.851063023776184
78,Pictures/IA75_G15.bmp,Pictures/IA75_G15.bmp,Pictures/IA75.bmp,"

Take a chance!""""",1,risk,,,,,3.0,0.0,3.0,0.0,0.0,4.0,4.0,12.0,,,,,,,,,,,,,,,,,,,,,,,,,,,,,,,1176.9119791779995,None,1178.933978904999,1180.4379334309995,1180.4212156020005,None,1181.95859939,None,2.0,1183.9638839239997,None,1183.9638839239997,None,1183.9638839239997,None,None,None,None,None,1185.768643378,None,1185.768643378,None,0,1185.768643378,None,1186.370230867,1187.7739336140003,None,None,1.6451885189999302,0.5524218989994552,,,,,,,,,,,,,104.0,1,18,1,2019_Dec_05_1037,Test,3.2.4,59.85106302377619
79,Pictures/IA20_10_L95p.bmp,Pictures/IA20_10_L95p.bmp,Pictures/IA20.bmp,"

Don't be tempted to gamble.""""",0,safe,,,,,3.0,0.0,3.0,0.0,0.0,5.0,5.0,1.0,,,,,,,,,,,,,,,,,,,,,,,,,,,,,,,1187.7906298689995,None,1189.8126244630002,1191.333302601999,1191.3165994400003,None,1192.8372549619999,None,2.0,1194.8425412569995,None,1194.8425412569995,None,1194.8425412569995,None,None,None,None,None,1195.8618942989997,None,1195.8618942989997,None,0,1195.8618942989997,None,1196.229536515999,1197.8671720830007,None,None,0.8465302739987237,0.33116642399909324,,,,,,,,,,,,,104.0,1,18,1,2019_Dec_05_1037,Test,3.2.4,59.85106302377619
80,Pictures/IA20_10_G95p.bmp,Pictures/IA20_10_G95p.bmp,Pictures/IA20.bmp,"

Take a leap, I think you should gamble.""""",1,risk,,,,,3.0,0.0,3.0,0.0,0.0,6.0,6.0,7.0,,,,,,,,,,,,,,,,,,,,,,,,,,,,,,,1197.8838942420007,None,1199.90588948,1201.4265605540006,1201.4098066690003,None,1202.913814301999,None,2.0,1204.9357986710002,None,1204.9357986710002,None,1204.9357986710002,None,None,None,None,None,1206.1556784170007,None,1206.1556784170007,None,0,1206.1556784170007,None,1206.489900056,1208.1609677489996,None,None,1.0492713060011738,0.29338691199882305,,,,,,,,,,,,,104.0,1,18,1,2019_Dec_05_1037,Test,3.2.4,59.851063023776184
81,Pictures/IA75_L15.bmp,Pictures/IA75_L15.bmp,Pictures/IA75.bmp,"

Trust me, gamble!""""",1,risk,,,,,3.0,0.0,3.0,0.0,0.0,7.0,7.0,0.0,,,,,,,,,,,,,,,,,,,,,,,,,,,,,,,1208.177666775,None,1210.1996659819995,1211.7203335680006,1211.703641446,None,1213.2242971729993,None,2.0,1215.2295840629995,None,1215.2295840629995,None,1215.2295840629995,None,None,None,None,None,1216.6500047659993,None,1216.6500047659993,None,0,1216.6500047659993,None,1216.9173615540003,1218.6552730980002,None,None,1.2595070659990597,0.23105905000011265,,,,,,,,,,,,,104.0,1,18,1,2019_Dec_05_1037,Test,3.2.4,59.851063023776184
82,Pictures/IA100_L20.bmp,Pictures/IA100_L20.bmp,Pictures/IA100.bmp,"

Try to win as much money as you can, gamble!""""",1,risk,,,,,3.0,0.0,3.0,0.0,0.0,8.0,8.0,3.0,,,,,,,,,,,,,,,,,,,,,,,,,,,,,,,1218.6719928620005,None,1220.6939874759994,1222.2146586609995,1222.1979410299991,None,1223.718622278,None,2.0,1225.7239077880004,None,1225.7239077880004,None,1225.7239077880004,None,None,None,None,None,1226.7265375450006,None,1226.7265375450006,None,0,1226.7265375450006,None,1227.1443009249997,1228.7151175870003,None,None,0.8291656590008643,0.37053933100105496,,,,,,,,,,,,,104.0,1,18,1,2019_Dec_05_1037,Test,3.2.4,59.851063023776184
83,Pictures/IA50_G20.bmp,Pictures/IA50_G20.bmp,Pictures/IA50.bmp,"

Let's venture and take a risk!""""",1,risk,,,,,3.0,0.0,3.0,0.0,0.0,9.0,9.0,9.0,,,,,,,,,,,,,,,,,,,,,,,,,,,,,,,1228.731824351,None,1230.7538122650003,1232.274484051999,1232.2577875909992,None,1233.8787362700004,None,2.0,1235.7837603810003,None,1235.7837603810003,None,1235.7837603810003,None,None,None,None,None,1236.2850936819996,None,1236.2850936819996,None,0,1236.2850936819996,None,1236.7362877630003,1238.273614185,None,None,0.2493238799997925,0.4119715119995817,,,,,,,,,,,,,104.0,1,18,1,2019_Dec_05_1037,Test,3.2.4,59.85106302377619
84,Pictures/IA75_L30.bmp,Pictures/IA75_L30.bmp,Pictures/IA75.bmp,"

Hold back, stay with the safe choice.""""",0,safe,,,,,3.0,0.0,3.0,0.0,0.0,10.0,10.0,17.0,,,,,,,,,,,,,,,,,,,,,,,,,,,,,,,1238.2903388089999,None,1240.3290304799993,1241.8329940879996,1241.8162807930003,None,1243.3703798810002,None,2.0,1245.342242323999,None,1245.342242323999,None,1245.342242323999,None,None,None,None,None,1246.3281657389998,None,1246.3281657389998,None,0,1246.3281657389998,None,1246.8796441060003,1248.3167477789993,None,None,0.8028177060004964,0.5128990749999502,,,,,,,,,,,,,104.0,1,18,1,2019_Dec_05_1037,Test,3.2.4,59.851063023776184
85,Pictures/IA100_G40.bmp,Pictures/IA100_G40.bmp,Pictures/IA100.bmp,"

Try your luck and gamble!""""",1,risk,,,,,3.0,0.0,3.0,0.0,0.0,11.0,11.0,2.0,,,,,,,,,,,,,,,,,,,,,,,,,,,,,,,1248.3334415059999,None,1250.3721503390007,1251.8763922090002,1251.8594057150005,None,1253.4135031139995,None,2.0,1255.3853830989992,None,1255.3853830989992,None,1255.3853830989992,None,None,None,None,None,1256.103958149999,None,1256.103958149999,None,0,1256.103958149999,None,1256.4882874289997,1258.0924778770004,None,None,0.5196847730003356,0.3450879060001171,,,,,,,,,,,,,104.0,1,18,1,2019_Dec_05_1037,Test,3.2.4,59.85106302377619
86,Pictures/IA25_L5.bmp,Pictures/IA25_L5.bmp,Pictures/IA25.bmp,"

It would be smarter to choose the safe option.""""",0,safe,,,,,3.0,0.0,3.0,0.0,0.0,12.0,12.0,18.0,,,,,,,,,,,,,,,,,,,,,,,,,,,,,,,1258.1092040090007,None,1260.147900209,1261.651868727,1261.6351742959994,None,1263.1892615590004,None,2.0,1265.161110125,None,1265.161110125,None,1265.161110125,None,None,None,None,None,1266.046784889999,None,1266.046784889999,None,0,1266.046784889999,None,1266.3475885919997,1268.0353525970004,None,None,0.7119512410008609,0.25827640099851124,,,,,,,,,,,,,104.0,1,18,1,2019_Dec_05_1037,Test,3.2.4,59.85106302377619
87,Pictures/IA80_40_G95p.bmp,Pictures/IA80_40_G95p.bmp,Pictures/IA80.bmp,"

Think of the payoff, gamble!""""",1,risk,,,,,3.0,0.0,3.0,0.0,0.0,13.0,13.0,4.0,,,,,,,,,,,,,,,,,,,,,,,,,,,,,,,1268.0520746130005,None,1270.0908883869995,1271.5947315880005,1271.5780405410005,None,1273.1321159180006,None,2.0,1275.103980332,None,1275.103980332,None,1275.103980332,None,None,None,None,None,1275.7389923749997,None,1275.7389923749997,None,0,1275.7389923749997,None,1276.0899200469994,1277.727555477999,None,None,0.4730977830004122,0.3020716050014016,,,,,,,,,,,,,104.0,1,18,1,2019_Dec_05_1037,Test,3.2.4,59.851063023776184
88,Pictures/IA75_L45.bmp,Pictures/IA75_L45.bmp,Pictures/IA75.bmp,"

Don't gamble for this one, play it safe.""""",0,safe,,,,,3.0,0.0,3.0,0.0,0.0,14.0,14.0,19.0,,,,,,,,,,,,,,,,,,,,,,,,,,,,,,,1277.7442727489997,None,1279.7662723659994,1281.2702391099992,1281.253519631,None,1282.8243206509997,None,2.0,1284.796185866,None,1284.796185866,None,1284.796185866,None,None,None,None,None,1285.5314671209999,None,1285.5314671209999,None,0,1285.5314671209999,None,1285.8322452899993,1287.536750841,None,None,0.5248903450010403,0.26159964100043,,,,,,,,,,,,,104.0,1,18,1,2019_Dec_05_1037,Test,3.2.4,59.851063023776184
89,Pictures/IA50_G10.bmp,Pictures/IA50_G10.bmp,Pictures/IA50.bmp,"

Go with the safe option here!""""",0,safe,,,,,3.0,0.0,3.0,0.0,0.0,15.0,15.0,15.0,,,,,,,,,,,,,,,,,,,,,,,,,,,,,,,1287.5534461459993,None,1289.5754398360004,1291.0961109399996,1291.079416445,None,1292.633499259,None,2.0,1294.6053621629999,None,1294.6053621629999,None,1294.6053621629999,None,None,None,None,None,1295.3239324349997,None,1295.3239324349997,None,0,1295.3239324349997,None,1295.6581334460006,1297.3291987609991,None,None,0.5237132380007097,0.2851291380011389,,,,,,,,,,,,,104.0,1,18,1,2019_Dec_05_1037,Test,3.2.4,59.85106302377619
90,Pictures/IA50_L30.bmp,Pictures/IA50_L30.bmp,Pictures/IA50.bmp,"

Take a leap, I think you should gamble.""""",1,risk,,,,,3.0,0.0,3.0,0.0,0.0,16.0,16.0,5.0,,,,,,,,,,,,,,,,,,,,,,,,,,,,,,,1297.345922863,None,1299.3679211170004,1300.8885888379994,1300.871872222,None,1302.425972613999,None,2.0,1304.3978492879996,None,1304.3978492879996,None,1304.3978492879996,None,None,None,None,None,1305.199949988999,None,1305.199949988999,None,0,1305.199949988999,None,1305.567574703,1307.205233314,None,None,0.6112168979998387,0.3211189710000326,,,,,,,,,,,,,104.0,1,18,1,2019_Dec_05_1037,Test,3.2.4,59.851063023776184
91,Pictures/IA25_G5.bmp,Pictures/IA25_G5.bmp,Pictures/IA25.bmp,"

Let's stay with the certain option.""""",0,safe,,,,,3.0,0.0,3.0,0.0,0.0,17.0,17.0,14.0,,,,,,,,,,,,,,,,,,,,,,,,,,,,,,,1307.2219278510001,None,1309.2439237519993,1310.7645920350005,1310.7478989949996,None,1312.3019796919998,None,2.0,1314.2738431849994,None,1314.2738431849994,None,1314.2738431849994,None,None,None,None,None,1315.1093957880003,None,1315.1093957880003,None,0,1315.1093957880003,None,1315.3934661620005,1317.0979456829991,None,None,0.6632298080003238,0.2436689659989497,,,,,,,,,,,,,104.0,1,18,1,2019_Dec_05_1037,Test,3.2.4,59.85106302377619
92,Pictures/IA100_G20.bmp,Pictures/IA100_G20.bmp,Pictures/IA100.bmp,"

Go ahead and gamble!""""",1,risk,,,,,3.0,0.0,3.0,0.0,0.0,18.0,18.0,16.0,,,,,,,,,,,,,,,,,,,,,,,,,,,,,,,1317.1146730719993,None,1319.1366648410003,1320.6573349389998,1320.6406153160005,None,1322.1780095819995,None,2.0,1324.166576579999,None,1324.166576579999,None,1324.166576579999,None,None,None,None,None,1324.951987045999,None,1324.951987045999,None,0,1324.951987045999,None,1325.3363277299995,1326.9405538459996,None,None,0.6344961459999467,0.3450747610004328,,,,,,,,,,,,,104.0,1,18,1,2019_Dec_05_1037,Test,3.2.4,59.85106302377619
93,Pictures/IA25_G10.bmp,Pictures/IA25_G10.bmp,Pictures/IA25.bmp,"

What's life without a little risk?""""",1,risk,,,,,3.0,0.0,3.0,0.0,0.0,19.0,19.0,10.0,,,,,,,,,,,,,,,,,,,,,,,,,,,,,,,1326.9572521329992,None,1328.979249561,1330.4999180119996,1330.483224133999,None,1332.0373041179992,None,2.0,1334.0091956569995,None,1334.0091956569995,None,1334.0091956569995,None,None,None,None,None,1334.8781345999996,None,1334.8781345999996,None,0,1334.8781345999996,None,1335.1287920180002,1336.8834028790006,None,None,0.6958639420008694,0.20293529499940632,,,,,,,,,,,,,104.0,1,18,1,2019_Dec_05_1037,Test,3.2.4,59.85106302377619
95,Pictures/IA50_G40.bmp,Pictures/IA50_G40.bmp,Pictures/IA50.bmp,"

It would probably be best to play it safe.""""",0,safe,,,,,4.0,0.0,4.0,0.0,0.0,0.0,0.0,18.0,,,,,,,,,,,,,1341.244895587999,None,1341.244895587999,None,1341.244895587999,None,0,2.164181441999972,1341.244895587999,None,1341.244895587999,None,1341.244895587999,None,return,2.907943737998721,1341.244895587999,None,1344.2026956970003,None,1346.2246788110006,1347.745351419,1347.7286554080001,None,1349.2660396789997,None,2.0,1351.2379006520005,None,1351.2379006520005,None,1351.2379006520005,None,None,None,None,None,1351.9898819890004,None,1351.9898819890004,None,0,1351.9898819890004,None,1352.3408027770001,1353.9784416839993,None,None,0.5471653710010287,0.3071840560005512,,,,,,,,,,,,,104.0,1,18,1,2019_Dec_05_1037,Test,3.2.4,59.85106302377619
96,Pictures/IA100_G20.bmp,Pictures/IA100_G20.bmp,Pictures/IA100.bmp,"

Go ahead and gamble!""""",1,risk,,,,,4.0,0.0,4.0,0.0,0.0,1.0,1.0,3.0,,,,,,,,,,,,,,,,,,,,,,,,,,,,,,,1353.9951610240005,None,1356.017165579,1357.5378266259995,1357.5211244950005,None,1359.0251095999993,None,2.0,1361.0470649479994,None,1361.0470649479994,None,1361.0470649479994,None,None,None,None,None,1361.999590509,None,1361.999590509,None,0,1361.999590509,None,1362.2669415700002,1364.0048566019996,None,None,0.7940066999999544,0.2334827180002321,,,,,,,,,,,,,104.0,1,18,1,2019_Dec_05_1037,Test,3.2.4,59.85106302377619
97,Pictures/IA50_G10.bmp,Pictures/IA50_G10.bmp,Pictures/IA50.bmp,"

Go with the safe option here!""""",0,safe,,,,,4.0,0.0,4.0,0.0,0.0,2.0,2.0,19.0,,,,,,,,,,,,,,,,,,,,,,,,,,,,,,,1364.0215750059997,None,1366.0435699209993,1367.5642409079992,1367.5475229610001,None,1369.051493810999,None,2.0,1371.0734790349998,None,1371.0734790349998,None,1371.0734790349998,None,None,None,None,None,1372.0594131149992,None,1372.0594131149992,None,0,1372.0594131149992,None,1372.3769130210003,1374.04797684,None,None,0.8075995700000931,0.2776463339996553,,,,,,,,,,,,,104.0,1,18,1,2019_Dec_05_1037,Test,3.2.4,59.85106302377619
98,Pictures/IA25_G20.bmp,Pictures/IA25_G20.bmp,Pictures/IA25.bmp,"

I wouldn't gamble for this one. """"",0,safe,,,,,4.0,0.0,4.0,0.0,0.0,3.0,3.0,1.0,,,,,,,,,,,,,,,,,,,,,,,,,,,,,,,1374.0646991819995,None,1376.0866938689996,1377.6073653370004,1377.5906469019992,None,1379.1447499770002,None,2.0,1381.116619843,None,1381.116619843,None,1381.116619843,None,None,None,None,None,1381.5510570089991,None,1381.5510570089991,None,0,1381.5510570089991,None,1381.8852909399993,1383.5563613190006,None,None,0.2364611430002697,0.2900075720008317,,,,,,,,,,,,,104.0,1,18,1,2019_Dec_05_1037,Test,3.2.4,59.85106302377619
99,Pictures/IA100_L60.bmp,Pictures/IA100_L60.bmp,Pictures/IA100.bmp,"

You'd have a lot to lose, don't gamble.""""",0,safe,,,,,4.0,0.0,4.0,0.0,0.0,4.0,4.0,5.0,,,,,,,,,,,,,,,,,,,,,,,,,,,,,,,1383.573082347999,None,1385.5950792330004,1387.1157467939993,1387.0990303540002,None,1388.6531356579999,None,2.0,1390.6249953280003,None,1390.6249953280003,None,1390.6249953280003,None,None,None,None,None,1391.3769763279997,None,1391.3769763279997,None,0,1391.3769763279997,None,1391.661056346,1393.3655335309995,None,None,0.5760763910002424,0.24008797100032095,,,,,,,,,,,,,104.0,1,18,1,2019_Dec_05_1037,Test,3.2.4,59.851063023776184
100,Pictures/IA25_G15.bmp,Pictures/IA25_G15.bmp,Pictures/IA25.bmp,"

I think you should take a gamble.""""",1,risk,,,,,4.0,0.0,4.0,0.0,0.0,5.0,5.0,8.0,,,,,,,,,,,,,,,,,,,,,,,,,,,,,,,1393.3822622970001,None,1395.4042584109993,1396.9249236889993,1396.9082061249994,None,1398.4623086829997,None,2.0,1400.4341684810006,None,1400.4341684810006,None,1400.4341684810006,None,None,None,None,None,1401.6874748930004,None,1401.6874748930004,None,1,1401.6874748930004,None,None,None,1402.3224902549991,1403.676030270999,1.0469218859998364,0.5935996509997494,,,,,,,,,,,,,104.0,1,18,1,2019_Dec_05_1037,Test,3.2.4,59.85106302377619
101,Pictures/IA20_10_L95p.bmp,Pictures/IA20_10_L95p.bmp,Pictures/IA20.bmp,"

Don't be tempted to gamble.""""",0,safe,,,,,4.0,0.0,4.0,0.0,0.0,6.0,6.0,4.0,,,,,,,,,,,,,,,,,,,,,,,,,,,,,,,1403.6927530129997,None,1405.7314640789991,1407.2521331219996,1407.2354126890004,None,1408.7393712939993,None,2.0,1410.7446589419997,None,1410.7446589419997,None,1410.7446589419997,None,None,None,None,None,1412.165075416,None,1412.165075416,None,0,1412.165075416,None,1412.8836376809995,1414.1536447849994,None,None,1.2324070210015634,0.6759910070013575,,,,,,,,,,,,,104.0,1,18,1,2019_Dec_05_1037,Test,3.2.4,59.85106302377619
102,Pictures/IA75_L30.bmp,Pictures/IA75_L30.bmp,Pictures/IA75.bmp,"

Hold back, stay with the safe choice.""""",0,safe,,,,,4.0,0.0,4.0,0.0,0.0,7.0,7.0,9.0,,,,,,,,,,,,,,,,,,,,,,,,,,,,,,,1414.170345352999,None,1416.1923422099992,1417.7130097009995,1417.6963189380003,None,1419.216974691999,None,2.0,1421.222261207,None,1421.222261207,None,1421.222261207,None,None,None,None,None,1421.422799303,None,1421.422799303,None,0,1421.422799303,None,1422.074511806999,1423.411383839999,None,None,0.01881687000059173,0.6102690499992605,,,,,,,,,,,,,104.0,1,18,1,2019_Dec_05_1037,Test,3.2.4,59.851063023776184
103,Pictures/IA100_G80.bmp,Pictures/IA100_G80.bmp,Pictures/IA100.bmp,"

Why not gamble?""""",1,risk,,,,,4.0,0.0,4.0,0.0,0.0,8.0,8.0,2.0,,,,,,,,,,,,,,,,,,,,,,,,,,,,,,,1423.4280676920007,None,1425.4500736499995,1426.9709113360004,1426.9540384150007,None,1428.5248289480005,None,1.0,1430.479994014,None,1430.479994014,None,1430.479994014,None,1431.1985439639993,None,1431.1985439639993,1432.2011778569995,1433.337507065,None,1433.337507065,None,1,1433.337507065,None,None,None,1433.7886952459994,1435.3260781989993,0.6330792690005183,0.4075711309997132,,,,,,,,,,,,,104.0,1,18,1,2019_Dec_05_1037,Test,3.2.4,59.85106302377619
104,Pictures/IA25_G10.bmp,Pictures/IA25_G10.bmp,Pictures/IA25.bmp,"

What's life without a little risk?""""",1,risk,,,,,4.0,0.0,4.0,0.0,0.0,9.0,9.0,6.0,,,,,,,,,,,,,,,,,,,,,,,,,,,,,,,1435.342800892,None,1437.3647950550003,1438.8854648479992,1438.868747266999,None,1440.3894331230003,None,1.0,1442.3947233670006,None,1442.3947233670006,None,1442.3947233670006,None,1443.1801179079994,None,1443.1801179079994,1444.1827572330003,1445.3190901380003,None,1445.3190901380003,None,0,1445.3190901380003,None,1446.104484657999,1447.3076528639995,None,None,0.6703491839998605,0.7379815260010218,,,,,,,,,,,,,104.0,1,18,1,2019_Dec_05_1037,Test,3.2.4,59.85106302377619
105,Pictures/IA75_L60.bmp,Pictures/IA75_L60.bmp,Pictures/IA75.bmp,"

Why not take the gamble?""""",1,risk,,,,,4.0,0.0,4.0,0.0,0.0,10.0,10.0,15.0,,,,,,,,,,,,,,,,,,,,,,,,,,,,,,,1447.3243524139998,None,1449.346348150999,1450.8670195239993,1450.8503244469996,None,1452.4044167020002,None,1.0,1454.3762720960003,None,1454.3762720960003,None,1454.3762720960003,None,1455.0948303330006,None,1455.0948303330006,1456.097464077,1457.2003750389995,None,1457.2003750389995,None,None,1457.2003750389995,None,None,None,None,None,0.6088006529989798,,,,,,,,,,,,,,104.0,1,18,1,2019_Dec_05_1037,Test,3.2.4,59.85106302377619
106,Pictures/IA75_G30.bmp,Pictures/IA75_G30.bmp,Pictures/IA75.bmp,"

Be bold, gamble!""""",1,risk,,,,,4.0,0.0,4.0,0.0,0.0,11.0,11.0,16.0,,,,,,,,,,,,,,,,,,,,,,,,,,,,,,,1459.2056571100002,None,1461.2276512139997,1462.748321155999,1462.731624729,None,1464.2857048379992,None,2.0,1466.2575682219995,None,1466.2575682219995,None,1466.2575682219995,None,None,None,None,None,1467.1599475219991,None,1467.1599475219991,None,None,1467.1599475219991,None,None,None,None,None,0.7435038620005798,,,,,,,,,,,,,,104.0,1,18,1,2019_Dec_05_1037,Test,3.2.4,59.851063023776184
107,Pictures/IA75_L45.bmp,Pictures/IA75_L45.bmp,Pictures/IA75.bmp,"

Don't gamble for this one, play it safe.""""",0,safe,,,,,4.0,0.0,4.0,0.0,0.0,12.0,12.0,14.0,,,,,,,,,,,,,,,,,,,,,,,,,,,,,,,1469.165223606,None,1471.1872235110004,1472.7078896620005,1472.6911956189997,None,1474.1951456400002,None,1.0,1476.2171508669999,None,1476.2171508669999,None,1476.2171508669999,None,1477.2030810510005,None,1477.2030810510005,1478.2057171289998,1479.3086340669997,None,1479.3086340669997,None,0,1479.3086340669997,None,1479.6762478250002,1481.2971965079996,None,None,0.8479170160007925,0.3324249389988836,,,,,,,,,,,,,104.0,1,18,1,2019_Dec_05_1037,Test,3.2.4,59.851063023776184
108,Pictures/IA75_G60.bmp,Pictures/IA75_G60.bmp,Pictures/IA75.bmp,"

Make it exciting, take a chance!""""",1,risk,,,,,4.0,0.0,4.0,0.0,0.0,13.0,13.0,17.0,,,,,,,,,,,,,,,,,,,,,,,,,,,,,,,1481.3138961879995,None,1483.3358884890006,1484.8565618220002,1484.8398667460006,None,1486.3939549879997,None,2.0,1488.3658118599997,None,1488.3658118599997,None,1488.3658118599997,None,None,None,None,None,1491.3737451779998,None,1491.3737451779998,None,0,1491.3737451779998,None,1491.8750512589995,1493.379025488999,None,None,2.8272653809999615,0.4593223420015421,,,,,,,,,,,,,104.0,1,18,1,2019_Dec_05_1037,Test,3.2.4,59.851063023776184
109,Pictures/IA25_L20.bmp,Pictures/IA25_L20.bmp,Pictures/IA25.bmp,"

Don't be tempted to gamble.""""",0,safe,,,,,4.0,0.0,4.0,0.0,0.0,14.0,14.0,13.0,,,,,,,,,,,,,,,,,,,,,,,,,,,,,,,1493.3957381609998,None,1495.4177213189996,1496.921691481999,1496.9049733909994,None,1498.4757738930002,None,1.0,1500.4476411659998,None,1500.4476411659998,None,1500.4476411659998,None,1501.19963139,None,1501.19963139,1502.2022744789992,1503.338601334999,None,1503.338601334999,None,0,1503.338601334999,None,1503.7396418810004,1505.343867685,None,None,0.6334353879992705,0.3584637920012028,,,,,,,,,,,,,104.0,1,18,1,2019_Dec_05_1037,Test,3.2.4,59.85106302377619
110,Pictures/IA75_G15.bmp,Pictures/IA75_G15.bmp,Pictures/IA75.bmp,"

Take a chance!""""",1,risk,,,,,4.0,0.0,4.0,0.0,0.0,15.0,15.0,12.0,,,,,,,,,,,,,,,,,,,,,,,,,,,,,,,1505.3605883199998,None,1507.3825890150001,1508.9032575479996,1508.8865418419991,None,1510.4406408039995,None,1.0,1512.4125037489994,None,1512.4125037489994,None,1512.4125037489994,None,1513.5488310130004,None,1513.5488310130004,1514.5514715669997,1515.6543844049993,None,1515.6543844049993,None,0,1515.6543844049993,None,1515.821470286999,1517.6596628949992,None,None,1.0365664279997873,0.13067808199957653,,,,,,,,,,,,,104.0,1,18,1,2019_Dec_05_1037,Test,3.2.4,59.85106302377619
111,Pictures/IA25_L5.bmp,Pictures/IA25_L5.bmp,Pictures/IA25.bmp,"

It would be smarter to choose the safe option.""""",0,safe,,,,,4.0,0.0,4.0,0.0,0.0,16.0,16.0,11.0,,,,,,,,,,,,,,,,,,,,,,,,,,,,,,,1517.6763565170004,None,1519.6983522720002,1521.202323563999,1521.1856046960004,None,1522.7229882440006,None,2.0,1524.7282714970006,None,1524.7282714970006,None,1524.7282714970006,None,None,None,None,None,1527.1012006319997,None,1527.1012006319997,None,0,1527.1012006319997,None,1527.6860774470006,1529.089768599999,None,None,2.2007997060009075,0.5478642449998006,,,,,,,,,,,,,104.0,1,18,1,2019_Dec_05_1037,Test,3.2.4,59.85106302377619
112,Pictures/IA110_55_G95p.bmp,Pictures/IA110_55_G95p.bmp,Pictures/IA110.bmp,"

Take a chance!""""",1,risk,,,,,4.0,0.0,4.0,0.0,0.0,17.0,17.0,0.0,,,,,,,,,,,,,,,,,,,,,,,,,,,,,,,1529.1064698240007,None,1531.1451855859996,1532.6658500859994,1532.6491510319993,None,1534.1865325729996,None,2.0,1536.1583997060006,None,1536.1583997060006,None,1536.1583997060006,None,None,None,None,None,1537.0607622379994,None,1537.0607622379994,None,0,1537.0607622379994,None,1538.6148515019995,None,None,None,0.7306720279993897,1.516295829000228,,,,,,,,,,,,,104.0,1,18,1,2019_Dec_05_1037,Test,3.2.4,59.85106302377619
113,Pictures/IA40_20_L95p.bmp,Pictures/IA40_20_L95p.bmp,Pictures/IA40.bmp,"

Trust me, gamble!""""",1,risk,,,,,4.0,0.0,4.0,0.0,0.0,18.0,18.0,7.0,,,,,,,,,,,,,,,,,,,,,,,,,,,,,,,1539.066045226,None,1541.1047447559995,1542.62542124,1542.6087215099997,None,1544.1628169880005,None,2.0,1546.1179550029992,None,1546.1179550029992,None,1546.1179550029992,None,None,None,None,None,1547.254283021999,None,1547.254283021999,None,None,1547.254283021999,None,None,None,None,None,0.9711222799996904,,,,,,,,,,,,,,104.0,1,18,1,2019_Dec_05_1037,Test,3.2.4,59.851063023776184
114,Pictures/IA25_L15.bmp,Pictures/IA25_L15.bmp,Pictures/IA25.bmp,"

There's not much on the line here, gamble!""""",1,risk,,,,,4.0,0.0,4.0,0.0,0.0,19.0,19.0,10.0,,,,,,,,,,,,,,,,,,,,,,,,,,,,,,,1549.2595592300004,None,1551.281553323999,1552.8022262249995,1552.7855309770002,None,1554.3396139880006,None,1.0,1556.3114811699998,None,1556.3114811699998,None,1556.3114811699998,None,1556.9631904239995,None,1556.9631904239995,1557.965829286999,1559.0687402940002,None,1559.0687402940002,None,1,1559.0687402940002,None,None,None,1559.6536095289994,1561.0573194789995,0.5135851380000531,0.5483220360001724,,,,,,,,,,,,,104.0,1,18,1,2019_Dec_05_1037,Test,3.2.4,59.851063023776184
116,Pictures/IA100_G80.bmp,Pictures/IA100_G80.bmp,Pictures/IA100.bmp,"

Why not gamble?""""",1,risk,,,,,5.0,0.0,5.0,0.0,0.0,0.0,0.0,16.0,,,,,,,,,,,,,1563.881418040999,None,1563.881418040999,None,1563.881418040999,None,0,2.103646330999254,1563.881418040999,None,1563.881418040999,None,1563.881418040999,None,return,3.0635002330000134,1563.881418040999,None,1566.9896131860005,None,1568.9948861159992,1570.5155577309995,1570.4988630730004,None,1572.0028109180003,None,2.0,1574.024819532,None,1574.024819532,None,1574.024819532,None,None,None,None,None,1575.044158965,None,1575.044158965,None,0,1575.044158965,None,1575.7627168809995,1577.0494489539997,None,None,0.8562565060001361,0.6849037719985063,,,,,,,,,,,,,104.0,1,18,1,2019_Dec_05_1037,Test,3.2.4,59.85106302377619
117,Pictures/IA25_L10.bmp,Pictures/IA25_L10.bmp,Pictures/IA25.bmp,"

Dont be afraid to take the risk!""""",1,risk,,,,,5.0,0.0,5.0,0.0,0.0,1.0,1.0,11.0,,,,,,,,,,,,,,,,,,,,,,,,,,,,,,,1577.0661560120006,None,1579.0881504379995,1580.6088171129995,1580.5921189799994,None,1582.1461992669992,None,2.0,1584.1180665310003,None,1584.1180665310003,None,1584.1180665310003,None,None,None,None,None,1584.9368982209999,None,1584.9368982209999,None,0,1584.9368982209999,None,1585.2710969759992,1586.9421651110006,None,None,0.6590078749995882,0.2881798010002967,,,,,,,,,,,,,104.0,1,18,1,2019_Dec_05_1037,Test,3.2.4,59.85106302377619
118,Pictures/IA75_G30.bmp,Pictures/IA75_G30.bmp,Pictures/IA75.bmp,"

Be bold, gamble!""""",1,risk,,,,,5.0,0.0,5.0,0.0,0.0,2.0,2.0,10.0,,,,,,,,,,,,,,,,,,,,,,,,,,,,,,,1586.9588877019996,None,1588.9808830559994,1590.5015534640006,1590.4848360479991,None,1592.0055188959996,None,1.0,1594.0108044539993,None,1594.0108044539993,None,1594.0108044539993,None,1594.8964613959997,None,1594.8964613959997,1595.8990946369995,1597.0020054470006,None,1597.0020054470006,None,0,1597.0020054470006,None,1597.403081077,1599.0072947659992,None,None,0.7982668320000812,0.3510438579996844,,,,,,,,,,,,,104.0,1,18,1,2019_Dec_05_1037,Test,3.2.4,59.851063023776184
119,Pictures/IA25_G20.bmp,Pictures/IA25_G20.bmp,Pictures/IA25.bmp,"

I wouldn't gamble for this one. """"",0,safe,,,,,5.0,0.0,5.0,0.0,0.0,3.0,3.0,18.0,,,,,,,,,,,,,,,,,,,,,,,,,,,,,,,1599.0239937139995,None,1601.045990146,1602.5666600120005,1602.5499644220001,None,1604.1207592520004,None,2.0,1606.0759213189995,None,1606.0759213189995,None,1606.0759213189995,None,None,None,None,None,1607.0785477579993,None,1607.0785477579993,None,1,1607.0785477579993,None,None,None,1607.2456703669995,1609.0838293979996,0.8211499469998671,0.12252111999987393,,,,,,,,,,,,,104.0,1,18,1,2019_Dec_05_1037,Test,3.2.4,59.85106302377619
120,Pictures/IA75_G45.bmp,Pictures/IA75_G45.bmp,Pictures/IA75.bmp,"

Don't gamble for this one.""""",0,safe,,,,,5.0,0.0,5.0,0.0,0.0,4.0,4.0,4.0,,,,,,,,,,,,,,,,,,,,,,,,,,,,,,,1609.100550916999,None,1611.122545057,1612.6432194959998,1612.6265002889995,None,1614.1806031889992,None,1.0,1616.152467472999,None,1616.152467472999,None,1616.152467472999,None,1616.904448375999,None,1616.904448375999,1617.907084942999,1619.0099950999993,None,1619.0099950999993,None,1,1619.0099950999993,None,None,None,1619.644986883999,1621.0152756409989,0.6406092080014787,0.5910817129988573,,,,,,,,,,,,,104.0,1,18,1,2019_Dec_05_1037,Test,3.2.4,59.85106302377619
121,Pictures/IA100_L40.bmp,Pictures/IA100_L40.bmp,Pictures/IA100.bmp,"

Think of the payoff, gamble!""""",1,risk,,,,,5.0,0.0,5.0,0.0,0.0,5.0,5.0,17.0,,,,,,,,,,,,,,,,,,,,,,,,,,,,,,,1621.0319728689992,None,1623.053967975,1624.5746387990002,1624.557943886999,None,1626.1120320289992,None,1.0,1628.0838878590002,None,1628.0838878590002,None,1628.0838878590002,None,1628.7690376680002,None,1628.7690376680002,1629.7716751320004,1630.8745863080003,None,1630.8745863080003,None,1,1630.8745863080003,None,None,None,1631.25892905,1632.8631519850005,0.5651849519999814,0.34248368599946843,,,,,,,,,,,,,104.0,1,18,1,2019_Dec_05_1037,Test,3.2.4,59.851063023776184
122,Pictures/IA75_G60.bmp,Pictures/IA75_G60.bmp,Pictures/IA75.bmp,"

Make it exciting, take a chance!""""",1,risk,,,,,5.0,0.0,5.0,0.0,0.0,6.0,6.0,13.0,,,,,,,,,,,,,,,,,,,,,,,,,,,,,,,1632.8798536769991,None,1634.9018521079995,1636.4225192680005,1636.4058312510006,None,1637.9097706909997,None,2.0,1639.9317661019995,None,1639.9317661019995,None,1639.9317661019995,None,None,None,None,None,1640.951119555999,None,1640.951119555999,None,0,1640.951119555999,None,1641.235202336,1642.939696776999,None,None,0.8453089230006299,0.2419617189989367,,,,,,,,,,,,,104.0,1,18,1,2019_Dec_05_1037,Test,3.2.4,59.851063023776184
123,Pictures/IA50_L20.bmp,Pictures/IA50_L20.bmp,Pictures/IA50.bmp,"

Certainty is boring, take a risk!""""",1,risk,,,,,5.0,0.0,5.0,0.0,0.0,7.0,7.0,15.0,,,,,,,,,,,,,,,,,,,,,,,,,,,,,,,1642.9563977830003,None,1644.9783942489996,1646.4990689059994,1646.4823690720004,None,1648.0364489540007,None,2.0,1650.0083184350005,None,1650.0083184350005,None,1650.0083184350005,None,None,None,None,None,1650.492940058999,None,1650.492940058999,None,0,1650.492940058999,None,1650.6266051700004,1652.4982009289997,None,None,0.3207554729997355,0.10012781400109816,,,,,,,,,,,,,104.0,1,18,1,2019_Dec_05_1037,Test,3.2.4,59.851063023776184
124,Pictures/IA50_L10.bmp,Pictures/IA50_L10.bmp,Pictures/IA50.bmp,"

Play it safe, don’t gamble!""""",0,safe,,,,,5.0,0.0,5.0,0.0,0.0,8.0,8.0,0.0,,,,,,,,,,,,,,,,,,,,,,,,,,,,,,,1652.5149288510001,None,1654.5369179730005,1656.0575907759994,1656.040871371999,None,1657.594977507999,None,1.0,1659.5668397629997,None,1659.5668397629997,None,1659.5668397629997,None,1659.951172522,None,1659.951172522,1660.9538088690006,1662.0567206649994,None,1662.0567206649994,None,1,1662.0567206649994,None,None,None,1662.3073773659999,1664.0452913379995,0.2662308790004317,0.2163368020010239,,,,,,,,,,,,,104.0,1,18,1,2019_Dec_05_1037,Test,3.2.4,59.851063023776184
125,Pictures/IA100_L20.bmp,Pictures/IA100_L20.bmp,Pictures/IA100.bmp,"

Try to win as much money as you can, gamble!""""",1,risk,,,,,5.0,0.0,5.0,0.0,0.0,9.0,9.0,9.0,,,,,,,,,,,,,,,,,,,,,,,,,,,,,,,1664.062010272999,None,1666.0840053880002,1667.6046802380006,1667.5879625020007,None,1669.1420652819997,None,2.0,1671.1139254169993,None,1671.1139254169993,None,1671.1139254169993,None,None,None,None,None,1672.467481878999,None,1672.467481878999,None,1,1672.467481878999,None,None,None,1673.4032988380004,1674.4727714330002,1.1591479540002183,0.8935831350008812,,,,,,,,,,,,,104.0,1,18,1,2019_Dec_05_1037,Test,3.2.4,59.851063023776184
126,Pictures/IA40_20_L95p.bmp,Pictures/IA40_20_L95p.bmp,Pictures/IA40.bmp,"

Trust me, gamble!""""",1,risk,,,,,5.0,0.0,5.0,0.0,0.0,10.0,10.0,7.0,,,,,,,,,,,,,,,,,,,,,,,,,,,,,,,1674.4894689489993,None,1676.5281386570005,1678.0488509839997,1678.032151674999,None,1679.519399114999,None,1.0,1681.5413846890006,None,1681.5413846890006,None,1681.5413846890006,None,1682.0594341039996,None,1682.0594341039996,1683.0620669950004,1684.1649784870006,None,1684.1649784870006,None,1,1684.1649784870006,None,None,None,1685.4349719599995,None,0.4276946320005664,1.2280981010007963,,,,,,,,,,,,,104.0,1,18,1,2019_Dec_05_1037,Test,3.2.4,59.851063023776184
127,Pictures/IA100_G60.bmp,Pictures/IA100_G60.bmp,Pictures/IA100.bmp,"

Be cautious, don't gamble for this one.""""",0,safe,,,,,5.0,0.0,5.0,0.0,0.0,11.0,11.0,3.0,,,,,,,,,,,,,,,,,,,,,,,,,,,,,,,1686.186963659,None,1688.208975023001,1689.729629993999,1689.7129102119998,None,1691.2670169930007,None,2.0,1693.2388815819995,None,1693.2388815819995,None,1693.2388815819995,None,None,None,None,None,1693.606502749999,None,1693.606502749999,None,0,1693.606502749999,None,1693.8738878959994,1695.611791276,None,None,0.19419224099874555,0.2265688980005507,,,,,,,,,,,,,104.0,1,18,1,2019_Dec_05_1037,Test,3.2.4,59.851063023776184
128,Pictures/IA100_G40.bmp,Pictures/IA100_G40.bmp,Pictures/IA100.bmp,"

Try your luck and gamble!""""",1,risk,,,,,5.0,0.0,5.0,0.0,0.0,12.0,12.0,1.0,,,,,,,,,,,,,,,,,,,,,,,,,,,,,,,1695.6284969570006,None,1697.6504883109992,1699.1711630920001,1699.1544629479995,None,1700.6918347219998,None,1.0,1702.6804190189996,None,1702.6804190189996,None,1702.6804190189996,None,1702.880934936,None,1702.880934936,1703.88357086,1704.9864838129997,None,1704.9864838129997,None,0,1704.9864838129997,None,1705.1034545849998,1706.9750495989992,None,None,0.08866732100068475,0.07058029799918586,,,,,,,,,,,,,104.0,1,18,1,2019_Dec_05_1037,Test,3.2.4,59.85106302377619
129,Pictures/IA25_G10.bmp,Pictures/IA25_G10.bmp,Pictures/IA25.bmp,"

What's life without a little risk?""""",1,risk,,,,,5.0,0.0,5.0,0.0,0.0,13.0,13.0,2.0,,,,,,,,,,,,,,,,,,,,,,,,,,,,,,,1706.9917737729993,None,1709.0137682629993,1710.5344385240005,1710.517720324,None,1712.0551135269998,None,2.0,1714.0436772939993,None,1714.0436772939993,None,1714.0436772939993,None,None,None,None,None,1714.7121130779997,None,1714.7121130779997,None,0,1714.7121130779997,None,1715.8150036490006,None,None,None,0.5014024749998498,1.064944859001116,,,,,,,,,,,,,104.0,1,18,1,2019_Dec_05_1037,Test,3.2.4,59.85106302377619
130,Pictures/IA100_L60.bmp,Pictures/IA100_L60.bmp,Pictures/IA100.bmp,"

You'd have a lot to lose, don't gamble.""""",0,safe,,,,,5.0,0.0,5.0,0.0,0.0,14.0,14.0,14.0,,,,,,,,,,,,,,,,,,,,,,,,,,,,,,,1716.7340934820004,None,1718.7560914040005,1720.2767580759992,1720.2600647119998,None,1721.7974357330004,None,1.0,1723.7860195529993,None,1723.7860195529993,None,1723.7860195529993,None,1724.7051085849998,None,1724.7051085849998,1725.7077417759992,1726.8106567819996,None,1726.8106567819996,None,0,1726.8106567819996,None,1728.0472311609992,None,None,None,0.775059734000024,1.1904102399985277,,,,,,,,,,,,,104.0,1,18,1,2019_Dec_05_1037,Test,3.2.4,59.851063023776184
131,Pictures/IA75_L30.bmp,Pictures/IA75_L30.bmp,Pictures/IA75.bmp,"

Hold back, stay with the safe choice.""""",0,safe,,,,,5.0,0.0,5.0,0.0,0.0,15.0,15.0,19.0,,,,,,,,,,,,,,,,,,,,,,,,,,,,,,,1728.8326325060007,None,1730.8546280110004,1732.3752990119992,1732.3586036460001,None,1733.8792623280006,None,2.0,1735.8845481019998,None,1735.8845481019998,None,1735.8845481019998,None,None,None,None,None,1736.9874657679993,None,1736.9874657679993,None,0,1736.9874657679993,None,1737.9566705830002,1738.9927413570003,None,None,0.9325227090012048,0.9335976469992602,,,,,,,,,,,,,104.0,1,18,1,2019_Dec_05_1037,Test,3.2.4,59.851063023776184
132,Pictures/IA25_G5.bmp,Pictures/IA25_G5.bmp,Pictures/IA25.bmp,"

Let's stay with the certain option.""""",0,safe,,,,,5.0,0.0,5.0,0.0,0.0,16.0,16.0,8.0,,,,,,,,,,,,,,,,,,,,,,,,,,,,,,,1739.0094450779998,None,1741.0314519990006,1742.552108676,1742.535413353,None,1744.0560729999997,None,1.0,1746.061376275,None,1746.061376275,None,1746.061376275,None,1747.314658108,None,1747.314658108,1748.3172935780003,1749.4202071479995,None,1749.4202071479995,None,None,1749.4202071479995,None,None,None,None,None,1.1076929169994398,,,,,,,,,,,,,,104.0,1,18,1,2019_Dec_05_1037,Test,3.2.4,59.85106302377619
133,Pictures/IA50_G20.bmp,Pictures/IA50_G20.bmp,Pictures/IA50.bmp,"

Let's venture and take a risk!""""",1,risk,,,,,5.0,0.0,5.0,0.0,0.0,17.0,17.0,5.0,,,,,,,,,,,,,,,,,,,,,,,,,,,,,,,1751.4254861200006,None,1753.4474779869997,1754.9681506510003,1754.951455466,None,1756.4721146440006,None,1.0,1758.4774009449993,None,1758.4774009449993,None,1758.4774009449993,None,1759.262801023,None,1759.262801023,1760.2654398949999,1761.368351142999,None,1761.368351142999,None,0,1761.368351142999,None,1762.9057425070005,None,None,None,0.6836639119992469,1.4887162369996076,,,,,,,,,,,,,104.0,1,18,1,2019_Dec_05_1037,Test,3.2.4,59.85106302377619
134,Pictures/IA25_L20.bmp,Pictures/IA25_L20.bmp,Pictures/IA25.bmp,"

Don't be tempted to gamble.""""",0,safe,,,,,5.0,0.0,5.0,0.0,0.0,18.0,18.0,6.0,,,,,,,,,,,,,,,,,,,,,,,,,,,,,,,1763.3903390249998,None,1765.4123334840006,1766.933016097999,1766.916309414999,None,1768.453685737999,None,2.0,1770.4422653460006,None,1770.4422653460006,None,1770.4422653460006,None,None,None,None,None,1771.1106931089998,None,1771.1106931089998,None,0,1771.1106931089998,None,1771.762408339,1773.0992634159993,None,None,0.4788066479995905,0.6023688980003499,,,,,,,,,,,,,104.0,1,18,1,2019_Dec_05_1037,Test,3.2.4,59.85106302377619
135,Pictures/IA75_G15.bmp,Pictures/IA75_G15.bmp,Pictures/IA75.bmp,"

Take a chance!""""",1,risk,,,,,5.0,0.0,5.0,0.0,0.0,19.0,19.0,12.0,,,,,,,,,,,,,,,,,,,,,,,,,,,,,,,1773.115960612,None,1775.1379593719994,1776.6586264189993,1776.6419312229993,None,1778.1625914569995,None,2.0,1780.1678749370003,None,1780.1678749370003,None,1780.1678749370003,None,None,None,None,None,1780.9198696229996,None,1780.9198696229996,None,0,1780.9198696229996,None,1782.0729058390007,None,None,None,0.5852055139985168,1.105197519000285,,,,,,,,,,,,,104.0,1,18,1,2019_Dec_05_1037,Test,3.2.4,59.85106302377619
137,Pictures/IA100_G80.bmp,Pictures/IA100_G80.bmp,Pictures/IA100.bmp,"

Why not gamble?""""",1,risk,,,,,6.0,0.0,6.0,0.0,0.0,0.0,0.0,14.0,,,,,,,,,,,,,1787.3367715309994,None,1787.3367715309996,None,1787.3367715309996,None,0,1.544293077000475,1787.3367715309994,None,1787.3367715309996,None,1787.3367715309996,None,return,2.552071131000048,1787.3367715309994,None,1789.926929108,None,1791.9322004299993,1793.4528704629993,1793.4361770559992,None,1794.9568332399995,None,1.0,1796.9621175480006,None,1796.9621175480006,None,1796.9621175480006,None,1797.630543915,None,1797.630543915,1798.633180842,1799.736094291,None,1799.736094291,None,1,1799.736094291,None,None,None,1800.621755279999,1801.7246741210001,0.5829542739993485,0.8489682039999025,,,,,,,,,,,,,104.0,1,18,1,2019_Dec_05_1037,Test,3.2.4,59.85106302377619
138,Pictures/IA50_L30.bmp,Pictures/IA50_L30.bmp,Pictures/IA50.bmp,"

Take a leap, I think you should gamble.""""",1,risk,,,,,6.0,0.0,6.0,0.0,0.0,1.0,1.0,13.0,,,,,,,,,,,,,,,,,,,,,,,,,,,,,,,1801.7413737389998,None,1803.7633699729995,1805.284037034,1805.2673424969998,None,1806.7880047990002,None,1.0,1808.7932886979997,None,1808.7932886979997,None,1808.7932886979997,None,1809.6455456429994,None,1809.6455456429994,1810.6481789499994,1811.7845135610005,None,1811.7845135610005,None,0,1811.7845135610005,None,1813.138074905999,None,None,None,0.719779720000588,1.3125482099985677,,,,,,,,,,,,,104.0,1,18,1,2019_Dec_05_1037,Test,3.2.4,59.851063023776184
139,Pictures/IA50_G30.bmp,Pictures/IA50_G30.bmp,Pictures/IA50.bmp,"

I think you should gamble.""""",1,risk,,,,,6.0,0.0,6.0,0.0,0.0,2.0,2.0,15.0,,,,,,,,,,,,,,,,,,,,,,,,,,,,,,,1813.789789225999,None,1815.8117846509995,1817.3324598170002,1817.3157391120005,None,1818.8698396210002,None,1.0,1820.8417055520003,None,1820.8417055520003,None,1820.8417055520003,None,1822.5294877100005,None,1822.5294877100005,1823.5321237419994,1824.6350303109994,None,1824.6350303109994,None,1,1824.6350303109994,None,None,None,1825.236607195,1826.640300952,1.5753712690002433,0.5580343670008006,,,,,,,,,,,,,104.0,1,18,1,2019_Dec_05_1037,Test,3.2.4,59.85106302377619
140,Pictures/IA75_L30.bmp,Pictures/IA75_L30.bmp,Pictures/IA75.bmp,"

Hold back, stay with the safe choice.""""",0,safe,,,,,6.0,0.0,6.0,0.0,0.0,3.0,3.0,9.0,,,,,,,,,,,,,,,,,,,,,,,,,,,,,,,1826.6570217049994,None,1828.679018892999,1830.1996864560006,1830.1829732419992,None,1831.7036514270003,None,1.0,1833.7089376929998,None,1833.7089376929998,None,1833.7089376929998,None,1834.4274970179995,None,1834.4274970179995,1835.4301279190004,1836.5497559609994,None,1836.5497559609994,None,0,1836.5497559609994,None,1836.9006380640003,1838.538309964999,None,None,0.5801355699986743,0.31530582300001697,,,,,,,,,,,,,104.0,1,18,1,2019_Dec_05_1037,Test,3.2.4,59.851063023776184
141,Pictures/IA110_55_G95p.bmp,Pictures/IA110_55_G95p.bmp,Pictures/IA110.bmp,"

Take a chance!""""",1,risk,,,,,6.0,0.0,6.0,0.0,0.0,4.0,4.0,6.0,,,,,,,,,,,,,,,,,,,,,,,,,,,,,,,1838.55503159,None,1840.5937386240003,1842.097684471999,1842.0809905999995,None,1843.601648251999,None,2.0,1845.606936827,None,1845.606936827,None,1845.606936827,None,None,None,None,None,1846.2920880109996,None,1846.2920880109996,None,None,1846.2920880109996,None,None,None,None,None,0.530134607999571,,,,,,,,,,,,,,104.0,1,18,1,2019_Dec_05_1037,Test,3.2.4,59.85106302377619
142,Pictures/IA80_40_G95p.bmp,Pictures/IA80_40_G95p.bmp,Pictures/IA80.bmp,"

Think of the payoff, gamble!""""",1,risk,,,,,6.0,0.0,6.0,0.0,0.0,5.0,5.0,8.0,,,,,,,,,,,,,,,,,,,,,,,,,,,,,,,1848.2973662120003,None,1850.336065170999,1851.8567407520004,1851.840022590999,None,1853.3439821089996,None,2.0,1855.3492691579995,None,1855.3492691579995,None,1855.3492691579995,None,None,None,None,None,1856.3686315569994,None,1856.3686315569994,None,1,1856.3686315569994,None,None,None,1856.9869230179993,1858.3571869179996,0.859803589000876,0.5844342189993768,,,,,,,,,,,,,104.0,1,18,1,2019_Dec_05_1037,Test,3.2.4,59.851063023776184
143,Pictures/IA75_L45.bmp,Pictures/IA75_L45.bmp,Pictures/IA75.bmp,"

Don't gamble for this one, play it safe.""""",0,safe,,,,,6.0,0.0,6.0,0.0,0.0,6.0,6.0,18.0,,,,,,,,,,,,,,,,,,,,,,,,,,,,,,,1858.3739126849996,None,1860.39592578,1861.916539266,1861.8998598809994,None,1863.420539749999,None,2.0,1865.4258254979995,None,1865.4258254979995,None,1865.4258254979995,None,None,None,None,None,1866.879622250999,None,1866.879622250999,None,None,1866.879622250999,None,None,None,None,None,1.271251330999803,,,,,,,,,,,,,,104.0,1,18,1,2019_Dec_05_1037,Test,3.2.4,59.851063023776184
144,Pictures/IA25_L5.bmp,Pictures/IA25_L5.bmp,Pictures/IA25.bmp,"

It would be smarter to choose the safe option.""""",0,safe,,,,,6.0,0.0,6.0,0.0,0.0,7.0,7.0,3.0,,,,,,,,,,,,,,,,,,,,,,,,,,,,,,,1868.884935954,None,1870.9069271429998,1872.4276021189999,1872.4108969659992,None,1873.9482772169995,None,2.0,1875.9368426599995,None,1875.9368426599995,None,1875.9368426599995,None,None,None,None,None,1876.9227337869997,None,1876.9227337869997,None,0,1876.9227337869997,None,1877.8585776809996,1878.9280584469998,None,None,0.808232659001078,0.8863352560001658,,,,,,,,,,,,,104.0,1,18,1,2019_Dec_05_1037,Test,3.2.4,59.85106302377619
145,Pictures/IA75_L60.bmp,Pictures/IA75_L60.bmp,Pictures/IA75.bmp,"

Why not take the gamble?""""",1,risk,,,,,6.0,0.0,6.0,0.0,0.0,8.0,8.0,12.0,,,,,,,,,,,,,,,,,,,,,,,,,,,,,,,1878.9447552719994,None,1880.9667525749992,1882.470725841,1882.4540062569995,None,1883.9913870830005,None,2.0,1885.9966757149996,None,1885.9966757149996,None,1885.9966757149996,None,None,None,None,None,1886.848918657999,None,1886.848918657999,None,1,1886.848918657999,None,None,None,1888.6536821089994,None,0.6843979100012803,1.7681397350006591,,,,,,,,,,,,,104.0,1,18,1,2019_Dec_05_1037,Test,3.2.4,59.85106302377619
146,Pictures/IA25_L20.bmp,Pictures/IA25_L20.bmp,Pictures/IA25.bmp,"

Don't be tempted to gamble.""""",0,safe,,,,,6.0,0.0,6.0,0.0,0.0,9.0,9.0,4.0,,,,,,,,,,,,,,,,,,,,,,,,,,,,,,,1888.8709091639994,None,1890.8929346490004,1892.4135896459995,1892.3968796249994,None,1893.9175484049993,None,2.0,1895.9228357739994,None,1895.9228357739994,None,1895.9228357739994,None,None,None,None,None,1897.2429805869997,None,1897.2429805869997,None,0,1897.2429805869997,None,1898.1620619940004,1899.231544881999,None,None,1.1502373389994318,0.8780816840007901,,,,,,,,,,,,,104.0,1,18,1,2019_Dec_05_1037,Test,3.2.4,59.85106302377619
147,Pictures/IA100_G40.bmp,Pictures/IA100_G40.bmp,Pictures/IA100.bmp,"

Try your luck and gamble!""""",1,risk,,,,,6.0,0.0,6.0,0.0,0.0,10.0,10.0,1.0,,,,,,,,,,,,,,,,,,,,,,,,,,,,,,,1899.2482469490005,None,1901.2702415570002,1902.7909126859995,1902.7742164640006,None,1904.2781643979997,None,2.0,1906.3001754590005,None,1906.3001754590005,None,1906.3001754590005,None,None,None,None,None,1907.5868957399998,None,1907.5868957399998,None,0,1907.5868957399998,None,1907.9712405999999,1909.5754622410004,None,None,1.108908252999754,0.3421704499996849,,,,,,,,,,,,,104.0,1,18,1,2019_Dec_05_1037,Test,3.2.4,59.85106302377619
148,Pictures/IA50_G40.bmp,Pictures/IA50_G40.bmp,Pictures/IA50.bmp,"

It would probably be best to play it safe.""""",0,safe,,,,,6.0,0.0,6.0,0.0,0.0,11.0,11.0,7.0,,,,,,,,,,,,,,,,,,,,,,,,,,,,,,,1909.5921622860005,None,1911.614161124,1913.134829465,1913.1181341930005,None,1914.6555023649998,None,2.0,1916.644088522,None,1916.644088522,None,1916.644088522,None,None,None,None,None,1917.3960883929994,None,1917.3960883929994,None,1,1917.3960883929994,None,None,None,1917.7302731519994,1919.4013519290002,0.5809765480007627,0.2929751020001277,,,,,,,,,,,,,104.0,1,18,1,2019_Dec_05_1037,Test,3.2.4,59.85106302377619
149,Pictures/IA100_L60.bmp,Pictures/IA100_L60.bmp,Pictures/IA100.bmp,"

You'd have a lot to lose, don't gamble.""""",0,safe,,,,,6.0,0.0,6.0,0.0,0.0,12.0,12.0,19.0,,,,,,,,,,,,,,,,,,,,,,,,,,,,,,,1919.418060856,None,1921.4400559639998,1922.960725501,1922.9440099500007,None,1924.447978627999,None,1.0,1926.4699586339993,None,1926.4699586339993,None,1926.4699586339993,None,1927.2386673809997,None,1927.2386673809997,1928.2413049419993,1929.3442152490006,None,1929.3442152490006,None,1,1929.3442152490006,None,None,None,1929.4277653169993,1931.3494899279995,0.6271225790005701,0.04884096400019189,,,,,,,,,,,,,104.0,1,18,1,2019_Dec_05_1037,Test,3.2.4,59.851063023776184
150,Pictures/IA110_55_L95p.bmp,Pictures/IA110_55_L95p.bmp,Pictures/IA110.bmp,"

Trust me, gamble!""""",1,risk,,,,,6.0,0.0,6.0,0.0,0.0,13.0,13.0,17.0,,,,,,,,,,,,,,,,,,,,,,,,,,,,,,,1931.366192214,None,1933.3881860019992,1934.9088572,1934.8921636859995,None,1936.4462441439991,None,2.0,1938.4181097349992,None,1938.4181097349992,None,1938.4181097349992,None,None,None,None,None,1939.5210115089994,None,1939.5210115089994,None,1,1939.5210115089994,None,None,None,1940.1560292119993,1941.5263355379993,0.9429595750007138,0.6000532050002221,,,,,,,,,,,,,104.0,1,18,1,2019_Dec_05_1037,Test,3.2.4,59.851063023776184
151,Pictures/IA25_G10.bmp,Pictures/IA25_G10.bmp,Pictures/IA25.bmp,"

What's life without a little risk?""""",1,risk,,,,,6.0,0.0,6.0,0.0,0.0,14.0,14.0,10.0,,,,,,,,,,,,,,,,,,,,,,,,,,,,,,,1941.5430341949996,None,1943.5649946760004,1945.0856670529995,1945.0689719549994,None,1946.6063399220002,None,2.0,1948.5949284130002,None,1948.5949284130002,None,1948.5949284130002,None,None,None,None,None,1949.5140177230005,None,1949.5140177230005,None,0,1949.5140177230005,None,1949.9150596170002,1951.5025711750004,None,None,0.74215313500099,0.3670470180004486,,,,,,,,,,,,,104.0,1,18,1,2019_Dec_05_1037,Test,3.2.4,59.85106302377619
152,Pictures/IA40_20_L95p.bmp,Pictures/IA40_20_L95p.bmp,Pictures/IA40.bmp,"

Trust me, gamble!""""",1,risk,,,,,6.0,0.0,6.0,0.0,0.0,15.0,15.0,16.0,,,,,,,,,,,,,,,,,,,,,,,,,,,,,,,1951.519293936999,None,1953.5412912119991,1955.061961183001,1955.045246099,None,1956.5826456769992,None,2.0,1958.5711992889992,None,1958.5711992889992,None,1958.5711992889992,None,None,None,None,None,1959.1393636609992,None,1959.1393636609992,None,1,1959.1393636609992,None,None,None,1959.8746423560005,1961.1279390689997,0.41388421200099396,0.6857009300001664,,,,,,,,,,,,,104.0,1,18,1,2019_Dec_05_1037,Test,3.2.4,59.851063023776184
153,Pictures/IA25_L15.bmp,Pictures/IA25_L15.bmp,Pictures/IA25.bmp,"

There's not much on the line here, gamble!""""",1,risk,,,,,6.0,0.0,6.0,0.0,0.0,16.0,16.0,11.0,,,,,,,,,,,,,,,,,,,,,,,,,,,,,,,1961.1446392569997,None,1963.1666335329992,1964.687312556,1964.6706144729997,None,1966.2414123069993,None,1.0,1968.1965664649997,None,1968.1965664649997,None,1968.1965664649997,None,1969.9845981540002,None,1969.9845981540002,1970.987239692,1972.090147944,None,1972.090147944,None,0,1972.090147944,None,1972.3742249999996,1974.0787575590002,None,None,1.628505357000904,0.24691526199967484,,,,,,,,,,,,,104.0,1,18,1,2019_Dec_05_1037,Test,3.2.4,59.851063023776184
154,Pictures/IA75_G60.bmp,Pictures/IA75_G60.bmp,Pictures/IA75.bmp,"

Make it exciting, take a chance!""""",1,risk,,,,,6.0,0.0,6.0,0.0,0.0,17.0,17.0,2.0,,,,,,,,,,,,,,,,,,,,,,,,,,,,,,,1974.0954285629996,None,1976.117419582999,1977.638096425,1977.6213954539999,None,1979.14205391,None,2.0,1981.147340301999,None,1981.147340301999,None,1981.147340301999,None,None,None,None,None,1982.3170884379997,None,1982.3170884379997,None,1,1982.3170884379997,None,None,None,1982.8685368780007,1984.3056653229996,0.981731427998966,0.507978241001183,,,,,,,,,,,,,104.0,1,18,1,2019_Dec_05_1037,Test,3.2.4,59.851063023776184
155,Pictures/IA40_20_G95p.bmp,Pictures/IA40_20_G95p.bmp,Pictures/IA40.bmp,"

Hold back, stay with the safe choice.""""",0,safe,,,,,6.0,0.0,6.0,0.0,0.0,18.0,18.0,5.0,,,,,,,,,,,,,,,,,,,,,,,,,,,,,,,1984.3223673419998,None,1986.3443629190008,1987.865033361999,1987.848337755,None,1989.4024289879999,None,2.0,1991.3742879799993,None,1991.3742879799993,None,1991.3742879799993,None,None,None,None,None,1992.2933695230004,None,1992.2933695230004,None,0,1992.2933695230004,None,1992.610869492999,1994.281937443,None,None,0.7467746939983044,0.27569839600073465,,,,,,,,,,,,,104.0,1,18,1,2019_Dec_05_1037,Test,3.2.4,59.851063023776184
156,Pictures/IA100_G60.bmp,Pictures/IA100_G60.bmp,Pictures/IA100.bmp,"

Be cautious, don't gamble for this one.""""",0,safe,,,,,6.0,0.0,6.0,0.0,0.0,19.0,19.0,0.0,,,,,,,,,,,,,,,,,,,,,,,,,,,,,,,1994.2986607189996,None,1996.320655387999,1997.841329256,1997.8246064300001,None,1999.345294232,None,2.0,2001.3505786980004,None,2001.3505786980004,None,2001.3505786980004,None,None,None,None,None,2002.3866378719995,None,2002.3866378719995,None,0,2002.3866378719995,None,2002.7041379420007,2004.3752053770004,None,None,0.8424954500005697,0.27042449999862583,,,,,,,,,,,,,104.0,1,18,1,2019_Dec_05_1037,Test,3.2.4,59.851063023776184
158,Pictures/IA50_G40.bmp,Pictures/IA50_G40.bmp,Pictures/IA50.bmp,"

It would probably be best to play it safe.""""",0,safe,,,,,7.0,0.0,7.0,0.0,0.0,0.0,0.0,1.0,,,,,,,,,,,,,2013.0981832349992,None,2013.098183234999,None,2013.098183234999,None,0,7.246888961000877,2013.0981832349992,None,2013.098183234999,None,2013.098183234999,None,return,7.710755321999386,2013.0981832349992,None,2020.868657961999,None,2022.8739299699992,2024.3779314219992,2024.361207507,None,2025.8819172969997,None,2.0,2027.8871690739998,None,2027.8871690739998,None,2027.8871690739998,None,None,None,None,None,2029.4245504829996,None,2029.4245504829996,None,0,2029.4245504829996,None,2030.0261165339998,2031.4298622049992,None,None,1.3299326199994541,0.5605149710008845,,,,,,,,,,,,,104.0,1,18,1,2019_Dec_05_1037,Test,3.2.4,59.85106302377619
159,Pictures/IA40_20_G95p.bmp,Pictures/IA40_20_G95p.bmp,Pictures/IA40.bmp,"

Hold back, stay with the safe choice.""""",0,safe,,,,,7.0,0.0,7.0,0.0,0.0,1.0,1.0,15.0,,,,,,,,,,,,,,,,,,,,,,,,,,,,,,,2031.446570992999,None,2033.468505289,2034.9891780019989,2034.9724818539999,None,2036.5098575979991,None,1.0,2038.4984403100007,None,2038.4984403100007,None,2038.4984403100007,None,2039.8353008989998,None,2039.8353008989998,2040.8379307619998,2041.9408417840004,None,2041.9408417840004,None,0,2041.9408417840004,None,2042.609254695999,2043.9461070079997,None,None,1.2066318819997832,0.6202246479988389,,,,,,,,,,,,,104.0,1,18,1,2019_Dec_05_1037,Test,3.2.4,59.851063023776184
160,Pictures/IA75_L60.bmp,Pictures/IA75_L60.bmp,Pictures/IA75.bmp,"

Why not take the gamble?""""",1,risk,,,,,7.0,0.0,7.0,0.0,0.0,2.0,2.0,11.0,,,,,,,,,,,,,,,,,,,,,,,,,,,,,,,2043.9628308489991,None,2045.9848248319995,2047.5054944370004,2047.4887811899991,None,2048.992752655,None,2.0,2051.014738508,None,2051.014738508,None,2051.014738508,None,None,None,None,None,2051.950544833,None,2051.950544833,None,0,2051.950544833,None,2052.3850085169997,2053.9558220929994,None,None,0.7623518380005407,0.39452055299989297,,,,,,,,,,,,,104.0,1,18,1,2019_Dec_05_1037,Test,3.2.4,59.85106302377619
161,Pictures/IA80_40_G95p.bmp,Pictures/IA80_40_G95p.bmp,Pictures/IA80.bmp,"

Think of the payoff, gamble!""""",1,risk,,,,,7.0,0.0,7.0,0.0,0.0,3.0,3.0,19.0,,,,,,,,,,,,,,,,,,,,,,,,,,,,,,,2053.9725217609994,None,2055.9945159809995,2057.5151878020006,2057.49849446,None,2059.0024432400005,None,2.0,2061.024448106,None,2061.024448106,None,2061.024448106,None,None,None,None,None,2061.7931415969997,None,2061.7931415969997,None,0,2061.7931415969997,None,2062.2610251219994,2063.798406393,None,None,0.6166230819999328,0.43191492200094217,,,,,,,,,,,,,104.0,1,18,1,2019_Dec_05_1037,Test,3.2.4,59.851063023776184
162,Pictures/IA100_L40.bmp,Pictures/IA100_L40.bmp,Pictures/IA100.bmp,"

Think of the payoff, gamble!""""",1,risk,,,,,7.0,0.0,7.0,0.0,0.0,4.0,4.0,12.0,,,,,,,,,,,,,,,,,,,,,,,,,,,,,,,2063.8151292679995,None,2065.8371238149994,2067.3577969939997,2067.3410782419996,None,2068.8617614430004,None,2.0,2070.8670466900003,None,2070.8670466900003,None,2070.8670466900003,None,None,None,None,None,2071.769423112999,None,2071.769423112999,None,0,2071.769423112999,None,2072.1203427109995,2073.757979078,None,None,0.742026383000848,0.30364261500108114,,,,,,,,,,,,,104.0,1,18,1,2019_Dec_05_1037,Test,3.2.4,59.851063023776184
163,Pictures/IA110_55_G95p.bmp,Pictures/IA110_55_G95p.bmp,Pictures/IA110.bmp,"

Take a chance!""""",1,risk,,,,,7.0,0.0,7.0,0.0,0.0,5.0,5.0,13.0,,,,,,,,,,,,,,,,,,,,,,,,,,,,,,,2073.7747010549992,None,2075.7966982729995,2077.317366699999,2077.3006526829995,None,2078.804621182,None,2.0,2080.826604877,None,2080.826604877,None,2080.826604877,None,None,None,None,None,2081.695561798,None,2081.695561798,None,1,2081.695561798,None,None,None,2082.2637317770004,2083.7008381569995,0.7184694640000089,0.5295016429990937,,,,,,,,,,,,,104.0,1,18,1,2019_Dec_05_1037,Test,3.2.4,59.85106302377619
164,Pictures/IA50_G10.bmp,Pictures/IA50_G10.bmp,Pictures/IA50.bmp,"

Go with the safe option here!""""",0,safe,,,,,7.0,0.0,7.0,0.0,0.0,6.0,6.0,16.0,,,,,,,,,,,,,,,,,,,,,,,,,,,,,,,2083.7175622209998,None,2085.7395566079995,2087.26023213,2087.24351138,None,2088.780902774999,None,2.0,2090.7694669190005,None,2090.7694669190005,None,2090.7694669190005,None,None,None,None,None,2091.5882885480005,None,2091.5882885480005,None,0,2091.5882885480005,None,2091.955935849999,2093.5935667739996,None,None,0.6476068219999433,0.3247754530002567,,,,,,,,,,,,,104.0,1,18,1,2019_Dec_05_1037,Test,3.2.4,59.85106302377619
165,Pictures/IA20_10_G95p.bmp,Pictures/IA20_10_G95p.bmp,Pictures/IA20.bmp,"

Take a leap, I think you should gamble.""""",1,risk,,,,,7.0,0.0,7.0,0.0,0.0,7.0,7.0,7.0,,,,,,,,,,,,,,,,,,,,,,,,,,,,,,,2093.610291040999,None,2095.665708338,2097.1696553029997,2097.1529653,None,2098.690348921,None,2.0,2100.6622019000006,None,2100.6622019000006,None,2100.6622019000006,None,None,None,None,None,2101.7651167099993,None,2101.7651167099993,None,0,2101.7651167099993,None,2102.1327409820005,2103.770378841,None,None,0.8988682240014896,0.3319456330009416,,,,,,,,,,,,,104.0,1,18,1,2019_Dec_05_1037,Test,3.2.4,59.851063023776184
166,Pictures/IA50_G20.bmp,Pictures/IA50_G20.bmp,Pictures/IA50.bmp,"

Let's venture and take a risk!""""",1,risk,,,,,7.0,0.0,7.0,0.0,0.0,8.0,8.0,2.0,,,,,,,,,,,,,,,,,,,,,,,,,,,,,,,2103.7870999240004,None,2105.809110937,2107.3297696869995,2107.313048386999,None,2108.850441928,None,2.0,2110.8390035640004,None,2110.8390035640004,None,2110.8390035640004,None,None,None,None,None,2111.290204891,None,2111.290204891,None,0,2111.290204891,None,2111.758091128,2113.2954709370006,None,None,0.2980692969995289,0.4308623010001611,,,,,,,,,,,,,104.0,1,18,1,2019_Dec_05_1037,Test,3.2.4,59.85106302377619
167,Pictures/IA25_G10.bmp,Pictures/IA25_G10.bmp,Pictures/IA25.bmp,"

What's life without a little risk?""""",1,risk,,,,,7.0,0.0,7.0,0.0,0.0,9.0,9.0,9.0,,,,,,,,,,,,,,,,,,,,,,,,,,,,,,,2113.312194696,None,2115.334192855,2116.8381362679997,2116.8214416640008,None,2118.3755353750003,None,2.0,2120.364097579999,None,2120.364097579999,None,2120.364097579999,None,None,None,None,None,2120.9824029360007,None,2120.9824029360007,None,0,2120.9824029360007,None,2121.2831808640003,2122.9876837760003,None,None,0.460973600998841,0.2666671959996165,,,,,,,,,,,,,104.0,1,18,1,2019_Dec_05_1037,Test,3.2.4,59.85106302377619
168,Pictures/IA75_G45.bmp,Pictures/IA75_G45.bmp,Pictures/IA75.bmp,"

Don't gamble for this one.""""",0,safe,,,,,7.0,0.0,7.0,0.0,0.0,10.0,10.0,3.0,,,,,,,,,,,,,,,,,,,,,,,,,,,,,,,2123.0043821050003,None,2125.02637546,2126.547048719,2126.5303557650004,None,2128.051013376,None,2.0,2130.0562979650003,None,2130.0562979650003,None,2130.0562979650003,None,None,None,None,None,2131.0088061019997,None,2131.0088061019997,None,0,2131.0088061019997,None,2131.2761862049992,2133.014096232,None,None,0.7847758890002297,0.2322531390000222,,,,,,,,,,,,,104.0,1,18,1,2019_Dec_05_1037,Test,3.2.4,59.85106302377619
169,Pictures/IA100_G80.bmp,Pictures/IA100_G80.bmp,Pictures/IA100.bmp,"

Why not gamble?""""",1,risk,,,,,7.0,0.0,7.0,0.0,0.0,11.0,11.0,6.0,,,,,,,,,,,,,,,,,,,,,,,,,,,,,,,2133.0308010520002,None,2135.052792254999,2136.573460992,2136.556765850999,None,2138.077425398,None,2.0,2140.082714054999,None,2140.082714054999,None,2140.082714054999,None,None,None,None,None,2141.102074610999,None,2141.102074610999,None,0,2141.102074610999,None,2141.486416005,2143.0906464170002,None,None,0.8303513579994615,0.33898991299975023,,,,,,,,,,,,,104.0,1,18,1,2019_Dec_05_1037,Test,3.2.4,59.85106302377619
170,Pictures/IA50_G30.bmp,Pictures/IA50_G30.bmp,Pictures/IA50.bmp,"

I think you should gamble.""""",1,risk,,,,,7.0,0.0,7.0,0.0,0.0,12.0,12.0,18.0,,,,,,,,,,,,,,,,,,,,,,,,,,,,,,,2143.1073399889992,None,2145.129339006,2146.6500082929997,2146.633316418,None,2148.1539706639996,None,2.0,2150.159258366999,None,2150.159258366999,None,2150.159258366999,None,None,None,None,None,2150.9279493720005,None,2150.9279493720005,None,0,2150.9279493720005,None,2151.278868886,2152.916526740999,None,None,0.6018102279995219,0.30512164099855,,,,,,,,,,,,,104.0,1,18,1,2019_Dec_05_1037,Test,3.2.4,59.85106302377619
171,Pictures/IA25_L10.bmp,Pictures/IA25_L10.bmp,Pictures/IA25.bmp,"

