,Choice,Choice2,Amount,AdviceVar1,GambleAdviceNum,GambleAdviceType,practice.thisRepN,practice.thisTrialN,practice.thisN,practice.thisIndex,trials_2.thisRepN,trials_2.thisTrialN,trials_2.thisN,trials_2.thisIndex,trials.thisRepN,trials.thisTrialN,trials.thisN,trials.thisIndex,text.started,text.stopped,key_resp_4.keys,key_resp_4.rt,key_resp_4.started,key_resp_4.stopped,instructions.started,instructions.stopped,space.keys,space.rt,space.started,space.stopped,chooseInst.started,chooseInst.stopped,Ad1.started,Ad1.stopped,Ad2.started,Ad2.stopped,key_resp_3.keys,key_resp_3.rt,key_resp_3.started,key_resp_3.stopped,Ad1pic.started,Ad1pic.stopped,Ad2pic.started,Ad2pic.stopped,enter.keys,enter.rt,enter.started,enter.stopped,iSi.started,iSi.stopped,receiveMoneyPicture.started,receiveMoneyPicture.stopped,ISI2.started,ISI2.stopped,ChoicePic.started,ChoicePic.stopped,response.keys,response.started,response.stopped,yesNo.started,yesNo.stopped,ask.started,ask.stopped,getAdv.started,getAdv.stopped,textForCode.started,textForCode.stopped,blank.started,blank.stopped,ChoicePic2.started,ChoicePic2.stopped,resp.keys,resp.started,resp.stopped,checkL1.started,checkL1.stopped,checkR1.started,checkR1.stopped,resp.rt,EndPrac.started,EndPrac.stopped,key_resp.keys,key_resp.rt,key_resp.started,key_resp.stopped,response.rt,endText.started,endText.stopped,key_resp_2.keys,key_resp_2.rt,key_resp_2.started,key_resp_2.stopped,participant,session,age,gender,date,expName,psychopyVersion,frameRate
4,Pictures/IA50_G20.bmp,Pictures/IA50_G20.bmp,50,"

Let's venture and take a risk!""""",1,risk,0,0.0,0.0,1.0,,,,,,,,,,,,,,,,,,,,,,,,,,,,,,,,,,,,,,,713.1495269260013,None,715.1715550180015,716.6922217290013,716.6755128680015,None,718.2129063710017,None,,720.2516060680027,None,720.2516060680027,None,720.2516060680027,None,None,None,None,None,723.3096628269996,None,723.3096628269996,None,,723.3096628269996,None,None,None,None,None,,,,,,,,,,,,,,,110.0,1,18,1,2019_Dec_06_1308,Test,3.2.4,59.83998512659924
5,Pictures/IA100_G40.bmp,Pictures/IA100_G40.bmp,100,"

Try your luck and gamble!""""",1,risk,0,1.0,1.0,5.0,,,,,,,,,,,,,,,,,,,,,,,,,,,,,,,,,,,,,,,725.3149395690016,None,727.3536522780014,728.8576094170021,728.8408999839993,None,730.4117025910018,None,,732.3668552960007,None,732.3668552960007,None,732.3668552960007,None,None,None,None,None,735.508471426001,None,735.508471426001,None,0.0,735.508471426001,None,736.3272867449996,737.513745471002,None,None,0.7740857870012405,,,,,,,,,,,,,,110.0,1,18,1,2019_Dec_06_1308,Test,3.2.4,59.83998512659924
6,Pictures/IA50_G30.bmp,Pictures/IA50_G30.bmp,50,"

I think you should gamble.""""",1,risk,0,2.0,2.0,2.0,,,,,,,,,,,,,,,,,,,,,,,,,,,,,,,,,,,,,,,737.5304563259997,None,739.5524817490004,741.0731434629997,741.0564334340015,None,742.6272195650017,None,,744.5823723470021,None,744.5823723470021,None,744.5823723470021,None,None,None,None,None,747.7239862060014,None,747.7239862060014,None,1.0,747.7239862060014,None,None,None,747.9579299319994,749.7292604089998,0.19857259200216504,,,,,,,,,,,,,,110.0,1,18,1,2019_Dec_06_1308,Test,3.2.4,59.83998512659924
7,Pictures/IA50_G40.bmp,Pictures/IA50_G40.bmp,50,"

It would probably be best to play it safe.""""",0,safe,0,3.0,3.0,3.0,,,,,,,,,,,,,,,,,,,,,,,,,,,,,,,,,,,,,,,749.7459735390003,None,751.7679680030014,753.2886399140007,753.2719316840013,None,754.8260331580022,None,,756.7978900630005,None,756.7978900630005,None,756.7978900630005,None,None,None,None,None,759.9060800340012,None,759.9060800340012,None,1.0,759.9060800340012,None,None,None,760.1901586460008,761.8946474850018,0.24847818999842275,,,,,,,,,,,,,,110.0,1,18,1,2019_Dec_06_1308,Test,3.2.4,59.83998512659924
8,Pictures/IA50_G10.bmp,Pictures/IA50_G10.bmp,50,"

Go with the safe option here!""""",0,safe,0,4.0,4.0,0.0,,,,,,,,,,,,,,,,,,,,,,,,,,,,,,,,,,,,,,,761.9113586679996,None,763.9333593940028,765.4540263680028,765.4373205110022,None,766.9746652940012,None,,768.9632777879997,None,768.9632777879997,None,768.9632777879997,None,None,None,None,None,772.0547564570006,None,772.0547564570006,None,0.0,772.0547564570006,None,772.5560732400008,774.0600333389993,None,None,0.4518036330009636,,,,,,,,,,,,,,110.0,1,18,1,2019_Dec_06_1308,Test,3.2.4,59.83998512659924
9,Pictures/IA100_G20.bmp,Pictures/IA100_G20.bmp,100,"

Go ahead and gamble!""""",1,risk,0,5.0,5.0,4.0,,,,,,,,,,,,,,,,,,,,,,,,,,,,,,,,,,,,,,,774.0767455230016,None,776.0987404080006,777.6194123839996,777.6027017320012,None,779.1735101800004,None,,781.1286640150029,None,781.1286640150029,None,781.1286640150029,None,None,None,None,None,784.2201421860009,None,784.2201421860009,None,0.0,784.2201421860009,None,784.487509478,786.2254210339997,None,None,0.22243031699690619,,,,,,,,,,,,,,110.0,1,18,1,2019_Dec_06_1308,Test,3.2.4,59.83998512659924
11,Pictures/IA40_20_L95p.bmp,Pictures/IA40_20_L95p.bmp,40,"

Trust me, gamble!""""",1,risk,,,,,0.0,0.0,0.0,0.0,0.0,0.0,0.0,7.0,,,,,,,,,,,,,818.5439099739997,None,818.5439099739997,None,818.5439099739997,None,0,7.226647961000707,818.5439099739997,None,818.5439099739997,None,818.5439099739997,None,return,9.57842354999957,818.5439099739997,None,828.1859799110025,None,830.2079764450027,831.7286514460028,831.7119396720009,None,833.2493259110015,None,0.0,835.204481705001,None,835.204481705001,None,835.204481705001,None,None,None,None,None,838.2291132890023,None,838.2291132890023,None,1.0,838.2291132890023,None,None,None,838.5967438760017,840.2176800630004,0.33343747400067514,,,,,,,2.870082870998885,,,,,,,110.0,1,18,1,2019_Dec_06_1308,Test,3.2.4,59.839985126599245
12,Pictures/IA75_G45.bmp,Pictures/IA75_G45.bmp,75,"

Don't gamble for this one.""""",0,safe,,,,,0.0,0.0,0.0,0.0,0.0,1.0,1.0,17.0,,,,,,,,,,,,,,,,,,,,,,,,,,,,,,,840.2343968099995,None,842.2898093710028,843.7937717580024,843.7770614300024,None,845.3311629439995,None,0.0,847.2863108430029,None,847.2863108430029,None,847.2863108430029,None,None,None,None,None,847.9380274890027,None,847.9380274890027,None,1.0,847.9380274890027,None,None,None,848.5061875460015,849.926610038001,0.520526214997517,,,,,,,0.4762522630007879,,,,,,,110.0,1,18,1,2019_Dec_06_1308,Test,3.2.4,59.83998512659924
13,Pictures/IA25_G15.bmp,Pictures/IA25_G15.bmp,25,"

I think you should take a gamble.""""",1,risk,,,,,0.0,0.0,0.0,0.0,0.0,2.0,2.0,16.0,,,,,,,,,,,,,,,,,,,,,,,,,,,,,,,849.9433072210013,None,851.9987294830025,853.5026901420024,853.4859781500016,None,855.0400724790015,None,1.0,856.9952255360004,None,856.9952255360004,None,856.9952255360004,None,857.880890329001,None,857.880890329001,858.8835290080024,859.9864414020012,None,859.9864414020012,None,1.0,859.9864414020012,None,None,None,860.4877577420011,861.9917227590013,0.4641122360008012,,,,,,,0.7593389930007106,,,,,,,110.0,1,18,1,2019_Dec_06_1308,Test,3.2.4,59.83998512659924
14,Pictures/IA100_L80.bmp,Pictures/IA100_L80.bmp,100,"

Go all in!""""",1,risk,,,,,0.0,0.0,0.0,0.0,0.0,3.0,3.0,14.0,,,,,,,,,,,,,,,,,,,,,,,,,,,,,,,862.0084299510017,None,864.030427681002,865.5511050019995,865.5343921230016,None,867.1051960309997,None,,869.0603542200006,None,869.0603542200006,None,869.0603542200006,None,None,None,None,None,872.1351180810016,None,872.1351180810016,None,1.0,872.1351180810016,None,None,None,873.3884162989998,None,1.2194346230025985,,,,,,,,,,,,,,110.0,1,18,1,2019_Dec_06_1308,Test,3.2.4,59.83998512659924
15,Pictures/IA40_20_G95p.bmp,Pictures/IA40_20_G95p.bmp,40,"

Hold back, stay with the safe choice.""""",0,safe,,,,,0.0,0.0,0.0,0.0,0.0,4.0,4.0,6.0,,,,,,,,,,,,,,,,,,,,,,,,,,,,,,,874.1403993790009,None,876.1623933030023,877.6830656400017,877.666357473001,None,879.2371629410009,None,1.0,881.1923209350025,None,881.1923209350025,None,881.1923209350025,None,882.1280849659997,None,882.1280849659997,883.130767617,884.2670866180015,None,884.2670866180015,None,0.0,884.2670866180015,None,884.5678753579996,886.2723630590008,None,None,0.2634688710022601,,,,,,,0.8022456489998149,,,,,,,110.0,1,18,1,2019_Dec_06_1308,Test,3.2.4,59.839985126599245
16,Pictures/IA100_L40.bmp,Pictures/IA100_L40.bmp,100,"

Think of the payoff, gamble!""""",1,risk,,,,,0.0,0.0,0.0,0.0,0.0,5.0,5.0,2.0,,,,,,,,,,,,,,,,,,,,,,,,,,,,,,,886.2890751910018,None,888.3110728600003,889.831751316,889.8150829250008,None,891.3691335959993,None,1.0,893.3409983439997,None,893.3409983439997,None,893.3409983439997,None,893.8088934510015,None,893.8088934510015,894.8115313929993,895.914445978,None,895.914445978,None,1.0,895.914445978,None,None,None,896.2319454870012,897.9030105260026,0.2720961680024629,,,,,,,0.3655639280004834,,,,,,,110.0,1,18,1,2019_Dec_06_1308,Test,3.2.4,59.839985126599245
17,Pictures/IA100_G80.bmp,Pictures/IA100_G80.bmp,100,"

Why not gamble?""""",1,risk,,,,,0.0,0.0,0.0,0.0,0.0,6.0,6.0,8.0,,,,,,,,,,,,,,,,,,,,,,,,,,,,,,,897.9197221659997,None,899.9417192950023,901.4623900889999,901.4456841070024,None,903.0164915310015,None,1.0,904.9716427530002,None,904.9716427530002,None,904.9716427530002,None,905.5230945990006,None,905.5230945990006,906.5257340429998,907.6286432090019,None,907.6286432090019,None,1.0,907.6286432090019,None,None,None,907.9127210590013,909.6172089110005,0.23792512700310908,,,,,,,0.4629259020002792,,,,,,,110.0,1,18,1,2019_Dec_06_1308,Test,3.2.4,59.83998512659924
18,Pictures/IA75_L45.bmp,Pictures/IA75_L45.bmp,75,"

Don't gamble for this one, play it safe.""""",0,safe,,,,,0.0,0.0,0.0,0.0,0.0,7.0,7.0,19.0,,,,,,,,,,,,,,,,,,,,,,,,,,,,,,,909.6339219030015,None,911.6559189960027,913.1598791950016,913.1431719760003,None,914.7139768410016,None,1.0,916.6858416989999,None,916.6858416989999,None,916.6858416989999,None,917.120317836001,None,917.120317836001,918.1229624549997,919.2425397799998,None,919.2425397799998,None,0.0,919.2425397799998,None,919.6102109590029,921.2478585370009,None,None,0.3200175470010436,,,,,,,0.3007225639994431,,,,,,,110.0,1,18,1,2019_Dec_06_1308,Test,3.2.4,59.839985126599245
19,Pictures/IA110_55_G95p.bmp,Pictures/IA110_55_G95p.bmp,110,"

Take a chance!""""",1,risk,,,,,0.0,0.0,0.0,0.0,0.0,8.0,8.0,12.0,,,,,,,,,,,,,,,,,,,,,,,,,,,,,,,921.26457132,None,923.3032770909995,924.8239589040022,924.8072390609996,None,926.3613337259994,None,1.0,928.3164905970007,None,928.3164905970007,None,928.3164905970007,None,928.8010967910013,None,928.8010967910013,929.8037341939998,930.9066475940017,None,930.9066475940017,None,1.0,930.9066475940017,None,None,None,931.2241456090014,932.8952149090001,0.2719074019987602,,,,,,,0.3980792359980114,,,,,,,110.0,1,18,1,2019_Dec_06_1308,Test,3.2.4,59.83998512659924
20,Pictures/IA50_G10.bmp,Pictures/IA50_G10.bmp,50,"

Go with the safe option here!""""",0,safe,,,,,0.0,0.0,0.0,0.0,0.0,9.0,9.0,1.0,,,,,,,,,,,,,,,,,,,,,,,,,,,,,,,932.9119326390028,None,934.9339230820005,936.454595006002,936.4378892580023,None,937.9418485230017,None,,939.9638466460019,None,939.9638466460019,None,939.9638466460019,None,None,None,None,None,943.0553261700006,None,943.0553261700006,None,0.0,943.0553261700006,None,943.4897987330005,945.0606053340016,None,None,0.38723462800044217,,,,,,,,,,,,,,110.0,1,18,1,2019_Dec_06_1308,Test,3.2.4,59.83998512659924
21,Pictures/IA25_L10.bmp,Pictures/IA25_L10.bmp,25,"

Dont be afraid to take the risk!""""",1,risk,,,,,0.0,0.0,0.0,0.0,0.0,10.0,10.0,5.0,,,,,,,,,,,,,,,,,,,,,,,,,,,,,,,945.0773156610012,None,947.0993102800021,948.6199890460013,948.603276496,None,950.1573696949999,None,,952.1292353499994,None,952.1292353499994,None,952.1292353499994,None,None,None,None,None,955.2207157520024,None,955.2207157520024,None,1.0,955.2207157520024,None,None,None,955.5047916500007,957.2092834800023,0.2378421800021897,,,,,,,,,,,,,,110.0,1,18,1,2019_Dec_06_1308,Test,3.2.4,59.83998512659924
22,Pictures/IA25_L15.bmp,Pictures/IA25_L15.bmp,25,"

There's not much on the line here, gamble!""""",1,risk,,,,,0.0,0.0,0.0,0.0,0.0,11.0,11.0,3.0,,,,,,,,,,,,,,,,,,,,,,,,,,,,,,,957.2259942070013,None,959.2479571069998,960.7686629160016,960.7519573579993,None,962.3060537560013,None,1.0,964.2779153369993,None,964.2779153369993,None,964.2779153369993,None,964.8795080970012,None,964.8795080970012,965.8821361230002,966.9850495470018,None,966.9850495470018,None,1.0,966.9850495470018,None,None,None,967.3693939590012,968.9736184590001,0.3455016660009278,,,,,,,0.4526531410010648,,,,,,,110.0,1,18,1,2019_Dec_06_1308,Test,3.2.4,59.839985126599245
23,Pictures/IA50_G20.bmp,Pictures/IA50_G20.bmp,50,"

Let's venture and take a risk!""""",1,risk,,,,,0.0,0.0,0.0,0.0,0.0,12.0,12.0,0.0,,,,,,,,,,,,,,,,,,,,,,,,,,,,,,,968.990328879001,None,971.0123232090009,972.5329955710004,972.5162881210016,None,974.0536754080022,None,,976.042249295002,None,976.042249295002,None,976.042249295002,None,None,None,None,None,979.1337269579999,None,979.1337269579999,None,0.0,979.1337269579999,None,979.4178055690027,981.1390115270005,None,None,0.24482150399853708,,,,,,,,,,,,,,110.0,1,18,1,2019_Dec_06_1308,Test,3.2.4,59.83998512659924
24,Pictures/IA80_40_L95p.bmp,Pictures/IA80_40_L95p.bmp,80,"

Let's stay with the certain option.""""",0,safe,,,,,0.0,0.0,0.0,0.0,0.0,13.0,13.0,11.0,,,,,,,,,,,,,,,,,,,,,,,,,,,,,,,981.1557190800013,None,983.194459751001,984.7150984710023,984.6983902270005,None,986.235773163,None,,988.2076389079994,None,988.2076389079994,None,988.2076389079994,None,None,None,None,None,991.3325390400023,None,991.3325390400023,None,1.0,991.3325390400023,None,None,None,991.5831967190024,993.3211079419998,0.21401631299886503,,,,,,,,,,,,,,110.0,1,18,1,2019_Dec_06_1308,Test,3.2.4,59.83998512659924
25,Pictures/IA100_G60.bmp,Pictures/IA100_G60.bmp,100,"

Be cautious, don't gamble for this one.""""",0,safe,,,,,0.0,0.0,0.0,0.0,0.0,14.0,14.0,13.0,,,,,,,,,,,,,,,,,,,,,,,,,,,,,,,993.3378196779995,None,995.3598193940016,996.8804932849997,996.8637811629997,None,998.451296659001,None,1.0,1000.3897392559993,None,1000.3897392559993,None,1000.3897392559993,None,1001.2754057860002,None,1001.2754057860002,1002.2780437530018,1003.4143773110009,None,1003.4143773110009,None,0.0,1003.4143773110009,None,1003.9324036690014,1005.4029710409995,None,None,0.4761801810018369,,,,,,,0.7408251790002396,,,,,,,110.0,1,18,1,2019_Dec_06_1308,Test,3.2.4,59.839985126599245
26,Pictures/IA75_G15.bmp,Pictures/IA75_G15.bmp,75,"

Take a chance!""""",1,risk,,,,,0.0,0.0,0.0,0.0,0.0,15.0,15.0,4.0,,,,,,,,,,,,,,,,,,,,,,,,,,,,,,,1005.4196598769995,None,1007.441653105001,1008.962324840002,1008.9456209080015,None,1010.4997122320019,None,,1012.471576488002,None,1012.471576488002,None,1012.471576488002,None,None,None,None,None,1015.5630528200018,None,1015.5630528200018,None,0.0,1015.5630528200018,None,1016.2147689490012,1017.551624816002,None,None,0.6075131779980438,,,,,,,,,,,,,,110.0,1,18,1,2019_Dec_06_1308,Test,3.2.4,59.83998512659924
27,Pictures/IA20_10_G95p.bmp,Pictures/IA20_10_G95p.bmp,20,"

Take a leap, I think you should gamble.""""",1,risk,,,,,0.0,0.0,0.0,0.0,0.0,16.0,16.0,10.0,,,,,,,,,,,,,,,,,,,,,,,,,,,,,,,1017.5683351590014,None,1019.6237557019997,1021.1277166319996,1021.1110096560005,None,1022.648391748,None,,1024.6202584300008,None,1024.6202584300008,None,1024.6202584300008,None,None,None,None,None,1027.7284519140012,None,1027.7284519140012,None,0.0,1027.7284519140012,None,1028.0626588390005,1029.7337259580017,None,None,0.2981000330000825,,,,,,,,,,,,,,110.0,1,18,1,2019_Dec_06_1308,Test,3.2.4,59.839985126599245
28,Pictures/IA100_G40.bmp,Pictures/IA100_G40.bmp,100,"

Try your luck and gamble!""""",1,risk,,,,,0.0,0.0,0.0,0.0,0.0,17.0,17.0,15.0,,,,,,,,,,,,,,,,,,,,,,,,,,,,,,,1029.7504381830004,None,1031.772436905001,1033.2931113430022,1033.2763982840006,None,1034.813798178002,None,1.0,1036.802360521,None,1036.802360521,None,1036.802360521,None,1037.454075824,None,1037.454075824,1038.4567121520013,1039.559625738002,None,1039.559625738002,None,0.0,1039.559625738002,None,1040.1110731080007,1041.5481985080005,None,None,0.5149230499991972,,,,,,,0.5442023140021774,,,,,,,110.0,1,18,1,2019_Dec_06_1308,Test,3.2.4,59.83998512659924
29,Pictures/IA25_L20.bmp,Pictures/IA25_L20.bmp,25,"

Don't be tempted to gamble.""""",0,safe,,,,,0.0,0.0,0.0,0.0,0.0,18.0,18.0,18.0,,,,,,,,,,,,,,,,,,,,,,,,,,,,,,,1041.564905143001,None,1043.586903255,1045.1075749860029,1045.0908650610002,None,1046.6783841180004,None,1.0,1048.6168256890014,None,1048.6168256890014,None,1048.6168256890014,None,1049.201705435,None,1049.201705435,1050.2043364010024,1051.3072679399993,None,1051.3072679399993,None,0.0,1051.3072679399993,None,1051.8085605520027,1053.295815810001,None,None,0.4553029010021419,,,,,,,0.481737672998861,,,,,,,110.0,1,18,1,2019_Dec_06_1308,Test,3.2.4,59.83998512659924
30,Pictures/IA75_G60.bmp,Pictures/IA75_G60.bmp,75,"

Make it exciting, take a chance!""""",1,risk,,,,,0.0,0.0,0.0,0.0,0.0,19.0,19.0,9.0,,,,,,,,,,,,,,,,,,,,,,,,,,,,,,,1053.3125342130006,None,1055.334526232,1056.8551980120028,1056.8384907040017,None,1058.3925836100025,None,1.0,1060.3644506080018,None,1060.3644506080018,None,1060.3644506080018,None,1060.8991897609994,None,1060.8991897609994,1061.9018283790028,1063.0047420699993,None,1063.0047420699993,None,1.0,1063.0047420699993,None,None,None,1063.6564567950008,1064.9933088220023,0.6138060619996395,,,,,,,0.4141128940027557,,,,,,,110.0,1,18,1,2019_Dec_06_1308,Test,3.2.4,59.839985126599245
32,Pictures/IA110_55_L95p.bmp,Pictures/IA110_55_L95p.bmp,110,"

Trust me, gamble!""""",1,risk,,,,,1.0,0.0,1.0,0.0,0.0,0.0,0.0,7.0,,,,,,,,,,,,,1074.7523649120012,None,1074.7523649120012,None,1074.7523649120012,None,0,7.322196761997475,1074.7523649120012,None,1074.7523649120012,None,1074.7523649120012,None,return,9.697976225001185,1074.7523649120012,None,1084.494706294001,None,1086.499990010001,1088.0206585080014,1088.0039513680022,None,1089.5580440170015,None,,1091.5299108239997,None,1091.5299108239997,None,1091.5299108239997,None,None,None,None,None,1094.621390884,None,1094.621390884,None,1.0,1094.621390884,None,None,None,1094.9556031220018,1096.626669401001,0.2851716250006575,,,,,,,,,,,,,,110.0,1,18,1,2019_Dec_06_1308,Test,3.2.4,59.839985126599245
33,Pictures/IA20_10_G95p.bmp,Pictures/IA20_10_G95p.bmp,20,"

Take a leap, I think you should gamble.""""",1,risk,,,,,1.0,0.0,1.0,0.0,0.0,1.0,1.0,9.0,,,,,,,,,,,,,,,,,,,,,,,,,,,,,,,1096.6433871059999,None,1098.6653776880012,1100.1860549470002,1100.169345331,None,1101.6733036530022,None,1.0,1103.695303454002,None,1103.695303454002,None,1103.695303454002,None,1104.1130674430024,None,1104.1130674430024,1105.1157076400013,1106.2186200280012,None,1106.2186200280012,None,0.0,1106.2186200280012,None,1106.5695408210013,1108.2071911660023,None,None,0.3119308999994246,,,,,,,0.2752609589988424,,,,,,,110.0,1,18,1,2019_Dec_06_1308,Test,3.2.4,59.839985126599245
34,Pictures/IA100_L20.bmp,Pictures/IA100_L20.bmp,100,"

Try to win as much money as you can, gamble!""""",1,risk,,,,,1.0,0.0,1.0,0.0,0.0,2.0,2.0,4.0,,,,,,,,,,,,,,,,,,,,,,,,,,,,,,,1108.223900418001,None,1110.2458959150026,1111.7665683300004,1111.7498603610002,None,1113.3206659390016,None,1.0,1115.2758209960011,None,1115.2758209960011,None,1115.2758209960011,None,1117.7824240070004,None,1117.7824240070004,1118.785063018,1119.8879780690004,None,1119.8879780690004,None,1.0,1119.8879780690004,None,None,None,1120.2556067059995,1121.8932538640001,0.3225833030010108,,,,,,,2.3587452270003264,,,,,,,110.0,1,18,1,2019_Dec_06_1308,Test,3.2.4,59.839985126599245
35,Pictures/IA75_L30.bmp,Pictures/IA75_L30.bmp,75,"

Hold back, stay with the safe choice.""""",0,safe,,,,,1.0,0.0,1.0,0.0,0.0,3.0,3.0,17.0,,,,,,,,,,,,,,,,,,,,,,,,,,,,,,,1121.9099656690014,None,1123.9319618539994,1125.452636629001,1125.4359281220022,None,1127.0067324150004,None,1.0,1128.9618879980007,None,1128.9618879980007,None,1128.9618879980007,None,1129.429785747001,None,1129.429785747001,1130.4324266020012,1131.5353355570005,None,1131.5353355570005,None,0.0,1131.5353355570005,None,1132.57139542,None,None,None,0.9872298570007842,,,,,,,0.33667423599763424,,,,,,,110.0,1,18,1,2019_Dec_06_1308,Test,3.2.4,59.839985126599245
36,Pictures/IA25_L15.bmp,Pictures/IA25_L15.bmp,25,"

There's not much on the line here, gamble!""""",1,risk,,,,,1.0,0.0,1.0,0.0,0.0,4.0,4.0,2.0,,,,,,,,,,,,,,,,,,,,,,,,,,,,,,,1133.5573264280029,None,1135.5793275100004,1137.099996754001,1137.0832873710024,None,1138.587252221001,None,1.0,1140.609247831002,None,1140.609247831002,None,1140.609247831002,None,1141.9461055290012,None,1141.9461055290012,1142.9487402920022,1144.0516606490019,None,1144.0516606490019,None,0.0,1144.0516606490019,None,1144.9206064220016,1146.0569396320025,None,None,0.8308847330008575,,,,,,,1.1933200019993822,,,,,,,110.0,1,18,1,2019_Dec_06_1308,Test,3.2.4,59.839985126599245
37,Pictures/IA75_G45.bmp,Pictures/IA75_G45.bmp,75,"

Don't gamble for this one.""""",0,safe,,,,,1.0,0.0,1.0,0.0,0.0,5.0,5.0,8.0,,,,,,,,,,,,,,,,,,,,,,,,,,,,,,,1146.0736433510028,None,1148.0956378510018,1149.6163121600002,1149.599608337001,None,1151.1369893580013,None,1.0,1153.2091193960005,None,1153.2091193960005,None,1153.2091193960005,None,1153.9610975880023,None,1153.9610975880023,1154.9637365570015,1156.0666562879996,None,1156.0666562879996,None,1.0,1156.0666562879996,None,None,None,1157.0358663940024,1158.0719284620027,0.9279013660016062,,,,,,,0.6494452209990413,,,,,,,110.0,1,18,1,2019_Dec_06_1308,Test,3.2.4,59.83998512659924
38,Pictures/IA25_G5.bmp,Pictures/IA25_G5.bmp,25,"

Let's stay with the certain option.""""",0,safe,,,,,1.0,0.0,1.0,0.0,0.0,6.0,6.0,1.0,,,,,,,,,,,,,,,,,,,,,,,,,,,,,,,1158.088644634001,None,1160.1106378549994,1161.631324541002,1161.6146034330013,None,1163.168695389002,None,1.0,1165.1405649059998,None,1165.1405649059998,None,1165.1405649059998,None,1165.7421460639998,None,1165.7421460639998,1166.744785965002,1167.8476977070022,None,1167.8476977070022,None,0.0,1167.8476977070022,None,1168.1819061099995,1169.8529805239996,None,None,0.2988545170010184,,,,,,,0.4699907539979904,,,,,,,110.0,1,18,1,2019_Dec_06_1308,Test,3.2.4,59.83998512659924
39,Pictures/IA80_40_G95p.bmp,Pictures/IA80_40_G95p.bmp,80,"

Think of the payoff, gamble!""""",1,risk,,,,,1.0,0.0,1.0,0.0,0.0,7.0,7.0,0.0,,,,,,,,,,,,,,,,,,,,,,,,,,,,,,,1169.8696933950014,None,1171.8916831660024,1173.4123569770018,1173.3956495990024,None,1174.9497453170006,None,1.0,1176.9216103310027,None,1176.9216103310027,None,1176.9216103310027,None,1177.4897715620027,None,1177.4897715620027,1178.492409857001,1179.5953222460012,None,1179.5953222460012,None,0.0,1179.5953222460012,None,1179.9128226980029,1181.5838933129999,None,None,0.2792263660012395,,,,,,,0.4649522840009013,,,,,,,110.0,1,18,1,2019_Dec_06_1308,Test,3.2.4,59.839985126599245
40,Pictures/IA75_L15.bmp,Pictures/IA75_L15.bmp,75,"

Trust me, gamble!""""",1,risk,,,,,1.0,0.0,1.0,0.0,0.0,8.0,8.0,19.0,,,,,,,,,,,,,,,,,,,,,,,,,,,,,,,1181.6006027969997,None,1183.6225990599996,1185.1432715129995,1185.1265642760009,None,1186.680657527002,None,1.0,1188.6525253889995,None,1188.6525253889995,None,1188.6525253889995,None,1189.3209526400024,None,1189.3209526400024,1190.3235889960015,1191.4265063150015,None,1191.4265063150015,None,1.0,1191.4265063150015,None,None,None,1191.794132586001,1193.4317857060014,0.32804605499768513,,,,,,,0.5820448480008054,,,,,,,110.0,1,18,1,2019_Dec_06_1308,Test,3.2.4,59.839985126599245
41,Pictures/IA100_G60.bmp,Pictures/IA100_G60.bmp,100,"

Be cautious, don't gamble for this one.""""",0,safe,,,,,1.0,0.0,1.0,0.0,0.0,9.0,9.0,12.0,,,,,,,,,,,,,,,,,,,,,,,,,,,,,,,1193.4484988660006,None,1195.4704896680016,1196.9911600039995,1196.9744552240008,None,1198.4784159450028,None,1.0,1200.5004124700026,None,1200.5004124700026,None,1200.5004124700026,None,1201.1354233240017,None,1201.1354233240017,1202.1380572920025,1203.2409756590023,None,1203.2409756590023,None,0.0,1203.2409756590023,None,1204.1433444579998,1205.2462488640012,None,None,0.8655777589992795,,,,,,,0.4861446149989206,,,,,,,110.0,1,18,1,2019_Dec_06_1308,Test,3.2.4,59.839985126599245
42,Pictures/IA100_L40.bmp,Pictures/IA100_L40.bmp,100,"

Think of the payoff, gamble!""""",1,risk,,,,,1.0,0.0,1.0,0.0,0.0,10.0,10.0,13.0,,,,,,,,,,,,,,,,,,,,,,,,,,,,,,,1205.2629643,None,1207.284957549,1208.8056286780009,1208.7889228950007,None,1210.3095958600024,None,1.0,1212.3148822410003,None,1212.3148822410003,None,1212.3148822410003,None,1212.7159377370008,None,1212.7159377370008,1213.7185761710025,1214.8215003639998,None,1214.8215003639998,None,1.0,1214.8215003639998,None,None,None,1215.1724076320024,1216.8100572860021,0.30904714200005395,,,,,,,0.2956791219985462,,,,,,,110.0,1,18,1,2019_Dec_06_1308,Test,3.2.4,59.839985126599245
43,Pictures/IA75_G30.bmp,Pictures/IA75_G30.bmp,75,"

Be bold, gamble!""""",1,risk,,,,,1.0,0.0,1.0,0.0,0.0,11.0,11.0,16.0,,,,,,,,,,,,,,,,,,,,,,,,,,,,,,,1216.8267718919997,None,1218.8487661710026,1220.3694388069998,1220.3527304359995,None,1221.906829978001,None,1.0,1223.8786918629994,None,1223.8786918629994,None,1223.8786918629994,None,1225.3993688320006,None,1225.3993688320006,1226.4020031090004,1227.5049130740008,None,1227.5049130740008,None,0.0,1227.5049130740008,None,1227.8558353100016,1229.4934838200024,None,None,0.3136384919998818,,,,,,,1.4358686750019842,,,,,,,110.0,1,18,1,2019_Dec_06_1308,Test,3.2.4,59.839985126599245
44,Pictures/IA100_G20.bmp,Pictures/IA100_G20.bmp,100,"

Go ahead and gamble!""""",1,risk,,,,,1.0,0.0,1.0,0.0,0.0,12.0,12.0,14.0,,,,,,,,,,,,,,,,,,,,,,,,,,,,,,,1229.5101934520026,None,1231.5321920589995,1233.0528661450007,1233.0361595640024,None,1234.5735398640027,None,1.0,1236.5621175250017,None,1236.5621175250017,None,1236.5621175250017,None,1237.063434906002,None,1237.063434906002,1238.0660746510002,1239.1689879580008,None,1239.1689879580008,None,0.0,1239.1689879580008,None,1239.6535909449995,1241.1575589670028,None,None,0.4495604250005272,,,,,,,0.4084439420003037,,,,,,,110.0,1,18,1,2019_Dec_06_1308,Test,3.2.4,59.83998512659924
45,Pictures/IA25_G10.bmp,Pictures/IA25_G10.bmp,25,"

What's life without a little risk?""""",1,risk,,,,,1.0,0.0,1.0,0.0,0.0,13.0,13.0,15.0,,,,,,,,,,,,,,,,,,,,,,,,,,,,,,,1241.1742674180023,None,1243.1962666920008,1244.7169380990015,1244.700232784002,None,1246.237577729,None,1.0,1248.2261894660005,None,1248.2261894660005,None,1248.2261894660005,None,1250.2481859280015,None,1250.2481859280015,1251.2508211550012,1252.3537401710018,None,1252.3537401710018,None,0.0,1252.3537401710018,None,1252.7380776820028,1254.3423048270015,None,None,0.33681793899813783,,,,,,,1.8963845459984439,,,,,,,110.0,1,18,1,2019_Dec_06_1308,Test,3.2.4,59.83998512659924
46,Pictures/IA50_G30.bmp,Pictures/IA50_G30.bmp,50,"

I think you should gamble.""""",1,risk,,,,,1.0,0.0,1.0,0.0,0.0,14.0,14.0,3.0,,,,,,,,,,,,,,,,,,,,,,,,,,,,,,,1254.3590161850007,None,1256.3810122840005,1257.9016841289995,1257.8849759180011,None,1259.4223611720008,None,,1261.4109384430012,None,1261.4109384430012,None,1261.4109384430012,None,None,None,None,None,1264.5024173800011,None,1264.5024173800011,None,0.0,1264.5024173800011,None,1265.655453053001,None,None,None,1.1161399970005732,,,,,,,,,,,,,,110.0,1,18,1,2019_Dec_06_1308,Test,3.2.4,59.83998512659924
47,Pictures/IA100_G40.bmp,Pictures/IA100_G40.bmp,100,"

Try your luck and gamble!""""",1,risk,,,,,1.0,0.0,1.0,0.0,0.0,15.0,15.0,6.0,,,,,,,,,,,,,,,,,,,,,,,,,,,,,,,1266.5076972690003,None,1268.5296930110017,1270.0503701550006,1270.0336589670005,None,1271.5376233800016,None,1.0,1273.5596215330006,None,1273.5596215330006,None,1273.5596215330006,None,1274.5622616770015,None,1274.5622616770015,1275.564902831,1276.7012337199994,None,1276.7012337199994,None,0.0,1276.7012337199994,None,1277.0354436160014,1278.7065120600018,None,None,0.28532039299898315,,,,,,,0.8909443180018571,,,,,,,110.0,1,18,1,2019_Dec_06_1308,Test,3.2.4,59.83998512659924
48,Pictures/IA50_L40.bmp,Pictures/IA50_L40.bmp,50,"

That gamble doesn't sound too good, play it safe.""""",0,safe,,,,,1.0,0.0,1.0,0.0,0.0,16.0,16.0,18.0,,,,,,,,,,,,,,,,,,,,,,,,,,,,,,,1278.7232274740018,None,1280.7452315970004,1282.2658945610021,1282.2491891680002,None,1283.8032830580014,None,1.0,1285.775148050001,None,1285.775148050001,None,1285.775148050001,None,1286.2430466860023,None,1286.2430466860023,1287.2456871400027,1288.3485956450022,None,1288.3485956450022,None,0.0,1288.3485956450022,None,1289.3345239510018,None,None,None,0.9419647499998972,,,,,,,0.3154152039969631,,,,,,,110.0,1,18,1,2019_Dec_06_1308,Test,3.2.4,59.839985126599245
49,Pictures/IA80_40_L95p.bmp,Pictures/IA80_40_L95p.bmp,80,"

Let's stay with the certain option.""""",0,safe,,,,,1.0,0.0,1.0,0.0,0.0,17.0,17.0,11.0,,,,,,,,,,,,,,,,,,,,,,,,,,,,,,,1290.3538766620004,None,1292.375873066001,1293.8965463700004,1293.8798371640005,None,1295.4004879250024,None,1.0,1297.4058012140013,None,1297.4058012140013,None,1297.4058012140013,None,1298.0909376570016,None,1298.0909376570016,1299.093575461,1300.2131955980003,None,1300.2131955980003,None,1.0,1300.2131955980003,None,None,None,1300.8649095069995,1302.2017668010012,0.6053675030016166,,,,,,,0.5647726479983248,,,,,,,110.0,1,18,1,2019_Dec_06_1308,Test,3.2.4,59.83998512659924
50,Pictures/IA25_G20.bmp,Pictures/IA25_G20.bmp,25,"

I wouldn't gamble for this one. """"",0,safe,,,,,1.0,0.0,1.0,0.0,0.0,18.0,18.0,5.0,,,,,,,,,,,,,,,,,,,,,,,,,,,,,,,1302.218481357002,None,1304.2404749400011,1305.7611484760018,1305.7444399820015,None,1307.2985363980006,None,1.0,1309.2704015769996,None,1309.2704015769996,None,1309.2704015769996,None,1309.8719837690005,None,1309.8719837690005,1310.8746241789995,1311.9775325280025,None,1311.9775325280025,None,1.0,1311.9775325280025,None,None,None,1312.9300444649998,1313.9661059360005,0.9130140819979715,,,,,,,0.4761712580002495,,,,,,,110.0,1,18,1,2019_Dec_06_1308,Test,3.2.4,59.83998512659924
51,Pictures/IA50_G20.bmp,Pictures/IA50_G20.bmp,50,"

Let's venture and take a risk!""""",1,risk,,,,,1.0,0.0,1.0,0.0,0.0,19.0,19.0,10.0,,,,,,,,,,,,,,,,,,,,,,,,,,,,,,,1313.9828167330015,None,1316.004814461001,1317.5254861520007,1317.5087795370018,None,1319.029452777002,None,1.0,1321.0347361640015,None,1321.0347361640015,None,1321.0347361640015,None,1321.5861915960013,None,1321.5861915960013,1322.5888313040014,1323.6917407559995,None,1323.6917407559995,None,0.0,1323.6917407559995,None,1324.276613225,1325.6803117599993,None,None,0.5508075000034296,,,,,,,0.4238306750012271,,,,,,,110.0,1,18,1,2019_Dec_06_1308,Test,3.2.4,59.83998512659924
53,Pictures/IA25_L5.bmp,Pictures/IA25_L5.bmp,25,"

It would be smarter to choose the safe option.""""",0,safe,,,,,2.0,0.0,2.0,0.0,0.0,0.0,0.0,0.0,,,,,,,,,,,,,1333.5343476190026,None,1333.5343476190028,None,1333.5343476190028,None,1,5.756210218001797,1333.5343476190026,None,1333.5343476190028,None,1333.5343476190028,None,return,8.907986793998134,1333.5343476190026,None,1342.491287719,None,1344.4965713300007,1346.0172447910008,1346.000535039002,None,1347.5546367640018,None,1.0,1349.526497502,None,1349.526497502,None,1349.526497502,None,1351.1140119699994,None,1351.1140119699994,1352.116651319,1353.2195650050016,None,1353.2195650050016,None,1.0,1353.2195650050016,None,None,None,1354.0885159440004,1355.2248431549997,0.8309863649992622,,,,,,,1.4520626890007406,,,,,,,110.0,1,18,1,2019_Dec_06_1308,Test,3.2.4,59.83998512659924
54,Pictures/IA75_G45.bmp,Pictures/IA75_G45.bmp,75,"

Don't gamble for this one.""""",0,safe,,,,,2.0,0.0,2.0,0.0,0.0,1.0,1.0,7.0,,,,,,,,,,,,,,,,,,,,,,,,,,,,,,,1355.2415504630007,None,1357.2635535570007,1358.7842242309998,1358.767517999,None,1360.2714809950012,None,1.0,1362.2934842159993,None,1362.2934842159993,None,1362.2934842159993,None,1362.744667166,None,1362.744667166,1363.747305099001,1364.8669327000025,None,1364.8669327000025,None,0.0,1364.8669327000025,None,1365.2512706180023,1366.8722077510029,None,None,0.34361962500042864,,,,,,,0.3410801019999781,,,,,,,110.0,1,18,1,2019_Dec_06_1308,Test,3.2.4,59.83998512659924
55,Pictures/IA25_L10.bmp,Pictures/IA25_L10.bmp,25,"

Dont be afraid to take the risk!""""",1,risk,,,,,2.0,0.0,2.0,0.0,0.0,2.0,2.0,12.0,,,,,,,,,,,,,,,,,,,,,,,,,,,,,,,1366.8889195990014,None,1368.9109174270016,1370.431589115,1370.414880784003,None,1371.9689773060018,None,1.0,1373.9408477979996,None,1373.9408477979996,None,1373.9408477979996,None,1374.5257165740004,None,1374.5257165740004,1375.528356101,1376.6312677540009,None,1376.6312677540009,None,1.0,1376.6312677540009,None,None,None,1377.0657417809998,1378.6365456740023,0.38729102999786846,,,,,,,0.4537148420022277,,,,,,,110.0,1,18,1,2019_Dec_06_1308,Test,3.2.4,59.83998512659924
56,Pictures/IA25_G20.bmp,Pictures/IA25_G20.bmp,25,"

I wouldn't gamble for this one. """"",0,safe,,,,,2.0,0.0,2.0,0.0,0.0,3.0,3.0,9.0,,,,,,,,,,,,,,,,,,,,,,,,,,,,,,,1378.6532582050022,None,1380.6752596820006,1382.1959324710003,1382.1792209939997,None,1383.6831845310007,None,1.0,1385.7051859460007,None,1385.7051859460007,None,1385.7051859460007,None,1386.1563750950008,None,1386.1563750950008,1387.1590088910016,1388.2619222730027,None,1388.2619222730027,None,0.0,1388.2619222730027,None,1389.4818004850022,None,None,None,1.1806297129987797,,,,,,,0.3213823619989853,,,,,,,110.0,1,18,1,2019_Dec_06_1308,Test,3.2.4,59.83998512659924
57,Pictures/IA75_L45.bmp,Pictures/IA75_L45.bmp,75,"

Don't gamble for this one, play it safe.""""",0,safe,,,,,2.0,0.0,2.0,0.0,0.0,4.0,4.0,14.0,,,,,,,,,,,,,,,,,,,,,,,,,,,,,,,1390.2672024800013,None,1392.289201904001,1393.8098715110027,1393.793169804001,None,1395.330548107002,None,1.0,1397.3191258900006,None,1397.3191258900006,None,1397.3191258900006,None,1397.8037407260017,None,1397.8037407260017,1398.8063735120013,1399.9092859760021,None,1399.9092859760021,None,0.0,1399.9092859760021,None,1400.4440267009995,1401.9145656540022,None,None,0.485271614001249,,,,,,,0.34743872699982603,,,,,,,110.0,1,18,1,2019_Dec_06_1308,Test,3.2.4,59.839985126599245
58,Pictures/IA75_G30.bmp,Pictures/IA75_G30.bmp,75,"

Be bold, gamble!""""",1,risk,,,,,2.0,0.0,2.0,0.0,0.0,5.0,5.0,2.0,,,,,,,,,,,,,,,,,,,,,,,,,,,,,,,1401.9312776270017,None,1403.9532746830012,1405.4739472130022,1405.4572390320027,None,1406.9612015300008,None,1.0,1408.9831998160007,None,1408.9831998160007,None,1408.9831998160007,None,1409.4343866730014,None,1409.4343866730014,1410.4370262560005,1411.5399416800028,None,1411.5399416800028,None,0.0,1411.5399416800028,None,1412.4757425240023,1413.5452198480016,None,None,0.8866089410003042,,,,,,,0.3473626269988017,,,,,,,110.0,1,18,1,2019_Dec_06_1308,Test,3.2.4,59.839985126599245
59,Pictures/IA25_G10.bmp,Pictures/IA25_G10.bmp,25,"

What's life without a little risk?""""",1,risk,,,,,2.0,0.0,2.0,0.0,0.0,6.0,6.0,19.0,,,,,,,,,,,,,,,,,,,,,,,,,,,,,,,1413.561934726,None,1415.5839279520005,1417.1046008420017,1417.0878933240022,None,1418.6085681389995,None,1.0,1420.6138547580013,None,1420.6138547580013,None,1420.6138547580013,None,1421.0650401780003,None,1421.0650401780003,1422.0676815629995,1423.1705949560019,None,1423.1705949560019,None,0.0,1423.1705949560019,None,1423.4713822440026,1425.1758731100017,None,None,0.26395707199844765,,,,,,,0.3327041779994033,,,,,,,110.0,1,18,1,2019_Dec_06_1308,Test,3.2.4,59.83998512659924
60,Pictures/IA100_L20.bmp,Pictures/IA100_L20.bmp,100,"

Try to win as much money as you can, gamble!""""",1,risk,,,,,2.0,0.0,2.0,0.0,0.0,7.0,7.0,6.0,,,,,,,,,,,,,,,,,,,,,,,,,,,,,,,1425.1925877440008,None,1427.2145834969995,1428.7352565470028,1428.7185489000003,None,1430.2392213349995,None,1.0,1432.244508685002,None,1432.244508685002,None,1432.244508685002,None,1432.6455649029995,None,1432.6455649029995,1433.6482058410002,1434.751116145002,None,1434.751116145002,None,1.0,1434.751116145002,None,None,None,1435.118745617001,1436.756394166001,0.3314268729991454,,,,,,,0.2620519049996801,,,,,,,110.0,1,18,1,2019_Dec_06_1308,Test,3.2.4,59.839985126599245
61,Pictures/IA25_L20.bmp,Pictures/IA25_L20.bmp,25,"

Don't be tempted to gamble.""""",0,safe,,,,,2.0,0.0,2.0,0.0,0.0,8.0,8.0,15.0,,,,,,,,,,,,,,,,,,,,,,,,,,,,,,,1436.773106353001,None,1438.795105133002,1440.3157779179999,1440.2990706220007,None,1441.8364566910022,None,1.0,1443.8250387480002,None,1443.8250387480002,None,1443.8250387480002,None,1444.4767475879999,None,1444.4767475879999,1445.479384372,1446.5822988809996,None,1446.5822988809996,None,0.0,1446.5822988809996,None,1447.1838798120007,1448.5875787370023,None,None,0.5562538630001654,,,,,,,0.5295324380022066,,,,,,,110.0,1,18,1,2019_Dec_06_1308,Test,3.2.4,59.83998512659924
62,Pictures/IA25_L15.bmp,Pictures/IA25_L15.bmp,25,"

There's not much on the line here, gamble!""""",1,risk,,,,,2.0,0.0,2.0,0.0,0.0,9.0,9.0,10.0,,,,,,,,,,,,,,,,,,,,,,,,,,,,,,,1448.6042937710008,None,1450.6262873990015,1452.146962004001,1452.130253096002,None,1453.6676430260013,None,1.0,1455.6562134609994,None,1455.6562134609994,None,1455.6562134609994,None,1456.1408248080006,None,1456.1408248080006,1457.1434613320016,1458.246376217001,None,1458.246376217001,None,1.0,1458.246376217001,None,None,None,1459.0484834950003,1460.2349453780007,0.7641716979997,,,,,,,0.3303494769970712,,,,,,,110.0,1,18,1,2019_Dec_06_1308,Test,3.2.4,59.839985126599245
63,Pictures/IA80_40_L95p.bmp,Pictures/IA80_40_L95p.bmp,80,"

Let's stay with the certain option.""""",0,safe,,,,,2.0,0.0,2.0,0.0,0.0,10.0,10.0,18.0,,,,,,,,,,,,,,,,,,,,,,,,,,,,,,,1460.2516588440012,None,1462.2736505810026,1463.794326324001,1463.777620003002,None,1465.2815815310023,None,1.0,1467.3035800090001,None,1467.3035800090001,None,1467.3035800090001,None,1467.7714790909995,None,1467.7714790909995,1468.7741154540017,1469.8770290560024,None,1469.8770290560024,None,1.0,1469.8770290560024,None,None,None,1470.3115083129996,1471.8823169550014,0.3975198830012232,,,,,,,0.3389936260027753,,,,,,,110.0,1,18,1,2019_Dec_06_1308,Test,3.2.4,59.83998512659924
64,Pictures/IA75_L60.bmp,Pictures/IA75_L60.bmp,75,"

Why not take the gamble?""""",1,risk,,,,,2.0,0.0,2.0,0.0,0.0,11.0,11.0,1.0,,,,,,,,,,,,,,,,,,,,,,,,,,,,,,,1471.899021055,None,1473.9210182620009,1475.4416938700015,1475.4249839680015,None,1476.9957907660028,None,1.0,1478.9509474709994,None,1478.9509474709994,None,1478.9509474709994,None,1479.5191080469995,None,1479.5191080469995,1480.5217473200028,1481.6246596359997,None,1481.6246596359997,None,0.0,1481.6246596359997,None,1482.1761088720014,1483.6132294769995,None,None,0.505898277999222,,,,,,,0.4436188360014057,,,,,,,110.0,1,18,1,2019_Dec_06_1308,Test,3.2.4,59.83998512659924
65,Pictures/IA100_G40.bmp,Pictures/IA100_G40.bmp,100,"

Try your luck and gamble!""""",1,risk,,,,,2.0,0.0,2.0,0.0,0.0,12.0,12.0,11.0,,,,,,,,,,,,,,,,,,,,,,,,,,,,,,,1483.6299452019994,None,1485.651941111002,1487.172612325001,1487.1559059000028,None,1488.6932896060025,None,1.0,1490.681866463001,None,1490.681866463001,None,1490.681866463001,None,1491.1163493099994,None,1491.1163493099994,1492.1189867130015,1493.2218956480028,None,1493.2218956480028,None,0.0,1493.2218956480028,None,1493.6062383650024,1495.2104671900015,None,None,0.3406578399990394,,,,,,,0.3206978429989249,,,,,,,110.0,1,18,1,2019_Dec_06_1308,Test,3.2.4,59.83998512659924
66,Pictures/IA40_20_G95p.bmp,Pictures/IA40_20_G95p.bmp,40,"

Hold back, stay with the safe choice.""""",0,safe,,,,,2.0,0.0,2.0,0.0,0.0,13.0,13.0,4.0,,,,,,,,,,,,,,,,,,,,,,,,,,,,,,,1495.227177046003,None,1497.249175039,1498.7698487230011,1498.7531404180008,None,1500.2905260299995,None,1.0,1502.2791041870005,None,1502.2791041870005,None,1502.2791041870005,None,1502.7302904050011,None,1502.7302904050011,1503.7329304070008,1504.8358592330005,None,1504.8358592330005,None,0.0,1504.8358592330005,None,1505.2536075800017,1506.8244294510005,None,None,0.3826837670021632,,,,,,,0.32347027200012235,,,,,,,110.0,1,18,1,2019_Dec_06_1308,Test,3.2.4,59.839985126599245
67,Pictures/IA20_10_L95p.bmp,Pictures/IA20_10_L95p.bmp,20,"

Don't be tempted to gamble.""""",0,safe,,,,,2.0,0.0,2.0,0.0,0.0,14.0,14.0,5.0,,,,,,,,,,,,,,,,,,,,,,,,,,,,,,,1506.8411256500003,None,1508.8631225360004,1510.38379557,1510.3670920500006,None,1511.9211859339994,None,1.0,1513.8930517610024,None,1513.8930517610024,None,1513.8930517610024,None,1514.3108205720018,None,1514.3108205720018,1515.3134571570008,1516.4163685330022,None,1516.4163685330022,None,1.0,1516.4163685330022,None,None,None,1516.8675542570018,1518.4049425660014,0.41019693099951837,,,,,,,0.3015128490005736,,,,,,,110.0,1,18,1,2019_Dec_06_1308,Test,3.2.4,59.83998512659924
68,Pictures/IA110_55_L95p.bmp,Pictures/IA110_55_L95p.bmp,110,"

Trust me, gamble!""""",1,risk,,,,,2.0,0.0,2.0,0.0,0.0,15.0,15.0,16.0,,,,,,,,,,,,,,,,,,,,,,,,,,,,,,,1518.4216505580007,None,1520.4436484970029,1521.9643269510016,1521.947615825,None,1523.4850017530007,None,1.0,1525.4735816920002,None,1525.4735816920002,None,1525.4735816920002,None,1527.1613604840022,None,1527.1613604840022,1528.1639984419999,1529.2669110200004,None,1529.2669110200004,None,1.0,1529.2669110200004,None,None,None,1529.6512533640016,1531.255481258002,0.3436377049984003,,,,,,,1.576986402997136,,,,,,,110.0,1,18,1,2019_Dec_06_1308,Test,3.2.4,59.839985126599245
69,Pictures/IA50_G10.bmp,Pictures/IA50_G10.bmp,50,"

Go with the safe option here!""""",0,safe,,,,,2.0,0.0,2.0,0.0,0.0,16.0,16.0,8.0,,,,,,,,,,,,,,,,,,,,,,,,,,,,,,,1531.2721918500029,None,1533.2941917310018,1534.8148994980002,1534.7981589740011,None,1536.3355472050025,None,1.0,1538.324120567002,None,1538.324120567002,None,1538.324120567002,None,1538.7418869300018,None,1538.7418869300018,1539.7445299810024,1540.8474402350002,None,1540.8474402350002,None,0.0,1540.8474402350002,None,1541.3821816519994,1542.8527254460023,None,None,0.49111661500137416,,,,,,,0.2944417530015926,,,,,,,110.0,1,18,1,2019_Dec_06_1308,Test,3.2.4,59.83998512659924
70,Pictures/IA25_G5.bmp,Pictures/IA25_G5.bmp,25,"

Let's stay with the certain option.""""",0,safe,,,,,2.0,0.0,2.0,0.0,0.0,17.0,17.0,17.0,,,,,,,,,,,,,,,,,,,,,,,,,,,,,,,1542.8694335639993,None,1544.8914315460024,1546.4121042650006,1546.3953969489996,None,1547.9327853930008,None,1.0,1549.9213597380003,None,1549.9213597380003,None,1549.9213597380003,None,1550.6064997300018,None,1550.6064997300018,1551.609148114003,1552.7120514410017,None,1552.7120514410017,None,0.0,1552.7120514410017,None,1553.046261345,1554.717330581003,None,None,0.29051273399818456,,,,,,,0.5532091919994855,,,,,,,110.0,1,18,1,2019_Dec_06_1308,Test,3.2.4,59.83998512659924
71,Pictures/IA80_40_G95p.bmp,Pictures/IA80_40_G95p.bmp,80,"

Think of the payoff, gamble!""""",1,risk,,,,,2.0,0.0,2.0,0.0,0.0,18.0,18.0,3.0,,,,,,,,,,,,,,,,,,,,,,,,,,,,,,,1554.7340463440014,None,1556.7560430410012,1558.2600071140005,1558.2433032830013,None,1559.7973971220017,None,1.0,1561.7859711720012,None,1561.7859711720012,None,1561.7859711720012,None,1562.5713752110023,None,1562.5713752110023,1563.574013079,1564.6769290660013,None,1564.6769290660013,None,0.0,1564.6769290660013,None,1565.1615331600005,1566.6654956830025,None,None,0.4456249239992758,,,,,,,0.6565932299999986,,,,,,,110.0,1,18,1,2019_Dec_06_1308,Test,3.2.4,59.839985126599245
72,Pictures/IA110_55_G95p.bmp,Pictures/IA110_55_G95p.bmp,110,"

Take a chance!""""",1,risk,,,,,2.0,0.0,2.0,0.0,0.0,19.0,19.0,13.0,,,,,,,,,,,,,,,,,,,,,,,,,,,,,,,1566.6822091579998,None,1568.7042070099997,1570.2248808309994,1570.2081776369996,None,1571.745563372002,None,1.0,1573.7341368160014,None,1573.7341368160014,None,1573.7341368160014,None,1574.4694073160026,None,1574.4694073160026,1575.4720431999995,1576.5749611230021,None,1576.5749611230021,None,0.0,1576.5749611230021,None,1577.1932525420016,1578.563533069002,None,None,0.5715915770015272,,,,,,,0.6444413399985933,,,,,,,110.0,1,18,1,2019_Dec_06_1308,Test,3.2.4,59.83998512659924
74,Pictures/IA100_G80.bmp,Pictures/IA100_G80.bmp,100,"

Why not gamble?""""",1,risk,,,,,3.0,0.0,3.0,0.0,0.0,0.0,0.0,19.0,,,,,,,,,,,,,1585.030584041,None,1585.030584041,None,1585.030584041,None,0,5.155968950999522,1585.030584041,None,1585.030584041,None,1585.030584041,None,return,7.155847967998852,1585.030584041,None,1592.249613840002,None,1594.2549056280004,1595.7755753420026,1595.7588690670016,None,1597.2795458809996,None,1.0,1599.2681209719995,None,1599.2681209719995,None,1599.2681209719995,None,1599.8195869310002,None,1599.8195869310002,1600.822223829,1601.9251368540026,None,1601.9251368540026,None,1.0,1601.9251368540026,None,None,None,1602.2593420490011,1603.9304080740003,0.2934043050008768,,,,,,,0.4544475820002845,,,,,,,110.0,1,18,1,2019_Dec_06_1308,Test,3.2.4,59.83998512659924
75,Pictures/IA25_L10.bmp,Pictures/IA25_L10.bmp,25,"

Dont be afraid to take the risk!""""",1,risk,,,,,3.0,0.0,3.0,0.0,0.0,1.0,1.0,3.0,,,,,,,,,,,,,,,,,,,,,,,,,,,,,,,1603.9471204120018,None,1605.9858282370005,1607.4897936859998,1607.4730842600004,None,1608.9937608740001,None,1.0,1610.9990502559995,None,1610.9990502559995,None,1610.9990502559995,None,1611.5337920839993,None,1611.5337920839993,1612.536435883001,1613.6560548670022,None,1613.6560548670022,None,1.0,1613.6560548670022,None,None,None,1614.1072392019996,1615.6446257380012,0.4105125499991118,,,,,,,0.4275146299987682,,,,,,,110.0,1,18,1,2019_Dec_06_1308,Test,3.2.4,59.83998512659924
76,Pictures/IA75_L30.bmp,Pictures/IA75_L30.bmp,75,"

Hold back, stay with the safe choice.""""",0,safe,,,,,3.0,0.0,3.0,0.0,0.0,2.0,2.0,17.0,,,,,,,,,,,,,,,,,,,,,,,,,,,,,,,1615.6613376019995,None,1617.683339172003,1619.2040112400027,1619.1873056840013,None,1620.707980121002,None,1.0,1622.713266537001,None,1622.713266537001,None,1622.713266537001,None,1623.2647201090003,None,1623.2647201090003,1624.2673597510002,1625.3702745180017,None,1625.3702745180017,None,0.0,1625.3702745180017,None,1625.721193491001,1627.3588505430016,None,None,0.3042819500005862,,,,,,,0.4172884520012303,,,,,,,110.0,1,18,1,2019_Dec_06_1308,Test,3.2.4,59.839985126599245
77,Pictures/IA75_G60.bmp,Pictures/IA75_G60.bmp,75,"

Make it exciting, take a chance!""""",1,risk,,,,,3.0,0.0,3.0,0.0,0.0,3.0,3.0,4.0,,,,,,,,,,,,,,,,,,,,,,,,,,,,,,,1627.3755551060021,None,1629.3975555590005,1630.9182270220008,1630.901520653002,None,1632.4221966440018,None,1.0,1634.4274888229993,None,1634.4274888229993,None,1634.4274888229993,None,1635.4969750359996,None,1635.4969750359996,1636.4996103150006,1637.6192403250025,None,1637.6192403250025,None,1.0,1637.6192403250025,None,None,None,1637.9200251960028,1639.6245166400004,0.26331236099940725,,,,,,,0.943075940998824,,,,,,,110.0,1,18,1,2019_Dec_06_1308,Test,3.2.4,59.839985126599245
78,Pictures/IA40_20_G95p.bmp,Pictures/IA40_20_G95p.bmp,40,"

Hold back, stay with the safe choice.""""",0,safe,,,,,3.0,0.0,3.0,0.0,0.0,4.0,4.0,2.0,,,,,,,,,,,,,,,,,,,,,,,,,,,,,,,1639.6412284860016,None,1641.6632317879996,1643.1839528590024,1643.167231077001,None,1644.6878721600006,None,1.0,1646.693159745002,None,1646.693159745002,None,1646.693159745002,None,1647.1610570390003,None,1647.1610570390003,1648.1636977760027,1649.3167493680012,None,1649.3167493680012,None,0.0,1649.3167493680012,None,1649.7846414060004,1651.3220233840002,None,None,0.42180672000176855,,,,,,,0.3414054759996361,,,,,,,110.0,1,18,1,2019_Dec_06_1308,Test,3.2.4,59.839985126599245
79,Pictures/IA50_G20.bmp,Pictures/IA50_G20.bmp,50,"

Let's venture and take a risk!""""",1,risk,,,,,3.0,0.0,3.0,0.0,0.0,5.0,5.0,6.0,,,,,,,,,,,,,,,,,,,,,,,,,,,,,,,1651.3387368110016,None,1653.3607572910005,1654.8646854140025,1654.8479834600007,None,1656.4689567580026,None,1.0,1658.3906514789996,None,1658.3906514789996,None,1658.3906514789996,None,1658.7917065500005,None,1658.7917065500005,1659.7943575240024,1660.913934745,None,1660.913934745,None,0.0,1660.913934745,None,1661.5155534959995,1662.9025523910022,None,None,0.5526218140003039,,,,,,,0.2919134900002973,,,,,,,110.0,1,18,1,2019_Dec_06_1308,Test,3.2.4,59.83998512659924
80,Pictures/IA100_L60.bmp,Pictures/IA100_L60.bmp,100,"

You'd have a lot to lose, don't gamble.""""",0,safe,,,,,3.0,0.0,3.0,0.0,0.0,6.0,6.0,14.0,,,,,,,,,,,,,,,,,,,,,,,,,,,,,,,1662.919263519001,None,1664.974685487003,1666.478650508001,1666.4452309280023,None,1668.0160557939998,None,1.0,1669.9711868690028,None,1669.9711868690028,None,1669.9711868690028,None,1670.489179815002,None,1670.489179815002,1671.4918654230023,1672.6115066790007,None,1672.6115066790007,None,0.0,1672.6115066790007,None,1673.1307407900022,1674.6167877020016,None,None,0.4710591030016076,,,,,,,0.39937810500123305,,,,,,,110.0,1,18,1,2019_Dec_06_1308,Test,3.2.4,59.839985126599245
81,Pictures/IA80_40_L95p.bmp,Pictures/IA80_40_L95p.bmp,80,"

Let's stay with the certain option.""""",0,safe,,,,,3.0,0.0,3.0,0.0,0.0,7.0,7.0,10.0,,,,,,,,,,,,,,,,,,,,,,,,,,,,,,,1674.6334828310028,None,1676.6721946140024,1678.1761599000022,1678.1427683110016,None,1679.6801830950026,None,1.0,1681.6857406109993,None,1681.6857406109993,None,1681.6857406109993,None,1682.1533198840007,None,1682.1533198840007,1683.1559594790015,1684.2922786950003,None,1684.2922786950003,None,1.0,1684.2922786950003,None,None,None,1684.6599295630003,1686.2808505970024,0.3262781259982148,,,,,,,0.3408166409972182,,,,,,,110.0,1,18,1,2019_Dec_06_1308,Test,3.2.4,59.83998512659924
82,Pictures/IA25_G20.bmp,Pictures/IA25_G20.bmp,25,"

I wouldn't gamble for this one. """"",0,safe,,,,,3.0,0.0,3.0,0.0,0.0,8.0,8.0,15.0,,,,,,,,,,,,,,,,,,,,,,,,,,,,,,,1686.2975636459996,None,1688.3362417790013,1689.8402584790022,1689.8235317220026,None,1691.3776353100002,None,1.0,1693.3327888839995,None,1693.3327888839995,None,1693.3327888839995,None,1693.8174105020007,None,1693.8174105020007,1694.8200452560013,1695.9229480710019,None,1695.9229480710019,None,1.0,1695.9229480710019,None,None,None,1696.4911064980006,1697.9115288570028,0.5275997650023783,,,,,,,0.3737740630022017,,,,,,,110.0,1,18,1,2019_Dec_06_1308,Test,3.2.4,59.83998512659924
83,Pictures/IA40_20_L95p.bmp,Pictures/IA40_20_L95p.bmp,40,"

Trust me, gamble!""""",1,risk,,,,,3.0,0.0,3.0,0.0,0.0,9.0,9.0,5.0,,,,,,,,,,,,,,,,,,,,,,,,,,,,,,,1697.9282388460015,None,1699.9669578450012,1701.4876312900014,1701.4709261259995,None,1703.0250200949995,None,1.0,1704.9634702149997,None,1704.9634702149997,None,1704.9634702149997,None,1706.8350681209995,None,1706.8350681209995,1707.8377098070014,1708.9573333070002,None,1708.9573333070002,None,1.0,1708.9573333070002,None,None,None,1709.2915414160016,1710.9626156890008,0.2932116699994367,,,,,,,1.783102796998719,,,,,,,110.0,1,18,1,2019_Dec_06_1308,Test,3.2.4,59.839985126599245
84,Pictures/IA25_L20.bmp,Pictures/IA25_L20.bmp,25,"

Don't be tempted to gamble.""""",0,safe,,,,,3.0,0.0,3.0,0.0,0.0,10.0,10.0,18.0,,,,,,,,,,,,,,,,,,,,,,,,,,,,,,,1710.9793284160005,None,1713.001334228,1714.5220001990022,1714.5052977350024,None,1716.076100088001,None,1.0,1718.0312633880021,None,1718.0312633880021,None,1718.0312633880021,None,1718.4991567260004,None,1718.4991567260004,1719.5018028720006,1720.604713441,None,1720.604713441,None,0.0,1720.604713441,None,1720.9556351329993,1722.5932827040015,None,None,0.3018401180015644,,,,,,,0.3553033059979498,,,,,,,110.0,1,18,1,2019_Dec_06_1308,Test,3.2.4,59.83998512659924
85,Pictures/IA75_L60.bmp,Pictures/IA75_L60.bmp,75,"

Why not take the gamble?""""",1,risk,,,,,3.0,0.0,3.0,0.0,0.0,11.0,11.0,13.0,,,,,,,,,,,,,,,,,,,,,,,,,,,,,,,1722.609999417,None,1724.648707157001,1726.1693848370016,1726.152673511002,None,1727.7067694150028,None,1.0,1729.661981526002,None,1729.661981526002,None,1729.661981526002,None,1730.296934561,None,1730.296934561,1731.2995751689996,1732.4024898880016,None,1732.4024898880016,None,0.0,1732.4024898880016,None,1732.8369647440013,1734.407775435,None,None,0.4000616600023932,,,,,,,0.5085691750027763,,,,,,,110.0,1,18,1,2019_Dec_06_1308,Test,3.2.4,59.83998512659924
86,Pictures/IA20_10_L95p.bmp,Pictures/IA20_10_L95p.bmp,20,"

Don't be tempted to gamble.""""",0,safe,,,,,3.0,0.0,3.0,0.0,0.0,12.0,12.0,12.0,,,,,,,,,,,,,,,,,,,,,,,,,,,,,,,1734.4244830740026,None,1736.463195299002,1737.9838692490011,1737.967125254003,None,1739.5045474830004,None,1.0,1741.4764222020021,None,1741.4764222020021,None,1741.4764222020021,None,1742.6628826630003,None,1742.6628826630003,1743.6655232010016,1744.768432719,None,1744.768432719,None,1.0,1744.768432719,None,None,None,1745.136062810001,1746.7737156700023,0.33011300900034257,,,,,,,1.0861591110005977,,,,,,,110.0,1,18,1,2019_Dec_06_1308,Test,3.2.4,59.83998512659924
87,Pictures/IA50_L30.bmp,Pictures/IA50_L30.bmp,50,"

Take a leap, I think you should gamble.""""",1,risk,,,,,3.0,0.0,3.0,0.0,0.0,13.0,13.0,16.0,,,,,,,,,,,,,,,,,,,,,,,,,,,,,,,1746.790425348001,None,1748.8124283979996,1750.3331020730002,1750.3163946560016,None,1751.8704924820013,None,1.0,1753.842361166,None,1753.842361166,None,1753.842361166,None,1754.4439531860007,None,1754.4439531860007,1755.4466007420015,1756.5494997700007,None,1756.5494997700007,None,1.0,1756.5494997700007,None,None,None,1757.7192464639993,None,1.1330522390016995,,,,,,,0.4562031009991188,,,,,,,110.0,1,18,1,2019_Dec_06_1308,Test,3.2.4,59.839985126599245
88,Pictures/IA110_55_G95p.bmp,Pictures/IA110_55_G95p.bmp,110,"

Take a chance!""""",1,risk,,,,,3.0,0.0,3.0,0.0,0.0,14.0,14.0,1.0,,,,,,,,,,,,,,,,,,,,,,,,,,,,,,,1758.5714935760006,None,1760.6102053739996,1762.1308794739996,1762.1141724000006,None,1763.6515601560022,None,1.0,1765.6234342509997,None,1765.6234342509997,None,1765.6234342509997,None,1766.124752232001,None,1766.124752232001,1767.127390208003,1768.247018037,None,1768.247018037,None,0.0,1768.247018037,None,1768.5645205149995,1770.2522976340006,None,None,0.267535945000418,,,,,,,0.4191228109993972,,,,,,,110.0,1,18,1,2019_Dec_06_1308,Test,3.2.4,59.83998512659924
89,Pictures/IA75_G45.bmp,Pictures/IA75_G45.bmp,75,"

Don't gamble for this one.""""",0,safe,,,,,3.0,0.0,3.0,0.0,0.0,15.0,15.0,7.0,,,,,,,,,,,,,,,,,,,,,,,,,,,,,,,1770.2690100149994,None,1772.2910133900004,1773.8116868480026,1773.7949796840005,None,1775.365792249002,None,1.0,1777.320946138003,None,1777.320946138003,None,1777.320946138003,None,1777.7721347309998,None,1777.7721347309998,1778.7747735379999,1779.877689625002,None,1779.877689625002,None,0.0,1779.877689625002,None,1780.2453212050023,1781.8829716860018,None,None,0.32487881499764626,,,,,,,0.3376207510009408,,,,,,,110.0,1,18,1,2019_Dec_06_1308,Test,3.2.4,59.83998512659924
90,Pictures/IA50_G10.bmp,Pictures/IA50_G10.bmp,50,"

Go with the safe option here!""""",0,safe,,,,,3.0,0.0,3.0,0.0,0.0,16.0,16.0,0.0,,,,,,,,,,,,,,,,,,,,,,,,,,,,,,,1781.8996827800001,None,1783.9216869949996,1785.4423605480006,1785.4256557770022,None,1786.9630400690003,None,1.0,1788.9516231950001,None,1788.9516231950001,None,1788.9516231950001,None,1789.4362302610025,None,1789.4362302610025,1790.4388700350028,1791.5418174879997,None,1791.5418174879997,None,0.0,1791.5418174879997,None,1791.9762591640028,1793.5470728180007,None,None,0.39672771299956366,,,,,,,0.3709428420006589,,,,,,,110.0,1,18,1,2019_Dec_06_1308,Test,3.2.4,59.83998512659924
91,Pictures/IA100_L20.bmp,Pictures/IA100_L20.bmp,100,"

Try to win as much money as you can, gamble!""""",1,risk,,,,,3.0,0.0,3.0,0.0,0.0,17.0,17.0,9.0,,,,,,,,,,,,,,,,,,,,,,,,,,,,,,,1793.5637806000013,None,1795.5857817610013,1797.1064552110001,1797.0897479100022,None,1798.6438436669996,None,1.0,1800.6157217370019,None,1800.6157217370019,None,1800.6157217370019,None,1801.183881576002,None,1801.183881576002,1802.1865196260005,1803.2894359370002,None,1803.2894359370002,None,1.0,1803.2894359370002,None,None,None,1803.556802299001,1805.2947164700017,0.2331149429992365,,,,,,,0.4188357060011185,,,,,,,110.0,1,18,1,2019_Dec_06_1308,Test,3.2.4,59.839985126599245
92,Pictures/IA75_L15.bmp,Pictures/IA75_L15.bmp,75,"

Trust me, gamble!""""",1,risk,,,,,3.0,0.0,3.0,0.0,0.0,18.0,18.0,11.0,,,,,,,,,,,,,,,,,,,,,,,,,,,,,,,1805.311429321002,None,1807.333438651,1808.8541058650005,1808.8374061060022,None,1810.3914970810001,None,1.0,1812.3633675950005,None,1812.3633675950005,None,1812.3633675950005,None,1812.8145539300021,None,1812.8145539300021,1813.8171924310009,1814.9201096220022,None,1814.9201096220022,None,1.0,1814.9201096220022,None,None,None,1815.2710288750022,1816.9086830270026,0.30645703399932245,,,,,,,0.3671937569997681,,,,,,,110.0,1,18,1,2019_Dec_06_1308,Test,3.2.4,59.839985126599245
93,Pictures/IA110_55_L95p.bmp,Pictures/IA110_55_L95p.bmp,110,"

Trust me, gamble!""""",1,risk,,,,,3.0,0.0,3.0,0.0,0.0,19.0,19.0,8.0,,,,,,,,,,,,,,,,,,,,,,,,,,,,,,,1816.925394127,None,1818.947396812,1820.4680716170005,1820.451362994001,None,1822.0054748110015,None,1.0,1823.977330867001,None,1823.977330867001,None,1823.977330867001,None,1824.6958928070017,None,1824.6958928070017,1825.6985351889998,1826.8348677640024,None,1826.8348677640024,None,1.0,1826.8348677640024,None,None,None,1827.252630635001,1828.8234400930014,0.37567920299989055,,,,,,,0.6412386990014056,,,,,,,110.0,1,18,1,2019_Dec_06_1308,Test,3.2.4,59.839985126599245
95,Pictures/IA25_G20.bmp,Pictures/IA25_G20.bmp,25,"

I wouldn't gamble for this one. """"",0,safe,,,,,4.0,0.0,4.0,0.0,0.0,0.0,0.0,0.0,,,,,,,,,,,,,1836.5103856960013,None,1836.5103856960013,None,1836.5103856960013,None,0,3.764170300000842,1836.5103856960013,None,1836.5103856960013,None,1836.5103856960013,None,return,4.900037932002306,1836.5103856960013,None,1841.4734749950003,None,1843.478763905001,1844.9994513400013,1844.9827321590021,None,1846.4867025720014,None,,1848.4919927360024,None,1848.4919927360024,None,1848.4919927360024,None,None,None,None,None,1851.6001892010026,None,1851.6001892010026,None,1.0,1851.6001892010026,None,None,None,1852.1015059320016,1853.605470925002,0.46637829699830036,,,,,,,,,,,,,,110.0,1,18,1,2019_Dec_06_1308,Test,3.2.4,59.83998512659924
96,Pictures/IA25_L15.bmp,Pictures/IA25_L15.bmp,25,"

There's not much on the line here, gamble!""""",1,risk,,,,,4.0,0.0,4.0,0.0,0.0,1.0,1.0,9.0,,,,,,,,,,,,,,,,,,,,,,,,,,,,,,,1853.622183587002,None,1855.6441834300024,1857.1648606190026,1857.1481540900022,None,1858.718967091001,None,1.0,1860.6741209680004,None,1860.6741209680004,None,1860.6741209680004,None,1861.1587290240022,None,1861.1587290240022,1862.1613713510014,1863.2642909700007,None,1863.2642909700007,None,0.0,1863.2642909700007,None,1864.0998230549994,1865.269573474001,None,None,0.7862663670020993,,,,,,,0.3364433779970568,,,,,,,110.0,1,18,1,2019_Dec_06_1308,Test,3.2.4,59.839985126599245
97,Pictures/IA50_G40.bmp,Pictures/IA50_G40.bmp,50,"

It would probably be best to play it safe.""""",0,safe,,,,,4.0,0.0,4.0,0.0,0.0,2.0,2.0,18.0,,,,,,,,,,,,,,,,,,,,,,,,,,,,,,,1865.2862814030013,None,1867.3082858310008,1868.8289593480006,1868.8122523599993,None,1870.3663489280007,None,1.0,1872.3382199740008,None,1872.3382199740008,None,1872.3382199740008,None,1872.806120428002,None,1872.806120428002,1873.8087598640013,1874.9283860590003,None,1874.9283860590003,None,1.0,1874.9283860590003,None,None,None,1875.6803649730027,1876.9169600980022,0.706169402001251,,,,,,,0.3283496149997518,,,,,,,110.0,1,18,1,2019_Dec_06_1308,Test,3.2.4,59.83998512659924
98,Pictures/IA40_20_G95p.bmp,Pictures/IA40_20_G95p.bmp,40,"

Hold back, stay with the safe choice.""""",0,safe,,,,,4.0,0.0,4.0,0.0,0.0,3.0,3.0,1.0,,,,,,,,,,,,,,,,,,,,,,,,,,,,,,,1876.9336699600026,None,1878.9556706030014,1880.4763485520016,1880.459641335001,None,1881.9970349200012,None,1.0,1883.9856126690029,None,1883.9856126690029,None,1883.9856126690029,None,1884.5203510249994,None,1884.5203510249994,1885.5229918180012,1886.6259086320024,None,1886.6259086320024,None,0.0,1886.6259086320024,None,1887.1272249940012,1888.6311926130002,None,None,0.4646442550001666,,,,,,,0.4089473220010405,,,,,,,110.0,1,18,1,2019_Dec_06_1308,Test,3.2.4,59.839985126599245
99,Pictures/IA50_L20.bmp,Pictures/IA50_L20.bmp,50,"

Certainty is boring, take a risk!""""",1,risk,,,,,4.0,0.0,4.0,0.0,0.0,4.0,4.0,14.0,,,,,,,,,,,,,,,,,,,,,,,,,,,,,,,1888.6479050880007,None,1890.6699038940023,1892.1905797820002,1892.1738736510015,None,1893.7446797459997,None,1.0,1895.6998417270006,None,1895.6998417270006,None,1895.6998417270006,None,1896.1008977260026,None,1896.1008977260026,1897.103539437001,1898.2064531470023,None,1898.2064531470023,None,1.0,1898.2064531470023,None,None,None,1898.9751436660008,1900.2117369219995,0.7241038160027529,,,,,,,0.27072496300024795,,,,,,,110.0,1,18,1,2019_Dec_06_1308,Test,3.2.4,59.839985126599245
100,Pictures/IA110_55_L95p.bmp,Pictures/IA110_55_L95p.bmp,110,"

Trust me, gamble!""""",1,risk,,,,,4.0,0.0,4.0,0.0,0.0,5.0,5.0,10.0,,,,,,,,,,,,,,,,,,,,,,,,,,,,,,,1900.228448910002,None,1902.2504512470005,1903.7711283300011,1903.754419555,None,1905.2583849090006,None,1.0,1907.2803901059997,None,1907.2803901059997,None,1907.2803901059997,None,1908.5169826710007,None,1908.5169826710007,1909.5196215070027,1910.6225377869996,None,1910.6225377869996,None,1.0,1910.6225377869996,None,None,None,1910.923324968,1912.6278204180016,0.2520110789992032,,,,,,,1.1381706959982694,,,,,,,110.0,1,18,1,2019_Dec_06_1308,Test,3.2.4,59.839985126599245
101,Pictures/IA25_G15.bmp,Pictures/IA25_G15.bmp,25,"

I think you should take a gamble.""""",1,risk,,,,,4.0,0.0,4.0,0.0,0.0,6.0,6.0,2.0,,,,,,,,,,,,,,,,,,,,,,,,,,,,,,,1912.644531615002,None,1914.6665371849995,1916.170498646003,1916.153793292,None,1917.7246064030005,None,1.0,1919.6964718150011,None,1919.6964718150011,None,1919.6964718150011,None,1920.1810824929998,None,1920.1810824929998,1921.1837221140013,1922.3033495470008,None,1922.3033495470008,None,0.0,1922.3033495470008,None,1923.0386169850026,1924.308633249002,None,None,0.6912223220024316,,,,,,,0.3620913360027771,,,,,,,110.0,1,18,1,2019_Dec_06_1308,Test,3.2.4,59.83998512659924
102,Pictures/IA100_L60.bmp,Pictures/IA100_L60.bmp,100,"

You'd have a lot to lose, don't gamble.""""",0,safe,,,,,4.0,0.0,4.0,0.0,0.0,7.0,7.0,16.0,,,,,,,,,,,,,,,,,,,,,,,,,,,,,,,1924.3253438110005,None,1926.3473445590023,1927.8513102970028,1927.8346230240022,None,1929.3719952160027,None,1.0,1931.3772875030008,None,1931.3772875030008,None,1931.3772875030008,None,1931.9120261650023,None,1931.9120261650023,1932.9146658960017,1934.0175814979993,None,1934.0175814979993,None,0.0,1934.0175814979993,None,1934.9366735430012,1936.006164538001,None,None,0.8729733330001181,,,,,,,0.3852749450015836,,,,,,,110.0,1,18,1,2019_Dec_06_1308,Test,3.2.4,59.839985126599245
103,Pictures/IA20_10_L95p.bmp,Pictures/IA20_10_L95p.bmp,20,"

Don't be tempted to gamble.""""",0,safe,,,,,4.0,0.0,4.0,0.0,0.0,8.0,8.0,4.0,,,,,,,,,,,,,,,,,,,,,,,,,,,,,,,1936.0228706140006,None,1938.0448710620003,1939.5655454490009,1939.548835561,None,1941.0861885560007,None,,1943.0748049540016,None,1943.0748049540016,None,1943.0748049540016,None,None,None,None,None,1946.2164319780022,None,1946.2164319780022,None,1.0,1946.2164319780022,None,None,None,1946.5005033190027,1948.205000318001,0.24213029900056426,,,,,,,,,,,,,,110.0,1,18,1,2019_Dec_06_1308,Test,3.2.4,59.83998512659924
104,Pictures/IA100_G20.bmp,Pictures/IA100_G20.bmp,100,"

Go ahead and gamble!""""",1,risk,,,,,4.0,0.0,4.0,0.0,0.0,9.0,9.0,7.0,,,,,,,,,,,,,,,,,,,,,,,,,,,,,,,1948.2217155090002,None,1950.2437120270006,1951.7643926010026,1951.7476810210028,None,1953.3017789180012,None,1.0,1955.2736506940018,None,1955.2736506940018,None,1955.2736506940018,None,1955.6412836650015,None,1955.6412836650015,1956.6439256119993,1957.7468450730012,None,1957.7468450730012,None,0.0,1957.7468450730012,None,1958.1478992910015,1959.7354142500008,None,None,0.35971096900175326,,,,,,,0.26490940599978785,,,,,,,110.0,1,18,1,2019_Dec_06_1308,Test,3.2.4,59.83998512659924
105,Pictures/IA100_G40.bmp,Pictures/IA100_G40.bmp,100,"

Try your luck and gamble!""""",1,risk,,,,,4.0,0.0,4.0,0.0,0.0,10.0,10.0,11.0,,,,,,,,,,,,,,,,,,,,,,,,,,,,,,,1959.752126839001,None,1961.774134495001,1963.2948043860013,1963.2781016949994,None,1964.8321982000016,None,1.0,1966.8040675440025,None,1966.8040675440025,None,1966.8040675440025,None,1967.6730212740003,None,1967.6730212740003,1968.6756654830024,1969.862132743001,None,1969.862132743001,None,0.0,1969.862132743001,None,1970.1796315169995,1971.8507109500024,None,None,0.2764163610008836,,,,,,,0.7584943249967182,,,,,,,110.0,1,18,1,2019_Dec_06_1308,Test,3.2.4,59.83998512659924
106,Pictures/IA75_L60.bmp,Pictures/IA75_L60.bmp,75,"

Why not take the gamble?""""",1,risk,,,,,4.0,0.0,4.0,0.0,0.0,11.0,11.0,15.0,,,,,,,,,,,,,,,,,,,,,,,,,,,,,,,1971.8674181500028,None,1973.8894205350007,1975.4100956380025,1975.3933894740005,None,1976.9307758890027,None,1.0,1978.9193582709995,None,1978.9193582709995,None,1978.9193582709995,None,1979.922001146002,None,1979.922001146002,1980.9246414490008,1982.0275582350005,None,1982.0275582350005,None,0.0,1982.0275582350005,None,1982.3784783510018,1984.0161411869994,None,None,0.3030074369999056,,,,,,,0.891202291000809,,,,,,,110.0,1,18,1,2019_Dec_06_1308,Test,3.2.4,59.83998512659924
107,Pictures/IA50_L10.bmp,Pictures/IA50_L10.bmp,50,"

Play it safe, dont gamble!""""",0,safe,,,,,4.0,0.0,4.0,0.0,0.0,12.0,12.0,8.0,,,,,,,,,,,,,,,,,,,,,,,,,,,,,,,1984.0328474480011,None,1986.0548517290008,1987.5755201140014,1987.5588132000012,None,1989.112913830002,None,1.0,1991.0847802850003,None,1991.0847802850003,None,1991.0847802850003,None,1991.970498003,None,1991.970498003,1992.9898451549998,1994.0927173980017,None,1994.0927173980017,None,1.0,1994.0927173980017,None,None,None,1994.4436452440023,1996.081291280003,0.3098378120012057,,,,,,,0.7577975590029382,,,,,,,110.0,1,18,1,2019_Dec_06_1308,Test,3.2.4,59.839985126599245
108,Pictures/IA75_L45.bmp,Pictures/IA75_L45.bmp,75,"

Don't gamble for this one, play it safe.""""",0,safe,,,,,4.0,0.0,4.0,0.0,0.0,13.0,13.0,3.0,,,,,,,,,,,,,,,,,,,,,,,,,,,,,,,1996.0980010750027,None,1998.1200090730015,1999.6406798960013,1999.6239719860023,None,2001.178070547001,None,1.0,2003.1499428410025,None,2003.1499428410025,None,2003.1499428410025,None,2003.6345562740025,None,2003.6345562740025,2004.6372095570005,2005.7401100210009,None,2005.7401100210009,None,0.0,2005.7401100210009,None,2006.208003611002,2007.7453927500028,None,None,0.4224581269991177,,,,,,,0.3406256000016583,,,,,,,110.0,1,18,1,2019_Dec_06_1308,Test,3.2.4,59.839985126599245
109,Pictures/IA100_G80.bmp,Pictures/IA100_G80.bmp,100,"

Why not gamble?""""",1,risk,,,,,4.0,0.0,4.0,0.0,0.0,14.0,14.0,17.0,,,,,,,,,,,,,,,,,,,,,,,,,,,,,,,2007.7621055519994,None,2009.7841076850018,2011.3047839700007,2011.2880741850024,None,2012.858882509001,None,1.0,2014.8140474430002,None,2014.8140474430002,None,2014.8140474430002,None,2015.1816798120017,None,2015.1816798120017,2016.1843203600001,2017.2872372050006,None,2017.2872372050006,None,1.0,2017.2872372050006,None,None,None,2017.7049993809997,2019.2925238710013,0.37930452400178183,,,,,,,0.2685271789996477,,,,,,,110.0,1,18,1,2019_Dec_06_1308,Test,3.2.4,59.83998512659924
110,Pictures/IA75_L30.bmp,Pictures/IA75_L30.bmp,75,"

Hold back, stay with the safe choice.""""",0,safe,,,,,4.0,0.0,4.0,0.0,0.0,15.0,15.0,6.0,,,,,,,,,,,,,,,,,,,,,,,,,,,,,,,2019.3092318570016,None,2021.3312397949994,2022.8352022800027,2022.8184968340029,None,2024.3725900339996,None,1.0,2026.3611728550022,None,2026.3611728550022,None,2026.3611728550022,None,2027.0296009760023,None,2027.0296009760023,2028.0322412570022,2029.135157132001,None,2029.135157132001,None,0.0,2029.135157132001,None,2029.6197644610002,2031.1404414009994,None,None,0.443395836999116,,,,,,,0.5293891750006878,,,,,,,110.0,1,18,1,2019_Dec_06_1308,Test,3.2.4,59.839985126599245
111,Pictures/IA25_G10.bmp,Pictures/IA25_G10.bmp,25,"

What's life without a little risk?""""",1,risk,,,,,4.0,0.0,4.0,0.0,0.0,16.0,16.0,12.0,,,,,,,,,,,,,,,,,,,,,,,,,,,,,,,2031.1571521650003,None,2033.1791546599998,2034.6998316730026,2034.6831243640008,None,2036.2539317420014,None,1.0,2038.2090921420022,None,2038.2090921420022,None,2038.2090921420022,None,2039.027920386001,None,2039.027920386001,2040.0305584400012,2041.133488378,None,2041.133488378,None,0.0,2041.133488378,None,2041.6682170890017,2043.1387592909996,None,None,0.48506646099849604,,,,,,,0.6894726880018425,,,,,,,110.0,1,18,1,2019_Dec_06_1308,Test,3.2.4,59.83998512659924
112,Pictures/IA75_G15.bmp,Pictures/IA75_G15.bmp,75,"

Take a chance!""""",1,risk,,,,,4.0,0.0,4.0,0.0,0.0,17.0,17.0,19.0,,,,,,,,,,,,,,,,,,,,,,,,,,,,,,,2043.1554703710026,None,2045.1774721300026,2046.698152457,2046.6814412349993,None,2048.2522585350016,None,1.0,2050.2074099910024,None,2050.2074099910024,None,2050.2074099910024,None,2050.8758390350013,None,2050.8758390350013,2051.8784840920016,2052.9813961300024,None,2052.9813961300024,None,0.0,2052.9813961300024,None,2053.3991595299995,2054.9699672720017,None,None,0.381152005000331,,,,,,,0.5711667649993615,,,,,,,110.0,1,18,1,2019_Dec_06_1308,Test,3.2.4,59.83998512659924
113,Pictures/IA80_40_L95p.bmp,Pictures/IA80_40_L95p.bmp,80,"

Let's stay with the certain option.""""",0,safe,,,,,4.0,0.0,4.0,0.0,0.0,18.0,18.0,5.0,,,,,,,,,,,,,,,,,,,,,,,,,,,,,,,2054.9866961450025,None,2057.042105065,2058.546070438002,2058.5293696129997,None,2060.033335295,None,1.0,2062.038626870002,None,2062.038626870002,None,2062.038626870002,None,2062.640205566,None,2062.640205566,2063.642847813,2064.7457629890014,None,2064.7457629890014,None,1.0,2064.7457629890014,None,None,None,2065.0131397250007,2066.751045508001,0.2247912249986257,,,,,,,0.4839390960005403,,,,,,,110.0,1,18,1,2019_Dec_06_1308,Test,3.2.4,59.83998512659924
114,Pictures/IA50_L30.bmp,Pictures/IA50_L30.bmp,50,"

Take a leap, I think you should gamble.""""",1,risk,,,,,4.0,0.0,4.0,0.0,0.0,19.0,19.0,13.0,,,,,,,,,,,,,,,,,,,,,,,,,,,,,,,2066.767759147002,None,2068.789764947,2070.310436728,2070.293733595001,None,2071.8311223340024,None,1.0,2073.8197048520015,None,2073.8197048520015,None,2073.8197048520015,None,2074.354441720003,None,2074.354441720003,2075.3570843859998,2076.4599993930024,None,2076.4599993930024,None,0.0,2076.4599993930024,None,2077.0281597499998,2078.4652846110002,None,None,0.5345454270027403,,,,,,,0.3908557990034751,,,,,,,110.0,1,18,1,2019_Dec_06_1308,Test,3.2.4,59.839985126599245
116,Pictures/IA110_55_G95p.bmp,Pictures/IA110_55_G95p.bmp,110,"

Take a chance!""""",1,risk,,,,,5.0,0.0,5.0,0.0,0.0,0.0,0.0,2.0,,,,,,,,,,,,,2085.901569195001,None,2085.901569195001,None,2085.901569195001,None,0,3.8449741389995324,2085.901569195001,None,2085.901569195001,None,2085.901569195001,None,return,6.444764062998729,2085.901569195001,None,2092.4020502019994,None,2094.407339460002,2095.9280170990023,2095.9113139229994,None,2097.4152791220004,None,1.0,2099.4205725050015,None,2099.4205725050015,None,2099.4205725050015,None,2100.055575306,None,2100.055575306,2101.0582163100007,2102.1611346950012,None,2102.1611346950012,None,0.0,2102.1611346950012,None,2102.4284988690015,2104.166415800002,None,None,0.21742094100045506,,,,,,,0.5499832429995877,,,,,,,110.0,1,18,1,2019_Dec_06_1308,Test,3.2.4,59.83998512659924
117,Pictures/IA100_L60.bmp,Pictures/IA100_L60.bmp,100,"

You'd have a lot to lose, don't gamble.""""",0,safe,,,,,5.0,0.0,5.0,0.0,0.0,1.0,1.0,8.0,,,,,,,,,,,,,,,,,,,,,,,,,,,,,,,2104.1831296500022,None,2106.205130441001,2107.725808307001,2107.709100344,None,2109.2464876030026,None,1.0,2111.235069937,None,2111.235069937,None,2111.235069937,None,2111.753100623002,None,2111.753100623002,2112.75574212,2113.858659421003,None,2113.858659421003,None,1.0,2113.858659421003,None,None,None,2114.1594475640013,2115.863944050001,0.26389245000245865,,,,,,,0.3754914619967167,,,,,,,110.0,1,18,1,2019_Dec_06_1308,Test,3.2.4,59.839985126599245
118,Pictures/IA75_G15.bmp,Pictures/IA75_G15.bmp,75,"

Take a chance!""""",1,risk,,,,,5.0,0.0,5.0,0.0,0.0,2.0,2.0,9.0,,,,,,,,,,,,,,,,,,,,,,,,,,,,,,,2115.880657015001,None,2117.9026593760027,2119.4233333859993,2119.406628261,None,2120.9105948940014,None,1.0,2122.9325948840014,None,2122.9325948840014,None,2122.9325948840014,None,2123.7514190719994,None,2123.7514190719994,2124.754060321,2125.8569765730026,None,2125.8569765730026,None,0.0,2125.8569765730026,None,2126.8930434150025,None,None,None,1.0015823949979676,,,,,,,0.7259830389994022,,,,,,,110.0,1,18,1,2019_Dec_06_1308,Test,3.2.4,59.83998512659924
119,Pictures/IA25_L10.bmp,Pictures/IA25_L10.bmp,25,"

Dont be afraid to take the risk!""""",1,risk,,,,,5.0,0.0,5.0,0.0,0.0,3.0,3.0,18.0,,,,,,,,,,,,,,,,,,,,,,,,,,,,,,,2127.878973725001,None,2129.9009772380014,2131.421651162,2131.4049455589998,None,2132.975758056,None,1.0,2134.9309143300015,None,2134.9309143300015,None,2134.9309143300015,None,2135.3988144640025,None,2135.3988144640025,2136.4014543280027,2137.504370517003,None,2137.504370517003,None,1.0,2137.504370517003,None,None,None,2137.9388448749996,2139.5096549610025,0.3941812609991757,,,,,,,0.35164960000111023,,,,,,,110.0,1,18,1,2019_Dec_06_1308,Test,3.2.4,59.83998512659924
120,Pictures/IA25_L15.bmp,Pictures/IA25_L15.bmp,25,"

There's not much on the line here, gamble!""""",1,risk,,,,,5.0,0.0,5.0,0.0,0.0,4.0,4.0,14.0,,,,,,,,,,,,,,,,,,,,,,,,,,,,,,,2139.526365701,None,2141.548368274001,2143.0690475779998,2143.0523398460027,None,2144.5563068369993,None,1.0,2146.5783095000006,None,2146.5783095000006,None,2146.5783095000006,None,2147.0629193010027,None,2147.0629193010027,2148.0655594359996,2149.168474461003,None,2149.168474461003,None,1.0,2149.168474461003,None,None,None,2149.8034804550007,2151.173759311001,0.5860767259982822,,,,,,,0.3442589680016681,,,,,,,110.0,1,18,1,2019_Dec_06_1308,Test,3.2.4,59.839985126599245
121,Pictures/IA25_G10.bmp,Pictures/IA25_G10.bmp,25,"

What's life without a little risk?""""",1,risk,,,,,5.0,0.0,5.0,0.0,0.0,5.0,5.0,17.0,,,,,,,,,,,,,,,,,,,,,,,,,,,,,,,2151.1904711000025,None,2153.2124743679997,2154.7164387640005,2154.6997316220004,None,2156.220410995,None,1.0,2158.2424172540013,None,2158.2424172540013,None,2158.2424172540013,None,2159.2116330740027,None,2159.2116330740027,2160.2142741660027,2161.3171921020003,None,2161.3171921020003,None,0.0,2161.3171921020003,None,2161.651402904001,2163.3224387299997,None,None,0.2853685210029653,,,,,,,0.8481383269972866,,,,,,,110.0,1,18,1,2019_Dec_06_1308,Test,3.2.4,59.83998512659924
122,Pictures/IA75_L45.bmp,Pictures/IA75_L45.bmp,75,"

Don't gamble for this one, play it safe.""""",0,safe,,,,,5.0,0.0,5.0,0.0,0.0,6.0,6.0,10.0,,,,,,,,,,,,,,,,,,,,,,,,,,,,,,,2163.339189129001,None,2165.3611902320013,2166.8651563460007,2166.848449262001,None,2168.3691263399996,None,1.0,2170.3911289370008,None,2170.3911289370008,None,2170.3911289370008,None,2171.0595586670024,None,2171.0595586670024,2172.0621978020026,2173.1818255010003,None,2173.1818255010003,None,0.0,2173.1818255010003,None,2174.6857862809993,None,None,None,1.4607345950025774,,,,,,,0.5234444109992182,,,,,,,110.0,1,18,1,2019_Dec_06_1308,Test,3.2.4,59.839985126599245
123,Pictures/IA110_55_L95p.bmp,Pictures/IA110_55_L95p.bmp,110,"

Trust me, gamble!""""",1,risk,,,,,5.0,0.0,5.0,0.0,0.0,7.0,7.0,11.0,,,,,,,,,,,,,,,,,,,,,,,,,,,,,,,2175.2038217150002,None,2177.225823934001,2178.746499960001,2178.7297931110006,None,2180.2504712890004,None,1.0,2182.2557668619993,None,2182.2557668619993,None,2182.2557668619993,None,2183.7597328360025,None,2183.7597328360025,2184.762373075002,2185.865286831002,None,2185.865286831002,None,1.0,2185.865286831002,None,None,None,2186.232917117002,2187.8705768530017,0.32926079699973343,,,,,,,1.418793706001452,,,,,,,110.0,1,18,1,2019_Dec_06_1308,Test,3.2.4,59.839985126599245
124,Pictures/IA100_G60.bmp,Pictures/IA100_G60.bmp,100,"

Be cautious, don't gamble for this one.""""",0,safe,,,,,5.0,0.0,5.0,0.0,0.0,8.0,8.0,12.0,,,,,,,,,,,,,,,,,,,,,,,,,,,,,,,2187.8872791899994,None,2189.9092857190008,2191.429961738002,2191.4132575760013,None,2192.967353862001,None,1.0,2194.9392247920005,None,2194.9392247920005,None,2194.9392247920005,None,2195.6912032770015,None,2195.6912032770015,2196.69384534,2197.7967642210024,None,2197.7967642210024,None,0.0,2197.7967642210024,None,2198.3816324140025,2199.7853362800015,None,None,0.5497811840032227,,,,,,,0.6073493080002663,,,,,,,110.0,1,18,1,2019_Dec_06_1308,Test,3.2.4,59.839985126599245
125,Pictures/IA100_L40.bmp,Pictures/IA100_L40.bmp,100,"

Think of the payoff, gamble!""""",1,risk,,,,,5.0,0.0,5.0,0.0,0.0,9.0,9.0,5.0,,,,,,,,,,,,,,,,,,,,,,,,,,,,,,,2199.802046392,None,2201.8240523019995,2203.344690080001,2203.328019093002,None,2204.882116683002,None,1.0,2206.853990691001,None,2206.853990691001,None,2206.853990691001,None,2208.0070267180017,None,2208.0070267180017,2209.0096744630027,2210.11258655,None,2210.11258655,None,1.0,2210.11258655,None,None,None,2210.814432182,2212.1178702060024,0.6579784970017499,,,,,,,1.0525724880026246,,,,,,,110.0,1,18,1,2019_Dec_06_1308,Test,3.2.4,59.839985126599245
126,Pictures/IA50_G20.bmp,Pictures/IA50_G20.bmp,50,"

Let's venture and take a risk!""""",1,risk,,,,,5.0,0.0,5.0,0.0,0.0,10.0,10.0,3.0,,,,,,,,,,,,,,,,,,,,,,,,,,,,,,,2212.1345819760027,None,2214.1565840010007,2215.6772606550007,2215.660554850001,None,2217.181230852002,None,1.0,2219.1865259299993,None,2219.1865259299993,None,2219.1865259299993,None,2219.721267189001,None,2219.721267189001,2220.723906886,2221.843533956002,None,2221.843533956002,None,0.0,2221.843533956002,None,2222.3114286570017,2223.848819785002,None,None,0.4310140589986986,,,,,,,0.4240210999996634,,,,,,,110.0,1,18,1,2019_Dec_06_1308,Test,3.2.4,59.83998512659924
127,Pictures/IA20_10_L95p.bmp,Pictures/IA20_10_L95p.bmp,20,"

Don't be tempted to gamble.""""",0,safe,,,,,5.0,0.0,5.0,0.0,0.0,11.0,11.0,6.0,,,,,,,,,,,,,,,,,,,,,,,,,,,,,,,2223.8655278730002,None,2225.8875331300005,2227.408209348003,2227.391501376001,None,2228.912179916002,None,1.0,2230.917477518,None,2230.917477518,None,2230.917477518,None,2231.3519557690015,None,2231.3519557690015,2232.3546069149997,2233.4742166920005,None,2233.4742166920005,None,1.0,2233.4742166920005,None,None,None,2234.142646004002,2235.4795023160004,0.6323351089995413,,,,,,,0.3250856730010128,,,,,,,110.0,1,18,1,2019_Dec_06_1308,Test,3.2.4,59.83998512659924
128,Pictures/IA40_20_L95p.bmp,Pictures/IA40_20_L95p.bmp,40,"

Trust me, gamble!""""",1,risk,,,,,5.0,0.0,5.0,0.0,0.0,12.0,12.0,19.0,,,,,,,,,,,,,,,,,,,,,,,,,,,,,,,2235.496226567,None,2237.5182170280027,2239.038890749001,2239.022183985002,None,2240.5428651990005,None,1.0,2242.548165761,None,2242.548165761,None,2242.548165761,None,2242.9325002920014,None,2242.9325002920014,2243.935140531001,2245.0380567790016,None,2245.0380567790016,None,1.0,2245.0380567790016,None,None,None,2245.3054254160015,2247.0433422700007,0.2284970170003362,,,,,,,0.286399964003067,,,,,,,110.0,1,18,1,2019_Dec_06_1308,Test,3.2.4,59.839985126599245
129,Pictures/IA75_G30.bmp,Pictures/IA75_G30.bmp,75,"

Be bold, gamble!""""",1,risk,,,,,5.0,0.0,5.0,0.0,0.0,13.0,13.0,0.0,,,,,,,,,,,,,,,,,,,,,,,,,,,,,,,2247.0600535129997,None,2249.0820598950013,2250.6027341990007,2250.5860280359993,None,2252.1401292120026,None,1.0,2254.1119955150025,None,2254.1119955150025,None,2254.1119955150025,None,2254.7470009120007,None,2254.7470009120007,2255.749644241001,2256.8859822609993,None,2256.8859822609993,None,0.0,2256.8859822609993,None,2257.587842377001,2258.8912704329996,None,None,0.6525796280002396,,,,,,,0.5385801709999214,,,,,,,110.0,1,18,1,2019_Dec_06_1308,Test,3.2.4,59.839985126599245
130,Pictures/IA100_G80.bmp,Pictures/IA100_G80.bmp,100,"

Why not gamble?""""",1,risk,,,,,5.0,0.0,5.0,0.0,0.0,14.0,14.0,13.0,,,,,,,,,,,,,,,,,,,,,,,,,,,,,,,2258.907977428,None,2260.9299922380014,2262.4506548169993,2262.4339512340007,None,2263.937918226002,None,1.0,2265.9599624559996,None,2265.9599624559996,None,2265.9599624559996,None,2267.2132249800015,None,2267.2132249800015,2268.215864304002,2269.318780409001,None,2269.318780409001,None,1.0,2269.318780409001,None,None,None,2269.703158401,2271.307353016,0.3477847299982386,,,,,,,1.15458425199904,,,,,,,110.0,1,18,1,2019_Dec_06_1308,Test,3.2.4,59.83998512659924
131,Pictures/IA50_L40.bmp,Pictures/IA50_L40.bmp,50,"

That gamble doesn't sound too good, play it safe.""""",0,safe,,,,,5.0,0.0,5.0,0.0,0.0,15.0,15.0,16.0,,,,,,,,,,,,,,,,,,,,,,,,,,,,,,,2271.324065803001,None,2273.3460749170013,2274.866746049,2274.8500439350028,None,2276.387392492001,None,,2278.3760084700007,None,2278.3760084700007,None,2278.3760084700007,None,None,None,None,None,2281.5343624330017,None,2281.5343624330017,None,0.0,2281.5343624330017,None,2282.135921109002,2283.539624039,None,None,0.5561858169967309,,,,,,,,,,,,,,110.0,1,18,1,2019_Dec_06_1308,Test,3.2.4,59.839985126599245
132,Pictures/IA80_40_L95p.bmp,Pictures/IA80_40_L95p.bmp,80,"

Let's stay with the certain option.""""",0,safe,,,,,5.0,0.0,5.0,0.0,0.0,16.0,16.0,7.0,,,,,,,,,,,,,,,,,,,,,,,,,,,,,,,2283.556336607002,None,2285.5950505950022,2287.0990147800007,2287.0823097659995,None,2288.6029860730014,None,1.0,2290.6082784169994,None,2290.6082784169994,None,2290.6082784169994,None,2291.159733714001,None,2291.159733714001,2292.1623752570013,2293.2652880210007,None,2293.2652880210007,None,1.0,2293.2652880210007,None,None,None,2293.5994971910004,2295.270571633002,0.28926224099996034,,,,,,,0.4182857689993398,,,,,,,110.0,1,18,1,2019_Dec_06_1308,Test,3.2.4,59.83998512659924
133,Pictures/IA20_10_G95p.bmp,Pictures/IA20_10_G95p.bmp,20,"

Take a leap, I think you should gamble.""""",1,risk,,,,,5.0,0.0,5.0,0.0,0.0,17.0,17.0,15.0,,,,,,,,,,,,,,,,,,,,,,,,,,,,,,,2295.2872832850007,None,2297.3092920000017,2298.8299638749995,2298.813257504,None,2300.3673547100007,None,1.0,2302.3392285420014,None,2302.3392285420014,None,2302.3392285420014,None,2303.4755557380013,None,2303.4755557380013,2304.4781966709998,2305.581114714001,None,2305.581114714001,None,0.0,2305.581114714001,None,2305.948744178,2307.586396466002,None,None,0.33344104000207153,,,,,,,0.99933410399899,,,,,,,110.0,1,18,1,2019_Dec_06_1308,Test,3.2.4,59.839985126599245
134,Pictures/IA75_L30.bmp,Pictures/IA75_L30.bmp,75,"

Hold back, stay with the safe choice.""""",0,safe,,,,,5.0,0.0,5.0,0.0,0.0,18.0,18.0,1.0,,,,,,,,,,,,,,,,,,,,,,,,,,,,,,,2307.6031079310014,None,2309.625110707002,2311.145790437,2311.129081426003,None,2312.6330470780013,None,1.0,2314.6550552219996,None,2314.6550552219996,None,2314.6550552219996,None,2316.092175973001,None,2316.092175973001,2317.0948161160013,2318.1977318820027,None,2318.1977318820027,None,0.0,2318.1977318820027,None,2318.4985231089995,2320.186304615003,None,None,0.26081522399908863,,,,,,,1.3075102180009708,,,,,,,110.0,1,18,1,2019_Dec_06_1308,Test,3.2.4,59.839985126599245
135,Pictures/IA75_L15.bmp,Pictures/IA75_L15.bmp,75,"

Trust me, gamble!""""",1,risk,,,,,5.0,0.0,5.0,0.0,0.0,19.0,19.0,4.0,,,,,,,,,,,,,,,,,,,,,,,,,,,,,,,2320.2030166030017,None,2322.225024745003,2323.745695221001,2323.728988791001,None,2325.2496654160022,None,1.0,2327.254960006001,None,2327.254960006001,None,2327.254960006001,None,2327.5557501559997,None,2327.5557501559997,2328.558391579001,2329.661371041002,None,2329.661371041002,None,1.0,2329.661371041002,None,None,None,2329.911963786002,2331.6498814670013,0.21316644699982132,,,,,,,0.1956008019988076,,,,,,,110.0,1,18,1,2019_Dec_06_1308,Test,3.2.4,59.839985126599245
137,Pictures/IA75_G60.bmp,Pictures/IA75_G60.bmp,75,"

Make it exciting, take a chance!""""",1,risk,,,,,6.0,0.0,6.0,0.0,0.0,0.0,0.0,5.0,,,,,,,,,,,,,2344.2330836309993,None,2344.2330836309993,None,2344.2330836309993,None,0,2.1614665950000926,2344.2330836309993,None,2344.2330836309993,None,2344.2330836309993,None,return,4.889275502999227,2344.2330836309993,None,2349.179468694001,None,2351.1847532659995,2352.705430330003,2352.6887227180014,None,2354.2261105729995,None,1.0,2356.1979824219998,None,2356.1979824219998,None,2356.1979824219998,None,2356.548907274002,None,2356.548907274002,2357.5515474800013,2358.654464317002,None,2358.654464317002,None,1.0,2358.654464317002,None,None,None,2359.0889383920003,2360.643037635,0.3960885330016026,,,,,,,0.22857418000057805,,,,,,,110.0,1,18,1,2019_Dec_06_1308,Test,3.2.4,59.839985126599245
138,Pictures/IA25_G5.bmp,Pictures/IA25_G5.bmp,25,"

Let's stay with the certain option.""""",0,safe,,,,,6.0,0.0,6.0,0.0,0.0,1.0,1.0,12.0,,,,,,,,,,,,,,,,,,,,,,,,,,,,,,,2360.659749046001,None,2362.6817515010007,2364.2024270960032,2364.185725437001,None,2365.739820609,None,1.0,2367.7116917660023,None,2367.7116917660023,None,2367.7116917660023,None,2368.580653838002,None,2368.580653838002,2369.5832888490004,2370.686205809001,None,2370.686205809001,None,0.0,2370.686205809001,None,2371.103994637,2372.6747848859995,None,None,0.3803458160000446,,,,,,,0.7388844510023773,,,,,,,110.0,1,18,1,2019_Dec_06_1308,Test,3.2.4,59.83998512659924
139,Pictures/IA100_G20.bmp,Pictures/IA100_G20.bmp,100,"

Go ahead and gamble!""""",1,risk,,,,,6.0,0.0,6.0,0.0,0.0,2.0,2.0,9.0,,,,,,,,,,,,,,,,,,,,,,,,,,,,,,,2372.6914926220015,None,2374.713494238,2376.234171293003,2376.217466809001,None,2377.7381421360005,None,1.0,2379.7434356500016,None,2379.7434356500016,None,2379.7434356500016,None,2381.130431808,None,2381.130431808,2382.1330665080022,2383.235983912,None,2383.235983912,None,0.0,2383.235983912,None,2383.620328391,2385.22455721,None,None,0.3345718790005776,,,,,,,1.2991218349998237,,,,,,,110.0,1,18,1,2019_Dec_06_1308,Test,3.2.4,59.83998512659924
140,Pictures/IA25_L15.bmp,Pictures/IA25_L15.bmp,25,"

There's not much on the line here, gamble!""""",1,risk,,,,,6.0,0.0,6.0,0.0,0.0,3.0,3.0,8.0,,,,,,,,,,,,,,,,,,,,,,,,,,,,,,,2385.241269514001,None,2387.263271544001,2388.7839464570025,2388.767241167003,None,2390.2879189630003,None,,2392.293216618,None,2392.293216618,None,2392.293216618,None,None,None,None,None,2395.401411799001,None,2395.401411799001,None,1.0,2395.401411799001,None,None,None,2396.3372093729995,2397.4067000249997,0.8891468500005429,,,,,,,,,,,,,,110.0,1,18,1,2019_Dec_06_1308,Test,3.2.4,59.839985126599245
141,Pictures/IA50_L20.bmp,Pictures/IA50_L20.bmp,50,"

Certainty is boring, take a risk!""""",1,risk,,,,,6.0,0.0,6.0,0.0,0.0,4.0,4.0,16.0,,,,,,,,,,,,,,,,,,,,,,,,,,,,,,,2397.42341431,None,2399.4454118050016,2400.9660890520026,2400.949382607003,None,2402.47005783,None,1.0,2404.4753480479994,None,2404.4753480479994,None,2404.4753480479994,None,2404.909831793,None,2404.909831793,2405.912471030002,2407.015386408002,None,2407.015386408002,None,1.0,2407.015386408002,None,None,None,2407.449866646002,2409.020673117,0.39516492300026573,,,,,,,0.3192172369999753,,,,,,,110.0,1,18,1,2019_Dec_06_1308,Test,3.2.4,59.839985126599245
142,Pictures/IA75_G45.bmp,Pictures/IA75_G45.bmp,75,"

Don't gamble for this one.""""",0,safe,,,,,6.0,0.0,6.0,0.0,0.0,5.0,5.0,1.0,,,,,,,,,,,,,,,,,,,,,,,,,,,,,,,2409.0373832110017,None,2411.059387055,2412.580067805,2412.563356742001,None,2414.0840217000004,None,1.0,2416.0893309670028,None,2416.0893309670028,None,2416.0893309670028,None,2416.724339471002,None,2416.724339471002,2417.7269806959994,2418.8298907570024,None,2418.8298907570024,None,0.0,2418.8298907570024,None,2419.197529373003,2420.8351781300007,None,None,0.32466265200127964,,,,,,,0.5292308649986808,,,,,,,110.0,1,18,1,2019_Dec_06_1308,Test,3.2.4,59.83998512659924
143,Pictures/IA50_L40.bmp,Pictures/IA50_L40.bmp,50,"

That gamble doesn't sound too good, play it safe.""""",0,safe,,,,,6.0,0.0,6.0,0.0,0.0,6.0,6.0,14.0,,,,,,,,,,,,,,,,,,,,,,,,,,,,,,,2420.8518862109995,None,2422.873890680003,2424.394568043001,2424.377859690001,None,2425.881827453002,None,1.0,2427.903831576001,None,2427.903831576001,None,2427.903831576001,None,2429.742012871,None,2429.742012871,2430.744653201,2431.8475696269998,None,2431.8475696269998,None,0.0,2431.8475696269998,None,2432.4658623130017,2433.8361440459994,None,None,0.5789814620002289,,,,,,,1.6827251320028154,,,,,,,110.0,1,18,1,2019_Dec_06_1308,Test,3.2.4,59.839985126599245
144,Pictures/IA75_L45.bmp,Pictures/IA75_L45.bmp,75,"

Don't gamble for this one, play it safe.""""",0,safe,,,,,6.0,0.0,6.0,0.0,0.0,7.0,7.0,15.0,,,,,,,,,,,,,,,,,,,,,,,,,,,,,,,2433.852857357,None,2435.874857599,2437.395534790001,2437.378828312001,None,2438.8995032830026,None,1.0,2440.9047974560017,None,2440.9047974560017,None,2440.9047974560017,None,2443.728915625001,None,2443.728915625001,2444.7315565940007,2445.867894668001,None,2445.867894668001,None,0.0,2445.867894668001,None,2446.2021026710026,2447.8731777370012,None,None,0.2866630509997776,,,,,,,2.697764726999594,,,,,,,110.0,1,18,1,2019_Dec_06_1308,Test,3.2.4,59.839985126599245
145,Pictures/IA75_L15.bmp,Pictures/IA75_L15.bmp,75,"

Trust me, gamble!""""",1,risk,,,,,6.0,0.0,6.0,0.0,0.0,8.0,8.0,6.0,,,,,,,,,,,,,,,,,,,,,,,,,,,,,,,2447.889888816,None,2449.911891472002,2451.4325736550013,2451.41586352,None,2452.9198309679996,None,,2454.941835714002,None,2454.941835714002,None,2454.941835714002,None,None,None,None,None,2458.0333225249997,None,2458.0333225249997,None,1.0,2458.0333225249997,None,None,None,2458.2839822560018,2460.021897636001,0.20124172899886614,,,,,,,,,,,,,,110.0,1,18,1,2019_Dec_06_1308,Test,3.2.4,59.839985126599245
146,Pictures/IA20_10_L95p.bmp,Pictures/IA20_10_L95p.bmp,20,"

Don't be tempted to gamble.""""",0,safe,,,,,6.0,0.0,6.0,0.0,0.0,9.0,9.0,3.0,,,,,,,,,,,,,,,,,,,,,,,,,,,,,,,2460.0386084109996,None,2462.0606130039996,2463.5812883979997,2463.5645821960024,None,2465.0852581220024,None,,2467.0905683890014,None,2467.0905683890014,None,2467.0905683890014,None,None,None,None,None,2470.182043549001,None,2470.182043549001,None,1.0,2470.182043549001,None,None,None,2471.702715266001,None,1.4765153059997829,,,,,,,,,,,,,,110.0,1,18,1,2019_Dec_06_1308,Test,3.2.4,59.83998512659924
147,Pictures/IA100_G80.bmp,Pictures/IA100_G80.bmp,100,"

Why not gamble?""""",1,risk,,,,,6.0,0.0,6.0,0.0,0.0,10.0,10.0,7.0,,,,,,,,,,,,,,,,,,,,,,,,,,,,,,,2472.187326383002,None,2474.209328420002,2475.730012511001,2475.713300454001,None,2477.2339824129995,None,,2479.239243547003,None,2479.239243547003,None,2479.239243547003,None,None,None,None,None,2482.3307616230013,None,2482.3307616230013,None,1.0,2482.3307616230013,None,None,None,2482.848807434002,2484.3193345280015,0.4797944109996024,,,,,,,,,,,,,,110.0,1,18,1,2019_Dec_06_1308,Test,3.2.4,59.83998512659924
148,Pictures/IA75_L60.bmp,Pictures/IA75_L60.bmp,75,"

Why not take the gamble?""""",1,risk,,,,,6.0,0.0,6.0,0.0,0.0,11.0,11.0,17.0,,,,,,,,,,,,,,,,,,,,,,,,,,,,,,,2484.3360482860007,None,2486.3580508840023,2487.878729978001,2487.862020243003,None,2489.416136076001,None,1.0,2491.3879856919993,None,2491.3879856919993,None,2491.3879856919993,None,2492.1399722589995,None,2492.1399722589995,2493.142612873002,2494.2622423970024,None,2494.2622423970024,None,0.0,2494.2622423970024,None,2495.281591138002,None,None,None,0.9803021759980766,,,,,,,0.6385866860000533,,,,,,,110.0,1,18,1,2019_Dec_06_1308,Test,3.2.4,59.83998512659924
149,Pictures/IA25_G15.bmp,Pictures/IA25_G15.bmp,25,"

I think you should take a gamble.""""",1,risk,,,,,6.0,0.0,6.0,0.0,0.0,12.0,12.0,18.0,,,,,,,,,,,,,,,,,,,,,,,,,,,,,,,2496.2675261000004,None,2498.2895301060016,2499.810205891001,2499.793499282001,None,2501.3141763429994,None,1.0,2503.319470399001,None,2503.319470399001,None,2503.319470399001,None,2504.6396171160013,None,2504.6396171160013,2505.642257478001,2506.7451755270013,None,2506.7451755270013,None,1.0,2506.7451755270013,None,None,None,2507.530575672001,2508.733749156003,0.7453743370024313,,,,,,,1.1950927229991066,,,,,,,110.0,1,18,1,2019_Dec_06_1308,Test,3.2.4,59.83998512659924
150,Pictures/IA25_L5.bmp,Pictures/IA25_L5.bmp,25,"

It would be smarter to choose the safe option.""""",0,safe,,,,,6.0,0.0,6.0,0.0,0.0,13.0,13.0,11.0,,,,,,,,,,,,,,,,,,,,,,,,,,,,,,,2508.750461388001,None,2510.772464863003,2512.2931408600016,2512.276438044002,None,2513.8305325639994,None,1.0,2515.802405505001,None,2515.802405505001,None,2515.802405505001,None,2516.8217597870025,None,2516.8217597870025,2517.8244007370013,2518.9273182409997,None,2518.9273182409997,None,,2518.9273182409997,None,None,None,None,None,,,,,,,,0.8801516189996619,,,,,,,110.0,1,18,1,2019_Dec_06_1308,Test,3.2.4,59.83998512659924
151,Pictures/IA100_G60.bmp,Pictures/IA100_G60.bmp,100,"

Be cautious, don't gamble for this one.""""",0,safe,,,,,6.0,0.0,6.0,0.0,0.0,14.0,14.0,19.0,,,,,,,,,,,,,,,,,,,,,,,,,,,,,,,2520.9326047489994,None,2522.9546044490016,2524.475281939001,2524.4585744239994,None,2525.979251863002,None,1.0,2527.9845534000015,None,2527.9845534000015,None,2527.9845534000015,None,2528.686394176002,None,2528.686394176002,2529.6890367330016,2530.808667227,None,2530.808667227,None,0.0,2530.808667227,None,2531.5606419540018,2532.7972420130027,None,None,0.7058879869982775,,,,,,,0.5540108410023095,,,,,,,110.0,1,18,1,2019_Dec_06_1308,Test,3.2.4,59.839985126599245
152,Pictures/IA80_40_L95p.bmp,Pictures/IA80_40_L95p.bmp,80,"

Let's stay with the certain option.""""",0,safe,,,,,6.0,0.0,6.0,0.0,0.0,15.0,15.0,13.0,,,,,,,,,,,,,,,,,,,,,,,,,,,,,,,2532.8139493960007,None,2534.8359519820006,2536.3566299420017,2536.3399232830016,None,2537.8606008690003,None,,2539.8658921860006,None,2539.8658921860006,None,2539.8658921860006,None,None,None,None,None,2542.990820127001,None,2542.990820127001,None,1.0,2542.990820127001,None,None,None,2543.2915953690026,2544.9961007460006,0.2517353160001221,,,,,,,,,,,,,,110.0,1,18,1,2019_Dec_06_1308,Test,3.2.4,59.83998512659924
153,Pictures/IA25_G10.bmp,Pictures/IA25_G10.bmp,25,"

What's life without a little risk?""""",1,risk,,,,,6.0,0.0,6.0,0.0,0.0,16.0,16.0,4.0,,,,,,,,,,,,,,,,,,,,,,,,,,,,,,,2545.012800847002,None,2547.034804576,2548.555481836,2548.538774052002,None,2550.0594561010003,None,1.0,2552.0647515029996,None,2552.0647515029996,None,2552.0647515029996,None,2553.033970882003,None,2553.033970882003,2554.0366072690013,2555.1395244220002,None,2555.1395244220002,None,0.0,2555.1395244220002,None,2556.4429581020013,None,None,None,1.2630319859999872,,,,,,,0.8498069590023078,,,,,,,110.0,1,18,1,2019_Dec_06_1308,Test,3.2.4,59.83998512659924
154,Pictures/IA75_G30.bmp,Pictures/IA75_G30.bmp,75,"

Be bold, gamble!""""",1,risk,,,,,6.0,0.0,6.0,0.0,0.0,17.0,17.0,2.0,,,,,,,,,,,,,,,,,,,,,,,,,,,,,,,2557.1615190280027,None,2559.183523042,2560.708305485001,2560.690739501002,None,2562.208175652002,None,1.0,2564.2301758249996,None,2564.2301758249996,None,2564.2301758249996,None,2565.048998921,None,2565.048998921,2566.0516472400013,2567.171267396003,None,2567.171267396003,None,0.0,2567.171267396003,None,2567.672587789002,2569.1765540430024,None,None,0.4552873249995173,,,,,,,0.7243867529978161,,,,,,,110.0,1,18,1,2019_Dec_06_1308,Test,3.2.4,59.839985126599245
155,Pictures/IA50_G10.bmp,Pictures/IA50_G10.bmp,50,"

Go with the safe option here!""""",0,safe,,,,,6.0,0.0,6.0,0.0,0.0,18.0,18.0,0.0,,,,,,,,,,,,,,,,,,,,,,,,,,,,,,,2569.193265109003,None,2571.215268967,2572.735945787001,2572.7192387190007,None,2574.2399170030003,None,,2576.245209343,None,2576.245209343,None,2576.245209343,None,None,None,None,None,2579.336703555,None,2579.336703555,None,0.0,2579.336703555,None,2579.888148823,2581.3252766760015,None,None,0.5058481839987508,,,,,,,,,,,,,,110.0,1,18,1,2019_Dec_06_1308,Test,3.2.4,59.83998512659924
156,Pictures/IA40_20_L95p.bmp,Pictures/IA40_20_L95p.bmp,40,"

Trust me, gamble!""""",1,risk,,,,,6.0,0.0,6.0,0.0,0.0,19.0,19.0,10.0,,,,,,,,,,,,,,,,,,,,,,,,,,,,,,,2581.3419907280004,None,2583.363987988003,2584.884669447001,2584.8679596130023,None,2586.3886368919993,None,1.0,2588.3939291200004,None,2588.3939291200004,None,2588.3939291200004,None,2588.8618288340003,None,2588.8618288340003,2589.8644732909997,2590.9673857410016,None,2590.9673857410016,None,1.0,2590.9673857410016,None,None,None,2591.2848855830016,2592.955961407002,0.2751640829992539,,,,,,,0.3606441509982688,,,,,,,110.0,1,18,1,2019_Dec_06_1308,Test,3.2.4,59.839985126599245
158,Pictures/IA75_L45.bmp,Pictures/IA75_L45.bmp,75,"

Don't gamble for this one, play it safe.""""",0,safe,,,,,7.0,0.0,7.0,0.0,0.0,0.0,0.0,15.0,,,,,,,,,,,,,2600.058036554001,None,2600.058036554001,None,2600.058036554001,None,0,1.1525084669992791,2600.058036554001,None,2600.058036554001,None,2600.058036554001,None,return,2.6963256389972234,2600.058036554001,None,2602.815310479,None,2604.8206019490026,2606.341278562002,2606.324570812001,None,2607.8118312590013,None,1.0,2609.83383213,None,2609.83383213,None,2609.83383213,None,2610.953450426001,None,2610.953450426001,2611.956096124002,2613.059011833,None,2613.059011833,None,0.0,2613.059011833,None,2613.376506452001,2615.047581895,None,None,0.2715396650019102,,,,,,,0.984730453001248,,,,,,,110.0,1,18,1,2019_Dec_06_1308,Test,3.2.4,59.839985126599245
159,Pictures/IA50_G10.bmp,Pictures/IA50_G10.bmp,50,"

Go with the safe option here!""""",0,safe,,,,,7.0,0.0,7.0,0.0,0.0,1.0,1.0,4.0,,,,,,,,,,,,,,,,,,,,,,,,,,,,,,,2615.064293624,None,2617.0862986930006,2618.606973367001,2618.590266999003,None,2620.0942361039997,None,1.0,2622.116239045001,None,2622.116239045001,None,2622.116239045001,None,2623.2692824740006,None,2623.2692824740006,2624.2719348659994,2625.3748363490013,None,2625.3748363490013,None,0.0,2625.3748363490013,None,2625.8928645980013,2627.3634131729996,None,None,0.4757157419990108,,,,,,,1.0383243969990872,,,,,,,110.0,1,18,1,2019_Dec_06_1308,Test,3.2.4,59.83998512659924
160,Pictures/IA50_G20.bmp,Pictures/IA50_G20.bmp,50,"

Let's venture and take a risk!""""",1,risk,,,,,7.0,0.0,7.0,0.0,0.0,2.0,2.0,6.0,,,,,,,,,,,,,,,,,,,,,,,,,,,,,,,2627.3801231489997,None,2629.4021341900007,2630.9228024130025,2630.9060963699994,None,2632.4267729720013,None,1.0,2634.4320663310027,None,2634.4320663310027,None,2634.4320663310027,None,2635.167336958002,None,2635.167336958002,2636.1699825649994,2637.2728969279997,None,2637.2728969279997,None,0.0,2637.2728969279997,None,2637.6238160329995,2639.2614959519997,None,None,0.31366115800119587,,,,,,,0.610497422003391,,,,,,,110.0,1,18,1,2019_Dec_06_1308,Test,3.2.4,59.83998512659924
161,Pictures/IA50_L30.bmp,Pictures/IA50_L30.bmp,50,"

Take a leap, I think you should gamble.""""",1,risk,,,,,7.0,0.0,7.0,0.0,0.0,3.0,3.0,3.0,,,,,,,,,,,,,,,,,,,,,,,,,,,,,,,2639.2781822180004,None,2641.300184582,2642.8208618280005,2642.804154944002,None,2644.324835012001,None,1.0,2646.3301306819994,None,2646.3301306819994,None,2646.3301306819994,None,2647.8006724299994,None,2647.8006724299994,2648.8033140760017,2649.906246896,None,2649.906246896,None,1.0,2649.906246896,None,None,None,2650.4075471960023,2651.9115145530013,0.4563151840011415,,,,,,,1.3204239059996326,,,,,,,110.0,1,18,1,2019_Dec_06_1308,Test,3.2.4,59.839985126599245
162,Pictures/IA75_L15.bmp,Pictures/IA75_L15.bmp,75,"

Trust me, gamble!""""",1,risk,,,,,7.0,0.0,7.0,0.0,0.0,4.0,4.0,18.0,,,,,,,,,,,,,,,,,,,,,,,,,,,,,,,2651.9282251440018,None,2653.950228203001,2655.470907543,2655.4541991490005,None,2656.974882810002,None,,2658.980170848001,None,2658.980170848001,None,2658.980170848001,None,None,None,None,None,2662.0716622319997,None,2662.0716622319997,None,1.0,2662.0716622319997,None,None,None,2662.4727152080013,2664.0769459820003,0.3628885030011588,,,,,,,,,,,,,,110.0,1,18,1,2019_Dec_06_1308,Test,3.2.4,59.839985126599245
163,Pictures/IA110_55_G95p.bmp,Pictures/IA110_55_G95p.bmp,110,"

Take a chance!""""",1,risk,,,,,7.0,0.0,7.0,0.0,0.0,5.0,5.0,10.0,,,,,,,,,,,,,,,,,,,,,,,,,,,,,,,2664.093657398,None,2666.1156669800002,2667.6363389800026,2667.619631933001,None,2669.1570253989994,None,,2671.1456023480023,None,2671.1456023480023,None,2671.1456023480023,None,None,None,None,None,2674.220385296001,None,2674.220385296001,None,0.0,2674.220385296001,None,2674.654856809,2676.208956421,None,None,0.39017103699734434,,,,,,,,,,,,,,110.0,1,18,1,2019_Dec_06_1308,Test,3.2.4,59.83998512659924
164,Pictures/IA20_10_L95p.bmp,Pictures/IA20_10_L95p.bmp,20,"

Don't be tempted to gamble.""""",0,safe,,,,,7.0,0.0,7.0,0.0,0.0,6.0,6.0,19.0,,,,,,,,,,,,,,,,,,,,,,,,,,,,,,,2676.2256727890017,None,2678.2476727460016,2679.768347743,2679.751643554002,None,2681.2556097820016,None,,2683.2776123990006,None,2683.2776123990006,None,2683.2776123990006,None,None,None,None,None,2686.402524418001,None,2686.402524418001,None,1.0,2686.402524418001,None,None,None,2687.6725375860005,None,1.2239772209977673,,,,,,,,,,,,,,110.0,1,18,1,2019_Dec_06_1308,Test,3.2.4,59.83998512659924
165,Pictures/IA20_10_G95p.bmp,Pictures/IA20_10_G95p.bmp,20,"

Take a leap, I think you should gamble.""""",1,risk,,,,,7.0,0.0,7.0,0.0,0.0,7.0,7.0,7.0,,,,,,,,,,,,,,,,,,,,,,,,,,,,,,,2688.4245207860004,None,2690.446523259001,2691.9672078050025,2691.9504964879998,None,2693.471179073,None,,2695.4764722260006,None,2695.4764722260006,None,2695.4764722260006,None,None,None,None,None,2698.618090729,None,2698.618090729,None,0.0,2698.618090729,None,2699.0692773260016,2700.6066632130023,None,None,0.4084764050021477,,,,,,,,,,,,,,110.0,1,18,1,2019_Dec_06_1308,Test,3.2.4,59.839985126599245
166,Pictures/IA75_G30.bmp,Pictures/IA75_G30.bmp,75,"

Be bold, gamble!""""",1,risk,,,,,7.0,0.0,7.0,0.0,0.0,8.0,8.0,1.0,,,,,,,,,,,,,,,,,,,,,,,,,,,,,,,2700.623374445,None,2702.6453803190016,2704.166055605001,2704.149348570001,None,2705.6700277519994,None,,2707.675319498001,None,2707.675319498001,None,2707.675319498001,None,None,None,None,None,2710.7668176940024,None,2710.7668176940024,None,,2710.7668176940024,None,None,None,None,None,,,,,,,,,,,,,,,110.0,1,18,1,2019_Dec_06_1308,Test,3.2.4,59.839985126599245
167,Pictures/IA50_G40.bmp,Pictures/IA50_G40.bmp,50,"

