,Choice,Choice2,Amount,AdviceVar1,GambleAdviceNum,GambleAdviceType,practice.thisRepN,practice.thisTrialN,practice.thisN,practice.thisIndex,trials_2.thisRepN,trials_2.thisTrialN,trials_2.thisN,trials_2.thisIndex,trials.thisRepN,trials.thisTrialN,trials.thisN,trials.thisIndex,text.started,text.stopped,key_resp_4.keys,key_resp_4.rt,key_resp_4.started,key_resp_4.stopped,instructions.started,instructions.stopped,space.keys,space.rt,space.started,space.stopped,chooseInst.started,chooseInst.stopped,Ad1.started,Ad1.stopped,Ad2.started,Ad2.stopped,key_resp_3.keys,key_resp_3.rt,key_resp_3.started,key_resp_3.stopped,Ad1pic.started,Ad1pic.stopped,Ad2pic.started,Ad2pic.stopped,enter.keys,enter.rt,enter.started,enter.stopped,iSi.started,iSi.stopped,receiveMoneyPicture.started,receiveMoneyPicture.stopped,ISI2.started,ISI2.stopped,ChoicePic.started,ChoicePic.stopped,response.keys,response.started,response.stopped,yesNo.started,yesNo.stopped,ask.started,ask.stopped,getAdv.started,getAdv.stopped,textForCode.started,textForCode.stopped,blank.started,blank.stopped,ChoicePic2.started,ChoicePic2.stopped,resp.keys,resp.started,resp.stopped,checkL1.started,checkL1.stopped,checkR1.started,checkR1.stopped,response.rt,resp.rt,EndPrac.started,EndPrac.stopped,key_resp.keys,key_resp.rt,key_resp.started,key_resp.stopped,endText.started,endText.stopped,key_resp_2.keys,key_resp_2.rt,key_resp_2.started,key_resp_2.stopped,participant,session,age,gender,date,expName,psychopyVersion,frameRate
4,Pictures/IA100_G40.bmp,Pictures/IA100_G40.bmp,Pictures/IA100.bmp,"

Try your luck and gamble!""""",1,risk,0,0.0,0.0,5.0,,,,,,,,,,,,,,,,,,,,,,,,,,,,,,,,,,,,,,,1282.2772559849836,None,1284.2491187169799,1285.7697897040052,1285.7530803009868,None,1287.257044219994,None,,1289.312460560992,None,1289.312460560992,None,1289.312460560992,None,None,None,None,None,1292.4039396579901,None,1292.4039396579901,None,None,1292.4039396579901,None,None,None,None,None,,,,,,,,,,,,,,,113.0,1,19,1,2020_Feb_05_1203,Test,3.2.4,59.84182071169459
5,Pictures/IA100_G20.bmp,Pictures/IA100_G20.bmp,Pictures/IA100.bmp,"

Go ahead and gamble!""""",1,risk,0,1.0,1.0,4.0,,,,,,,,,,,,,,,,,,,,,,,,,,,,,,,,,,,,,,,1294.4092170489894,None,1296.4312151559861,1297.9518845129933,1297.9351781889854,None,1299.4892729889834,None,1.0,1301.4611451159872,None,1301.4611451159872,None,1301.4611451159872,None,1301.7451798999973,None,1301.7451798999973,1302.7478499359859,1303.8507620199816,None,1303.8507620199816,None,None,1303.8507620199816,None,None,None,None,None,0.1846991399943363,,,,,,,,,,,,,,113.0,1,19,1,2020_Feb_05_1203,Test,3.2.4,59.84182071169459
6,Pictures/IA50_G20.bmp,Pictures/IA50_G20.bmp,Pictures/IA50.bmp,"

Let's venture and take a risk!""""",1,risk,0,2.0,2.0,1.0,,,,,,,,,,,,,,,,,,,,,,,,,,,,,,,,,,,,,,,1305.8560419239802,None,1307.9114582449838,1309.4154182159982,1309.3987119099766,None,1310.952803666005,None,1.0,1312.9079597239904,None,1312.9079597239906,None,1312.9079597239906,None,1314.0275692029973,None,1314.0275692029973,1315.0302084819996,1316.133120707993,None,1316.133120707993,None,None,1316.133120707993,None,None,None,None,None,1.0178772759973072,,,,,,,,,,,,,,113.0,1,19,1,2020_Feb_05_1203,Test,3.2.4,59.84182071169459
7,Pictures/IA50_G30.bmp,Pictures/IA50_G30.bmp,Pictures/IA50.bmp,"

I think you should gamble.""""",1,risk,0,3.0,3.0,2.0,,,,,,,,,,,,,,,,,,,,,,,,,,,,,,,,,,,,,,,1318.1383978769882,None,1320.1603936259926,1321.6810659659966,1321.6643581509998,None,1323.2518765899877,None,1.0,1325.1903147269913,None,1325.1903147269913,None,1325.1903147269913,None,1326.6107280580036,None,1326.6107280580036,1327.6133593409904,1328.716274493985,None,1328.716274493985,None,None,1328.716274493985,None,None,None,None,None,1.303523395996308,,,,,,,,,,,,,,113.0,1,19,1,2020_Feb_05_1203,Test,3.2.4,59.84182071169459
8,Pictures/IA50_G40.bmp,Pictures/IA50_G40.bmp,Pictures/IA50.bmp,"

It would probably be best to play it safe.""""",0,safe,0,4.0,4.0,3.0,,,,,,,,,,,,,,,,,,,,,,,,,,,,,,,,,,,,,,,1330.721557529003,None,1332.7435408399906,1334.2642158109809,1334.2475085909828,None,1335.8183166319795,None,2.0,1337.773465477978,None,1337.7734654779779,None,1337.7734654779779,None,None,None,None,None,1338.9432152129884,None,1338.9432152129884,None,0,1338.9432152129884,None,1340.096250128001,None,None,None,0.9843792990141084,1.1186220490199048,,,,,,,,,,,,,113.0,1,19,1,2020_Feb_05_1203,Test,3.2.4,59.84182071169459
9,Pictures/IA50_G10.bmp,Pictures/IA50_G10.bmp,Pictures/IA50.bmp,"

Go with the safe option here!""""",0,safe,0,5.0,5.0,0.0,,,,,,,,,,,,,,,,,,,,,,,,,,,,,,,,,,,,,,,1340.9484942279814,None,1342.9704997429799,1344.4911638629856,1344.474453998002,None,1346.045256434998,None,2.0,1348.0004104539985,None,1348.0004104539985,None,1348.0004104539985,None,None,None,None,None,1348.819236802985,None,1348.819236802985,None,0,1348.819236802985,None,1350.5404323689872,None,None,None,0.6534380789962597,1.6745998360274823,,,,,,,,,,,,,113.0,1,19,1,2020_Feb_05_1203,Test,3.2.4,59.84182071169459
11,Pictures/IA25_G15.bmp,Pictures/IA25_G15.bmp,Pictures/IA25.bmp,"

I think you should take a gamble.""""",1,risk,,,,,0.0,0.0,0.0,0.0,0.0,0.0,0.0,3.0,,,,,,,,,,,,,1354.851793644979,None,1354.851793644979,None,1354.851793644979,None,0,4.778038845019182,1354.851793644979,None,1354.851793644979,None,1354.851793644979,None,return,6.561909345997265,1354.851793644979,None,1361.4692249969812,None,1363.5079353049805,1365.0118905619893,1364.9951837289846,None,1366.5158547009923,None,1.0,1368.4877249400015,None,1368.4877249400015,None,1368.4877249400015,None,1369.7075637429953,None,1369.7075637429953,1370.7102370919893,1371.8465697710053,None,1371.8465697710053,None,0,1371.8465697710053,None,1372.7823637120018,1373.8351041789865,None,None,1.1021105370018631,0.8952714960032608,,,,,,,,,,,,,113.0,1,19,1,2020_Feb_05_1203,Test,3.2.4,59.84182071169459
12,Pictures/IA50_G40.bmp,Pictures/IA50_G40.bmp,Pictures/IA50.bmp,"

It would probably be best to play it safe.""""",0,safe,,,,,0.0,0.0,0.0,0.0,0.0,1.0,1.0,18.0,,,,,,,,,,,,,,,,,,,,,,,,,,,,,,,1373.8518496589968,None,1375.8738457659783,1377.3778085649826,1377.3610999439843,None,1378.8817710059811,None,1.0,1380.903766651987,None,1380.903766651987,None,1380.903766651987,None,1381.605613828986,None,1381.605613828986,1382.6082524039957,1383.7278782139765,None,1383.7278782139765,None,0,1383.7278782139765,None,1384.7973558619851,None,None,None,0.5660772630071733,1.0219613200169988,,,,,,,,,,,,,113.0,1,19,1,2020_Feb_05_1203,Test,3.2.4,59.84182071169459
13,Pictures/IA75_L15.bmp,Pictures/IA75_L15.bmp,Pictures/IA75.bmp,"

Trust me–gamble!""""",1,risk,,,,,0.0,0.0,0.0,0.0,0.0,2.0,2.0,6.0,,,,,,,,,,,,,,,,,,,,,,,,,,,,,,,1385.7498618859972,None,1387.8052840189775,1389.3092409189846,1389.292534430977,None,1390.8299170669925,None,1.0,1392.8017800249802,None,1392.80178002498,None,1392.80178002498,None,1393.7542929099873,None,1393.7542929099873,1394.7569311279804,1395.909968944994,None,1395.909968944994,None,0,1395.909968944994,None,1397.564324234001,None,None,None,0.8280744279909413,1.615868680004496,,,,,,,,,,,,,113.0,1,19,1,2020_Feb_05_1203,Test,3.2.4,59.84182071169459
14,Pictures/IA20_10_G95p.bmp,Pictures/IA20_10_G95p.bmp,Pictures/IA20.bmp,"

Take a leap, I think you should gamble.""""",1,risk,,,,,0.0,0.0,0.0,0.0,0.0,3.0,3.0,5.0,,,,,,,,,,,,,,,,,,,,,,,,,,,,,,,1397.9152473860013,None,1399.9706700169772,1401.4746259639794,1401.457919167995,None,1402.9952995079802,None,2.0,1404.9671668079973,None,1404.9671668079973,None,1404.9671668079973,None,None,None,None,None,1405.8695423419995,None,1405.8695423419995,None,1,1405.8695423419995,None,None,None,1406.9724448669876,None,0.7186676010023803,1.056296933995327,,,,,,,,,,,,,113.0,1,19,1,2020_Feb_05_1203,Test,3.2.4,59.841820711694595
15,Pictures/IA100_G60.bmp,Pictures/IA100_G60.bmp,Pictures/IA100.bmp,"

Be cautious, don't gamble for this one.""""",0,safe,,,,,0.0,0.0,0.0,0.0,0.0,4.0,4.0,14.0,,,,,,,,,,,,,,,,,,,,,,,,,,,,,,,1407.8748213959916,None,1409.8968173149915,1411.4174907169947,1411.4007817069942,None,1412.9548825459788,None,1.0,1414.9267427749874,None,1414.9267427749874,None,1414.9267427749874,None,1415.662012146,None,1415.662012146,1416.6646501749929,1417.7842677339795,None,1417.7842677339795,None,1,1417.7842677339795,None,None,None,1418.2187424349831,1419.7895461379958,0.5991045440023299,0.3895692869846243,,,,,,,,,,,,,113.0,1,19,1,2020_Feb_05_1203,Test,3.2.4,59.841820711694595
16,Pictures/IA25_L5.bmp,Pictures/IA25_L5.bmp,Pictures/IA25.bmp,"

It would be smarter to choose the safe option.""""",0,safe,,,,,0.0,0.0,0.0,0.0,0.0,5.0,5.0,1.0,,,,,,,,,,,,,,,,,,,,,,,,,,,,,,,1419.8062615699891,None,1421.8282595759956,1423.3489297819904,1423.3322189429891,None,1424.8863119769958,None,1.0,1426.8581749929874,None,1426.8581749929872,None,1426.8581749929872,None,1427.8775275259977,None,1427.8775275259977,1428.8801677519805,1429.9830751809932,None,1429.9830751809932,None,0,1429.9830751809932,None,1431.2196633279964,None,None,None,0.8836851269879844,1.1907629199849907,,,,,,,,,,,,,113.0,1,19,1,2020_Feb_05_1203,Test,3.2.4,59.84182071169459
17,Pictures/IA50_L30.bmp,Pictures/IA50_L30.bmp,Pictures/IA50.bmp,"

Take a leap, I think you should gamble.""""",1,risk,,,,,0.0,0.0,0.0,0.0,0.0,6.0,6.0,9.0,,,,,,,,,,,,,,,,,,,,,,,,,,,,,,,1432.0050663919828,None,1434.0270611390006,1435.547731230996,1435.531025454984,None,1437.1018292229855,None,2.0,1439.0569863169803,None,1439.0569863169803,None,1439.0569863169803,None,None,None,None,None,1439.7922582750034,None,1439.7922582750034,None,1,1439.7922582750034,None,None,None,1440.3269916540012,1441.797532306984,0.5408616630011238,0.4935736589832232,,,,,,,,,,,,,113.0,1,19,1,2020_Feb_05_1203,Test,3.2.4,59.841820711694595
18,Pictures/IA110_55_G95p.bmp,Pictures/IA110_55_G95p.bmp,Pictures/IA110.bmp,"

Take a chance!""""",1,risk,,,,,0.0,0.0,0.0,0.0,0.0,7.0,7.0,13.0,,,,,,,,,,,,,,,,,,,,,,,,,,,,,,,1441.8142423619865,None,1443.8696670579957,1445.3736209159833,1445.3569172220016,None,1446.9277232509921,None,1.0,1448.8661581789786,None,1448.8661581789784,None,1448.8661581789784,None,1449.7016964579816,None,1449.7016964579816,1450.7043339349912,1451.84066823998,None,1451.84066823998,None,1,1451.84066823998,None,None,None,1452.2082965509908,1453.8459451029776,0.7396896769932937,0.3331643950077705,,,,,,,,,,,,,113.0,1,19,1,2020_Feb_05_1203,Test,3.2.4,59.84182071169459
19,Pictures/IA25_G20.bmp,Pictures/IA25_G20.bmp,Pictures/IA25.bmp,"

I wouldn't gamble for this one. """"",0,safe,,,,,0.0,0.0,0.0,0.0,0.0,8.0,8.0,12.0,,,,,,,,,,,,,,,,,,,,,,,,,,,,,,,1453.862656376994,None,1455.8846498179773,1457.4053215829772,1457.3886153509955,None,1458.9594197359984,None,1.0,1460.9145763289996,None,1460.9145763289998,None,1460.9145763289998,None,1462.3684081200045,None,1462.3684081200045,1463.371043363004,1464.473955709982,None,1464.473955709982,None,0,1464.473955709982,None,1464.9752722239937,1466.4792336709797,None,None,1.3312609920103569,0.4678614500153344,,,,,,,,,,,,,113.0,1,19,1,2020_Feb_05_1203,Test,3.2.4,59.84182071169459
20,Pictures/IA75_L60.bmp,Pictures/IA75_L60.bmp,Pictures/IA75.bmp,"

Why not take the gamble?""""",1,risk,,,,,0.0,0.0,0.0,0.0,0.0,9.0,9.0,10.0,,,,,,,,,,,,,,,,,,,,,,,,,,,,,,,1466.4959403079993,None,1468.5179359719914,1470.0386073509871,1470.0218992889859,None,1471.5927089269971,None,1.0,1473.5478574319861,None,1473.547857431986,None,1473.547857431986,None,1474.082600060996,None,1474.082600060996,1475.085235917999,1476.1881480769953,None,1476.1881480769953,None,None,1476.1881480769953,None,None,None,None,None,0.42598843399900943,,,,,,,,,,,,,,113.0,1,19,1,2020_Feb_05_1203,Test,3.2.4,59.84182071169459
21,Pictures/IA40_20_L95p.bmp,Pictures/IA40_20_L95p.bmp,Pictures/IA40.bmp,"

Trust me, gamble!""""",1,risk,,,,,0.0,0.0,0.0,0.0,0.0,10.0,10.0,15.0,,,,,,,,,,,,,,,,,,,,,,,,,,,,,,,1478.1934265109885,None,1480.2488460220047,1481.7528045589859,1481.7361028519808,None,1483.290192682005,None,2.0,1485.2453570489888,None,1485.2453570489888,None,1485.2453570489888,None,None,None,None,None,1486.766013318993,None,1486.766013318993,None,1,1486.766013318993,None,None,None,1487.8020768059941,None,1.368486238992773,0.9998213119979482,,,,,,,,,,,,,113.0,1,19,1,2020_Feb_05_1203,Test,3.2.4,59.841820711694595
22,Pictures/IA80_40_G95p.bmp,Pictures/IA80_40_G95p.bmp,Pictures/IA80.bmp,"

Think of the payoff, gamble!""""",1,risk,,,,,0.0,0.0,0.0,0.0,0.0,11.0,11.0,16.0,,,,,,,,,,,,,,,,,,,,,,,,,,,,,,,1488.7880090519902,None,1490.843426315987,1492.347396263998,1492.330686139001,None,1493.8847734729934,None,1.0,1495.8399265879998,None,1495.8399265879998,None,1495.8399265879998,None,1496.7088832439913,None,1496.7088832439913,1497.7115185279981,1498.814430807979,None,1498.814430807979,None,0,1498.814430807979,None,1499.5329916689952,1500.802998286992,None,None,0.7499091240169946,0.6714091319881845,,,,,,,,,,,,,113.0,1,19,1,2020_Feb_05_1203,Test,3.2.4,59.841820711694595
23,Pictures/IA25_L20.bmp,Pictures/IA25_L20.bmp,Pictures/IA25.bmp,"

Don't be tempted to gamble.""""",0,safe,,,,,0.0,0.0,0.0,0.0,0.0,12.0,12.0,2.0,,,,,,,,,,,,,,,,,,,,,,,,,,,,,,,1500.8197160019772,None,1502.841708662978,1504.362379345985,1504.345683358988,None,1505.9164753679943,None,1.0,1507.8716348469898,None,1507.8716348469898,None,1507.8716348469898,None,1508.5901865269989,None,1508.5901865269989,1509.592823562998,1510.6957364589907,None,1510.6957364589907,None,1,1510.6957364589907,None,None,None,1511.7819265369908,None,0.5982101949921343,1.0380994500010274,,,,,,,,,,,,,113.0,1,19,1,2020_Feb_05_1203,Test,3.2.4,59.84182071169459
24,Pictures/IA25_L15.bmp,Pictures/IA25_L15.bmp,Pictures/IA25.bmp,"

There's not much on the line here, gamble!""""",1,risk,,,,,0.0,0.0,0.0,0.0,0.0,13.0,13.0,4.0,,,,,,,,,,,,,,,,,,,,,,,,,,,,,,,1512.7010211799934,None,1514.7230114989798,1516.2436822269808,1516.2269752299762,None,1517.797782128997,None,2.0,1519.7529327639786,None,1519.7529327639786,None,1519.7529327639786,None,None,None,None,None,1520.8391421439883,None,1520.8391421439883,None,1,1520.8391421439883,None,None,None,1521.1064983370015,1522.8444161560037,0.9009095230139792,0.2306941629794892,,,,,,,,,,,,,113.0,1,19,1,2020_Feb_05_1203,Test,3.2.4,59.841820711694595
25,Pictures/IA75_G60.bmp,Pictures/IA75_G60.bmp,Pictures/IA75.bmp,"

Make it exciting, take a chance!""""",1,risk,,,,,0.0,0.0,0.0,0.0,0.0,14.0,14.0,7.0,,,,,,,,,,,,,,,,,,,,,,,,,,,,,,,1522.8611213369877,None,1524.8831156719825,1526.4037881209806,1526.3870817580028,None,1527.9411726779945,None,1.0,1529.9130376559915,None,1529.9130376559915,None,1529.9130376559915,None,1530.832130914001,None,1530.832130914001,1531.8347627639887,1532.971098103997,None,1532.971098103997,None,1,1532.971098103997,None,None,None,1533.2886005179898,1534.9763744049997,0.7807972730079201,0.2747353070008103,,,,,,,,,,,,,113.0,1,19,1,2020_Feb_05_1203,Test,3.2.4,59.841820711694595
26,Pictures/IA50_G10.bmp,Pictures/IA50_G10.bmp,Pictures/IA50.bmp,"

Go with the safe option here!""""",0,safe,,,,,0.0,0.0,0.0,0.0,0.0,15.0,15.0,17.0,,,,,,,,,,,,,,,,,,,,,,,,,,,,,,,1534.9930883839843,None,1537.015082175989,1538.535753475997,1538.519046698988,None,1540.056431349978,None,1.0,1542.0450028939813,None,1542.0450028939813,None,1542.0450028939813,None,1542.8805006219773,None,1542.8805006219773,1543.8831753489794,1545.0195078789839,None,1545.0195078789839,None,None,1545.0195078789839,None,None,None,None,None,0.7048447970009875,,,,,,,,,,,,,,113.0,1,19,1,2020_Feb_05_1203,Test,3.2.4,59.84182071169459
27,Pictures/IA75_G15.bmp,Pictures/IA75_G15.bmp,Pictures/IA75.bmp,"

Take a chance!""""",1,risk,,,,,0.0,0.0,0.0,0.0,0.0,16.0,16.0,8.0,,,,,,,,,,,,,,,,,,,,,,,,,,,,,,,1547.0247868649894,None,1549.0467818899779,1550.5674560449845,1550.5507468769795,None,1552.1048410380026,None,1.0,1554.0767065309922,None,1554.076706530992,None,1554.076706530992,None,1555.1963238359895,None,1555.1963238359895,1556.1989599639783,1557.3019207289908,None,1557.3019207289908,None,1,1557.3019207289908,None,None,None,1559.023071589996,None,1.0331361329881474,1.6718968790082729,,,,,,,,,,,,,113.0,1,19,1,2020_Feb_05_1203,Test,3.2.4,59.84182071169459
28,Pictures/IA75_G45.bmp,Pictures/IA75_G45.bmp,Pictures/IA75.bmp,"

Don't gamble for this one.""""",0,safe,,,,,0.0,0.0,0.0,0.0,0.0,17.0,17.0,11.0,,,,,,,,,,,,,,,,,,,,,,,,,,,,,,,1559.3071528449946,None,1561.3291466299852,1562.8498188569795,1562.8331107889826,None,1564.4039143339905,None,1.0,1566.359085831995,None,1566.359085831995,None,1566.359085831995,None,1567.027494214999,None,1567.027494214999,1568.0301343589963,1569.1330440329912,None,1569.1330440329912,None,0,1569.1330440329912,None,1569.6510763669794,1571.1216136449948,None,None,0.5587505680159666,0.4727937569841743,,,,,,,,,,,,,113.0,1,19,1,2020_Feb_05_1203,Test,3.2.4,59.84182071169459
29,Pictures/IA100_G40.bmp,Pictures/IA100_G40.bmp,Pictures/IA100.bmp,"

Try your luck and gamble!""""",1,risk,,,,,0.0,0.0,0.0,0.0,0.0,18.0,18.0,19.0,,,,,,,,,,,,,,,,,,,,,,,,,,,,,,,1571.138324739004,None,1573.1603221669793,1574.6809927439901,1574.6642853329834,None,1576.1682473429828,None,1.0,1578.1902433539801,None,1578.19024335398,None,1578.19024335398,None,1578.6748531079793,None,1578.6748531079793,1579.6774909789965,1580.7804045139928,None,1580.7804045139928,None,1,1580.7804045139928,None,None,None,1581.1981645269843,1582.768974014005,0.3516054880165029,0.3774296889896505,,,,,,,,,,,,,113.0,1,19,1,2020_Feb_05_1203,Test,3.2.4,59.84182071169459
30,Pictures/IA50_L40.bmp,Pictures/IA50_L40.bmp,Pictures/IA50.bmp,"

That gamble doesn't sound too good, play it safe.""""",0,safe,,,,,0.0,0.0,0.0,0.0,0.0,19.0,19.0,0.0,,,,,,,,,,,,,,,,,,,,,,,,,,,,,,,1582.7856824889896,None,1584.8076776209928,1586.3283548159814,1586.3116415829863,None,1587.8490265069995,None,2.0,1589.8376003319863,None,1589.8376003319863,None,1589.8376003319863,None,None,None,None,None,1590.9070843590016,None,1590.9070843590016,None,1,1590.9070843590016,None,None,None,1591.2580100639898,1592.8956601539976,0.8802405530004762,0.3067464859923348,,,,,,,,,,,,,113.0,1,19,1,2020_Feb_05_1203,Test,3.2.4,59.841820711694595
32,Pictures/IA75_L15.bmp,Pictures/IA75_L15.bmp,Pictures/IA75.bmp,"

Trust me–gamble!""""",1,risk,,,,,1.0,0.0,1.0,0.0,0.0,0.0,0.0,11.0,,,,,,,,,,,,,1604.8772308469925,None,1604.8772308469925,None,1604.8772308469925,None,1,5.3846084990072995,1604.8772308469925,None,1604.8772308469925,None,1604.8772308469925,None,return,6.992390700994292,1604.8772308469925,None,1611.9291466849972,None,1613.934429166984,1615.4550973799778,1615.4383905569848,None,1616.9590618700022,None,1.0,1618.9476370289924,None,1618.9476370289922,None,1618.9476370289922,None,1619.4489571229788,None,1619.4489571229788,1620.4515949169872,1621.5545096169808,None,1621.5545096169808,None,1,1621.5545096169808,None,None,None,1622.1059556840046,1623.5430765939818,0.4102141140028833,0.5153254799952265,,,,,,,,,,,,,113.0,1,19,1,2020_Feb_05_1203,Test,3.2.4,59.84182071169459
33,Pictures/IA75_L30.bmp,Pictures/IA75_L30.bmp,Pictures/IA75.bmp,"

Hold back, stay with the safe choice.""""",0,safe,,,,,1.0,0.0,1.0,0.0,0.0,1.0,1.0,2.0,,,,,,,,,,,,,,,,,,,,,,,,,,,,,,,1623.559786304977,None,1625.5817841200044,1627.1024552570016,1627.0857523419836,None,1628.6732665750023,None,1.0,1630.611708957993,None,1630.611708957993,None,1630.611708957993,None,1631.3971059239993,None,1631.3971059239993,1632.399745231989,1633.5026575009979,None,1633.5026575009979,None,0,1633.5026575009979,None,1634.9731952000002,None,None,None,0.6421372869808692,1.431175039993832,,,,,,,,,,,,,113.0,1,19,1,2020_Feb_05_1203,Test,3.2.4,59.841820711694595
34,Pictures/IA100_L40.bmp,Pictures/IA100_L40.bmp,Pictures/IA100.bmp,"

Think of the payoff, gamble!""""",1,risk,,,,,1.0,0.0,1.0,0.0,0.0,2.0,2.0,19.0,,,,,,,,,,,,,,,,,,,,,,,,,,,,,,,1635.5246486359974,None,1637.5466487449885,1639.0673162429887,1639.0506126639957,None,1640.6214130829903,None,2.0,1642.6601224359765,None,1642.6601224359765,None,1642.6601224359765,None,None,None,None,None,1643.428810427984,None,1643.428810427984,None,1,1643.428810427984,None,None,None,1643.6794704629865,1645.434094414988,0.5937222439970355,0.2170238989929203,,,,,,,,,,,,,113.0,1,19,1,2020_Feb_05_1203,Test,3.2.4,59.841820711694595
35,Pictures/IA100_L80.bmp,Pictures/IA100_L80.bmp,Pictures/IA100.bmp,"

Go all in!""""",1,risk,,,,,1.0,0.0,1.0,0.0,0.0,3.0,3.0,6.0,,,,,,,,,,,,,,,,,,,,,,,,,,,,,,,1645.450803122978,None,1647.4727987560036,1648.993472815986,1648.9767666919793,None,1650.547569544986,None,2.0,1652.5027281509826,None,1652.5027281509829,None,1652.5027281509829,None,None,None,None,None,1653.4552321670053,None,1653.4552321670053,None,1,1653.4552321670053,None,None,None,1653.5722049129836,1655.4605143409863,0.7831146449898371,0.07860783601063304,,,,,,,,,,,,,113.0,1,19,1,2020_Feb_05_1203,Test,3.2.4,59.84182071169459
36,Pictures/IA100_G60.bmp,Pictures/IA100_G60.bmp,Pictures/IA100.bmp,"

Be cautious, don't gamble for this one.""""",0,safe,,,,,1.0,0.0,1.0,0.0,0.0,4.0,4.0,1.0,,,,,,,,,,,,,,,,,,,,,,,,,,,,,,,1655.4772249099915,None,1657.499221498991,1659.0198951439816,1659.0031849429943,None,1660.5405732429936,None,1.0,1662.5291437720007,None,1662.5291437720007,None,1662.5291437720007,None,1663.0137169469963,None,1663.0137169469963,1664.0163895269798,1665.1360129599925,None,1665.1360129599925,None,0,1665.1360129599925,None,1665.8879952639982,1667.1245807619998,None,None,0.3647065819823183,0.7098368279985152,,,,,,,,,,,,,113.0,1,19,1,2020_Feb_05_1203,Test,3.2.4,59.841820711694595
37,Pictures/IA100_L60.bmp,Pictures/IA100_L60.bmp,Pictures/IA100.bmp,"

You'd have a lot to lose, don't gamble.""""",0,safe,,,,,1.0,0.0,1.0,0.0,0.0,5.0,5.0,13.0,,,,,,,,,,,,,,,,,,,,,,,,,,,,,,,1667.1412927819765,None,1669.1632884799913,1670.6672511149955,1670.6505426779913,None,1672.2380615489965,None,1.0,1674.1932166329934,None,1674.1932166329934,None,1674.1932166329934,None,1675.1123002439854,None,1675.1123002439854,1676.1149381109863,1677.217849921988,None,1677.217849921988,None,0,1677.217849921988,None,1677.7358806109987,1679.206418871996,None,None,0.7886280390084721,0.4839842910005245,,,,,,,,,,,,,113.0,1,19,1,2020_Feb_05_1203,Test,3.2.4,59.841820711694595
38,Pictures/IA25_L20.bmp,Pictures/IA25_L20.bmp,Pictures/IA25.bmp,"

Don't be tempted to gamble.""""",0,safe,,,,,1.0,0.0,1.0,0.0,0.0,6.0,6.0,17.0,,,,,,,,,,,,,,,,,,,,,,,,,,,,,,,1679.223130030994,None,1681.245128104987,1682.765797806991,1682.7490911659845,None,1684.2530532319797,None,2.0,1686.2750496380029,None,1686.275049638003,None,1686.275049638003,None,None,None,None,None,1686.8933442699781,None,1686.8933442699781,None,1,1686.8933442699781,None,None,None,1686.9768954649917,1688.8819156799873,0.4587915310112294,0.048493398004211485,,,,,,,,,,,,,113.0,1,19,1,2020_Feb_05_1203,Test,3.2.4,59.84182071169459
39,Pictures/IA80_40_G95p.bmp,Pictures/IA80_40_G95p.bmp,Pictures/IA80.bmp,"

Think of the payoff, gamble!""""",1,risk,,,,,1.0,0.0,1.0,0.0,0.0,7.0,7.0,3.0,,,,,,,,,,,,,,,,,,,,,,,,,,,,,,,1688.8986237899808,None,1690.9206208809921,1692.4412941829944,1692.4245874059852,None,1693.9620535919967,None,1.0,1695.9505446749972,None,1695.9505446749972,None,1695.9505446749972,None,1696.5688392559823,None,1696.5688392559823,1697.5714768009784,1698.7078151939786,None,1698.7078151939786,None,0,1698.7078151939786,None,1699.1255730109988,1700.6963796030032,None,None,0.4952929200080689,0.3780183690250851,,,,,,,,,,,,,113.0,1,19,1,2020_Feb_05_1203,Test,3.2.4,59.841820711694595
40,Pictures/IA80_40_L95p.bmp,Pictures/IA80_40_L95p.bmp,Pictures/IA80.bmp,"

Let's stay with the certain option.""""",0,safe,,,,,1.0,0.0,1.0,0.0,0.0,8.0,8.0,18.0,,,,,,,,,,,,,,,,,,,,,,,,,,,,,,,1700.713099186978,None,1702.7350877299905,1704.2557597720004,1704.2390527679818,None,1705.793147068005,None,2.0,1707.7650111569965,None,1707.7650111569965,None,1707.7650111569965,None,None,None,None,None,1708.7008172310016,None,1708.7008172310016,None,1,1708.7008172310016,None,None,None,1708.7509413049847,1710.6893785930006,0.7208437570079695,0.00103112097713165,,,,,,,,,,,,,113.0,1,19,1,2020_Feb_05_1203,Test,3.2.4,59.84182071169459
41,Pictures/IA110_55_L95p.bmp,Pictures/IA110_55_L95p.bmp,Pictures/IA110.bmp,"

Trust me, gamble!""""",1,risk,,,,,1.0,0.0,1.0,0.0,0.0,9.0,9.0,16.0,,,,,,,,,,,,,,,,,,,,,,,,,,,,,,,1710.7060924319958,None,1712.7280870069808,1714.2487599180024,1714.2320533479797,None,1715.8028566179855,None,1.0,1717.7580118709884,None,1717.7580118709884,None,1717.7580118709884,None,1718.1924895419797,None,1718.1924895419797,1719.1951254849846,1720.2980392439931,None,1720.2980392439931,None,1,1720.2980392439931,None,None,None,1720.7492233649828,1722.286607786984,0.3358250650053378,0.4037997230188921,,,,,,,,,,,,,113.0,1,19,1,2020_Feb_05_1203,Test,3.2.4,59.841820711694595
42,Pictures/IA100_G40.bmp,Pictures/IA100_G40.bmp,Pictures/IA100.bmp,"

Try your luck and gamble!""""",1,risk,,,,,1.0,0.0,1.0,0.0,0.0,10.0,10.0,4.0,,,,,,,,,,,,,,,,,,,,,,,,,,,,,,,1722.3033191299764,None,1724.325315219001,1725.845988347981,1725.8292799030025,None,1727.3666649810039,None,1.0,1729.3552400280025,None,1729.3552400280023,None,1729.3552400280023,None,1729.9401128439931,None,1729.9401128439931,1730.9427546949883,1732.0456606539956,None,1732.0456606539956,None,1,1732.0456606539956,None,None,None,1732.5135562959767,1734.0342313110013,0.4825951259990688,0.42417871599900536,,,,,,,,,,,,,113.0,1,19,1,2020_Feb_05_1203,Test,3.2.4,59.84182071169459
43,Pictures/IA110_55_G95p.bmp,Pictures/IA110_55_G95p.bmp,Pictures/IA110.bmp,"

Take a chance!""""",1,risk,,,,,1.0,0.0,1.0,0.0,0.0,11.0,11.0,7.0,,,,,,,,,,,,,,,,,,,,,,,,,,,,,,,1734.050941658992,None,1736.0729449339851,1737.5936114009821,1737.5769066019855,None,1739.080869701982,None,1.0,1741.102862764994,None,1741.102862764994,None,1741.102862764994,None,1741.8381316779996,None,1741.8381316779996,1742.8407697159855,1743.960393690999,None,1743.960393690999,None,0,1743.960393690999,None,1744.378158484993,1745.9489619849774,None,None,0.6469800809863955,0.3814528009970672,,,,,,,,,,,,,113.0,1,19,1,2020_Feb_05_1203,Test,3.2.4,59.84182071169459
44,Pictures/IA50_L30.bmp,Pictures/IA50_L30.bmp,Pictures/IA50.bmp,"

Take a leap, I think you should gamble.""""",1,risk,,,,,1.0,0.0,1.0,0.0,0.0,12.0,12.0,5.0,,,,,,,,,,,,,,,,,,,,,,,,,,,,,,,1745.9656725609966,None,1747.9876693069818,1749.5083418769934,1749.491633225989,None,1751.029017430992,None,1.0,1753.0175935369916,None,1753.0175935369916,None,1753.0175935369916,None,1753.48549180798,None,1753.48549180798,1754.4881307309843,1755.6077523010026,None,1755.6077523010026,None,1,1755.6077523010026,None,None,None,1756.1424916480028,1757.6130330439773,0.33225922199198976,0.4940793169953394,,,,,,,,,,,,,113.0,1,19,1,2020_Feb_05_1203,Test,3.2.4,59.841820711694595
45,Pictures/IA25_G10.bmp,Pictures/IA25_G10.bmp,Pictures/IA25.bmp,"

What's life without a little risk?""""",1,risk,,,,,1.0,0.0,1.0,0.0,0.0,13.0,13.0,14.0,,,,,,,,,,,,,,,,,,,,,,,,,,,,,,,1757.629743174999,None,1759.6517467849771,1761.1724165579944,1761.1557082639774,None,1762.709799468983,None,2.0,1764.681664706004,None,1764.681664706004,None,1764.681664706004,None,None,None,None,None,1765.7177268439846,None,1765.7177268439846,None,1,1765.7177268439846,None,None,None,1765.8681212499796,1767.7230083519826,0.8601798070012592,0.11211869702674447,,,,,,,,,,,,,113.0,1,19,1,2020_Feb_05_1203,Test,3.2.4,59.84182071169459
46,Pictures/IA25_G20.bmp,Pictures/IA25_G20.bmp,Pictures/IA25.bmp,"

I wouldn't gamble for this one. """"",0,safe,,,,,1.0,0.0,1.0,0.0,0.0,14.0,14.0,8.0,,,,,,,,,,,,,,,,,,,,,,,,,,,,,,,1767.7397194989899,None,1769.7617164059775,1771.2823894879841,1771.2656815619848,None,1772.7863552880008,None,2.0,1774.8083875029986,None,1774.8083875029988,None,1774.8083875029988,None,None,None,None,None,1775.5603331649909,None,1775.5603331649909,None,0,1775.5603331649909,None,1775.7274501560023,1777.565611019003,None,None,0.565440188976936,0.11750339998980053,,,,,,,,,,,,,113.0,1,19,1,2020_Feb_05_1203,Test,3.2.4,59.84182071169459
47,Pictures/IA50_G40.bmp,Pictures/IA50_G40.bmp,Pictures/IA50.bmp,"

It would probably be best to play it safe.""""",0,safe,,,,,1.0,0.0,1.0,0.0,0.0,15.0,15.0,0.0,,,,,,,,,,,,,,,,,,,,,,,,,,,,,,,1777.582324079005,None,1779.6043191810022,1781.124993339996,1781.1082855709826,None,1782.6289579979784,None,2.0,1784.634245172987,None,1784.634245172987,None,1784.634245172987,None,None,None,None,None,1785.3026728769764,None,1785.3026728769764,None,0,1785.3026728769764,None,1785.5032030729926,1787.3079529230017,None,None,0.4995894370076712,0.16716685000574216,,,,,,,,,,,,,113.0,1,19,1,2020_Feb_05_1203,Test,3.2.4,59.84182071169459
48,Pictures/IA50_G10.bmp,Pictures/IA50_G10.bmp,Pictures/IA50.bmp,"

Go with the safe option here!""""",0,safe,,,,,1.0,0.0,1.0,0.0,0.0,16.0,16.0,10.0,,,,,,,,,,,,,,,,,,,,,,,,,,,,,,,1787.3246625299798,None,1789.346676109999,1790.8673380539983,1790.8506289189972,None,1792.3880108909798,None,2.0,1794.376585513004,None,1794.376585513004,None,1794.376585513004,None,None,None,None,None,1795.0951475449838,None,1795.0951475449838,None,1,1795.0951475449838,None,None,None,1795.3290960829763,1797.1004254389845,0.5572680589975789,0.19068556500133127,,,,,,,,,,,,,113.0,1,19,1,2020_Feb_05_1203,Test,3.2.4,59.84182071169459
49,Pictures/IA20_10_L95p.bmp,Pictures/IA20_10_L95p.bmp,Pictures/IA20.bmp,"

Don't be tempted to gamble.""""",0,safe,,,,,1.0,0.0,1.0,0.0,0.0,17.0,17.0,15.0,,,,,,,,,,,,,,,,,,,,,,,,,,,,,,,1797.1171373339894,None,1799.13913235598,1800.6598069579925,1800.6430986609776,None,1802.2306124099996,None,1.0,1804.1690575429818,None,1804.169057542982,None,1804.169057542982,None,1804.8374816009891,None,1804.8374816009891,1805.840124498005,1806.9430342009873,None,1806.9430342009873,None,1,1806.9430342009873,None,None,None,1807.3608121259895,1808.9316027369932,0.5647846680076327,0.3747986320231576,,,,,,,,,,,,,113.0,1,19,1,2020_Feb_05_1203,Test,3.2.4,59.84182071169459
50,Pictures/IA50_L10.bmp,Pictures/IA50_L10.bmp,Pictures/IA50.bmp,"

Play it safe, don’t gamble!""""",0,safe,,,,,1.0,0.0,1.0,0.0,0.0,18.0,18.0,9.0,,,,,,,,,,,,,,,,,,,,,,,,,,,,,,,1808.9483143169782,None,1810.9703133339933,1812.4909845569928,1812.474280836992,None,1814.0283725000045,None,2.0,1816.0002363599779,None,1816.0002363599779,None,1816.0002363599779,None,None,None,None,None,1816.6018206299923,None,1816.6018206299923,None,1,1816.6018206299923,None,None,None,1816.7355047659948,1818.6071009589941,0.4376107349817176,0.10001396998995916,,,,,,,,,,,,,113.0,1,19,1,2020_Feb_05_1203,Test,3.2.4,59.841820711694595
51,Pictures/IA50_L20.bmp,Pictures/IA50_L20.bmp,Pictures/IA50.bmp,"

Certainty is boring, take a risk!""""",1,risk,,,,,1.0,0.0,1.0,0.0,0.0,19.0,19.0,12.0,,,,,,,,,,,,,,,,,,,,,,,,,,,,,,,1818.623814658,None,1820.6458096620045,1822.16648620498,1822.1497754970042,None,1823.7038710839988,None,1.0,1825.6757386599784,None,1825.6757386599784,None,1825.6757386599784,None,1826.62824484898,None,1826.62824484898,1827.6308820679842,1828.7337942089944,None,1828.7337942089944,None,1,1828.7337942089944,None,None,None,1829.987091841991,None,0.8341046679997817,1.216019544983283,,,,,,,,,,,,,113.0,1,19,1,2020_Feb_05_1203,Test,3.2.4,59.841820711694595
53,Pictures/IA75_L45.bmp,Pictures/IA75_L45.bmp,Pictures/IA75.bmp,"

Don't gamble for this one, play it safe.""""",0,safe,,,,,2.0,0.0,2.0,0.0,0.0,0.0,0.0,3.0,,,,,,,,,,,,,1837.573752160999,None,1837.573752160999,None,1837.573752160999,None,0,2.7680853199854027,1837.573752160999,None,1837.573752160999,None,1837.573752160999,None,return,4.927901751012541,1837.573752160999,None,1842.5535453229968,None,1844.558829749003,1846.0795004989773,1846.0627961650025,None,1847.6001779350045,None,2.0,1849.572044569999,None,1849.572044569999,None,1849.572044569999,None,None,None,None,None,1850.8420599069796,None,1850.8420599069796,None,1,1850.8420599069796,None,None,None,1851.9783822399913,None,1.0738006729807241,1.0917862800124567,,,,,,,,,,,,,113.0,1,19,1,2020_Feb_05_1203,Test,3.2.4,59.841820711694595
54,Pictures/IA75_G30.bmp,Pictures/IA75_G30.bmp,Pictures/IA75.bmp,"

Be bold, gamble!""""",1,risk,,,,,2.0,0.0,2.0,0.0,0.0,1.0,1.0,2.0,,,,,,,,,,,,,,,,,,,,,,,,,,,,,,,1852.8640485159995,None,1854.8860442180007,1856.4067213909875,1856.3900122570049,None,1857.9441033579933,None,1.0,1859.9159690130036,None,1859.9159690130036,None,1859.9159690130036,None,1860.5509677520022,None,1860.5509677520022,1861.5536142719793,1862.6565253089939,None,1862.6565253089939,None,0,1862.6565253089939,None,1862.7400771839893,1864.6450940679933,None,None,0.5298663760186173,0.03731350399903022,,,,,,,,,,,,,113.0,1,19,1,2020_Feb_05_1203,Test,3.2.4,59.841820711694595
55,Pictures/IA75_L15.bmp,Pictures/IA75_L15.bmp,Pictures/IA75.bmp,"

Trust me–gamble!""""",1,risk,,,,,2.0,0.0,2.0,0.0,0.0,2.0,2.0,8.0,,,,,,,,,,,,,,,,,,,,,,,,,,,,,,,1864.661805502983,None,1866.6838030419894,1868.2044766019967,1868.187730460981,None,1869.7251521080034,None,2.0,1871.7137272229886,None,1871.7137272229884,None,1871.7137272229884,None,None,None,None,None,1872.3988660219766,None,1872.3988660219766,None,1,1872.3988660219766,None,None,None,1872.4489947409893,1874.4041493379918,0.5321260819910094,0.014961942011723297,,,,,,,,,,,,,113.0,1,19,1,2020_Feb_05_1203,Test,3.2.4,59.84182071169459
56,Pictures/IA40_20_L95p.bmp,Pictures/IA40_20_L95p.bmp,Pictures/IA40.bmp,"

Trust me, gamble!""""",1,risk,,,,,2.0,0.0,2.0,0.0,0.0,3.0,3.0,16.0,,,,,,,,,,,,,,,,,,,,,,,,,,,,,,,1874.420857392979,None,1876.4428557599892,1877.9635279319773,1877.9468207519967,None,1879.4842063179822,None,2.0,1881.47277930798,None,1881.47277930798,None,1881.47277930798,None,None,None,None,None,1882.208049273002,None,1882.208049273002,None,1,1882.208049273002,None,None,None,1882.3751571939792,1884.2133317439875,0.5730759570142254,0.11778214000514707,,,,,,,,,,,,,113.0,1,19,1,2020_Feb_05_1203,Test,3.2.4,59.841820711694595
57,Pictures/IA100_L20.bmp,Pictures/IA100_L20.bmp,Pictures/IA100.bmp,"

Try to win as much money as you can, gamble!""""",1,risk,,,,,2.0,0.0,2.0,0.0,0.0,4.0,4.0,9.0,,,,,,,,,,,,,,,,,,,,,,,,,,,,,,,1884.2300429570023,None,1886.252038237988,1887.7727103059879,1887.756004929979,None,1889.2933857049793,None,1.0,1891.2819671579928,None,1891.2819671579928,None,1891.2819671579928,None,1892.7358029879979,None,1892.7358029879979,1893.7384355309769,1894.8413494139968,None,1894.8413494139968,None,0,1894.8413494139968,None,1895.559901437984,1896.8299220549816,None,None,1.3078896779916251,0.6764879490074236,,,,,,,,,,,,,113.0,1,19,1,2020_Feb_05_1203,Test,3.2.4,59.841820711694595
58,Pictures/IA100_G20.bmp,Pictures/IA100_G20.bmp,Pictures/IA100.bmp,"

Go ahead and gamble!""""",1,risk,,,,,2.0,0.0,2.0,0.0,0.0,5.0,5.0,6.0,,,,,,,,,,,,,,,,,,,,,,,,,,,,,,,1896.8466241899878,None,1898.868625720992,1900.389296392997,1900.372587646998,None,1901.9099681199878,None,2.0,1903.8985470479818,None,1903.898547047982,None,1903.898547047982,None,None,None,None,None,1905.1184328899835,None,1905.1184328899835,None,1,1905.1184328899835,None,None,None,1905.2354009629926,1907.1070041469939,1.0673001899849623,0.07940222599427216,,,,,,,,,,,,,113.0,1,19,1,2020_Feb_05_1203,Test,3.2.4,59.84182071169459
59,Pictures/IA100_L40.bmp,Pictures/IA100_L40.bmp,Pictures/IA100.bmp,"

Think of the payoff, gamble!""""",1,risk,,,,,2.0,0.0,2.0,0.0,0.0,6.0,6.0,15.0,,,,,,,,,,,,,,,,,,,,,,,,,,,,,,,1907.1237159009906,None,1909.1457069619794,1910.6663792299805,1910.6496727719787,None,1912.1536360489845,None,2.0,1914.1756329629861,None,1914.1756329629861,None,1914.1756329629861,None,None,None,None,None,1915.2952505720023,None,1915.2952505720023,None,1,1915.2952505720023,None,None,None,1915.479064568004,1917.2838180339895,0.9582116880046668,0.13458818799699654,,,,,,,,,,,,,113.0,1,19,1,2020_Feb_05_1203,Test,3.2.4,59.841820711694595
60,Pictures/IA75_L60.bmp,Pictures/IA75_L60.bmp,Pictures/IA75.bmp,"

Why not take the gamble?""""",1,risk,,,,,2.0,0.0,2.0,0.0,0.0,7.0,7.0,18.0,,,,,,,,,,,,,,,,,,,,,,,,,,,,,,,1917.3005397270026,None,1919.3225380759977,1920.8431994039856,1920.8264967309951,None,1922.3638775690051,None,2.0,1924.352456472989,None,1924.3524564729887,None,1924.3524564729887,None,None,None,None,None,1924.9874603739881,None,1924.9874603739881,None,1,1924.9874603739881,None,None,None,1925.087721390999,1926.9927463140048,0.4533802600053605,0.0663736569986213,,,,,,,,,,,,,113.0,1,19,1,2020_Feb_05_1203,Test,3.2.4,59.84182071169459
61,Pictures/IA110_55_G95p.bmp,Pictures/IA110_55_G95p.bmp,Pictures/IA110.bmp,"

Take a chance!""""",1,risk,,,,,2.0,0.0,2.0,0.0,0.0,8.0,8.0,12.0,,,,,,,,,,,,,,,,,,,,,,,,,,,,,,,1927.0094518399856,None,1929.0314484519768,1930.5521202709933,1930.5354169459895,None,1932.0728016700014,None,2.0,1934.0613741939887,None,1934.0613741939887,None,1934.0613741939887,None,None,None,None,None,1935.0807291709934,None,1935.0807291709934,None,0,1935.0807291709934,None,1935.3982288340048,1937.0692962869944,None,None,0.8564776130078826,0.2691095240006689,,,,,,,,,,,,,113.0,1,19,1,2020_Feb_05_1203,Test,3.2.4,59.84182071169459
62,Pictures/IA50_G40.bmp,Pictures/IA50_G40.bmp,Pictures/IA50.bmp,"

It would probably be best to play it safe.""""",0,safe,,,,,2.0,0.0,2.0,0.0,0.0,9.0,9.0,13.0,,,,,,,,,,,,,,,,,,,,,,,,,,,,,,,1937.086012062995,None,1939.1080128070025,1940.6286759569773,1940.6119695199886,None,1942.1159363969928,None,1.0,1944.1379309429904,None,1944.1379309429904,None,1944.1379309429904,None,1944.92333328299,None,1944.92333328299,1945.9259700699768,1947.0288825619791,None,1947.0288825619791,None,0,1947.0288825619791,None,1947.6137547219987,1949.0174509999924,None,None,0.6199015220045112,0.5369528839946724,,,,,,,,,,,,,113.0,1,19,1,2020_Feb_05_1203,Test,3.2.4,59.84182071169459
63,Pictures/IA75_L30.bmp,Pictures/IA75_L30.bmp,Pictures/IA75.bmp,"

Hold back, stay with the safe choice.""""",0,safe,,,,,2.0,0.0,2.0,0.0,0.0,10.0,10.0,17.0,,,,,,,,,,,,,,,,,,,,,,,,,,,,,,,1949.0341656050005,None,1951.0561630129812,1952.5768321509825,1952.5601295839879,None,1954.0975109449937,None,1.0,1956.0860860520042,None,1956.0860860520042,None,1956.0860860520042,None,1956.7712256840023,None,1956.7712256840023,1957.7738657429873,1958.8767804279923,None,1958.8767804279923,None,0,1958.8767804279923,None,1959.612042163004,1960.8820557940053,None,None,0.5357660250156187,0.6890558559971396,,,,,,,,,,,,,113.0,1,19,1,2020_Feb_05_1203,Test,3.2.4,59.841820711694595
64,Pictures/IA25_G15.bmp,Pictures/IA25_G15.bmp,Pictures/IA25.bmp,"

I think you should take a gamble.""""",1,risk,,,,,2.0,0.0,2.0,0.0,0.0,11.0,11.0,11.0,,,,,,,,,,,,,,,,,,,,,,,,,,,,,,,1960.898764190002,None,1962.920760929992,1964.4414345159894,1964.4247295429814,None,1965.962112499983,None,2.0,1967.950686976983,None,1967.950686976983,None,1967.950686976983,None,None,None,None,None,1968.5021411679918,None,1968.5021411679918,None,1,1968.5021411679918,None,None,None,1969.0870146599773,1970.4907100049895,0.3591601859952789,0.5357045950077008,,,,,,,,,,,,,113.0,1,19,1,2020_Feb_05_1203,Test,3.2.4,59.84182071169459
65,Pictures/IA50_G30.bmp,Pictures/IA50_G30.bmp,Pictures/IA50.bmp,"

I think you should gamble.""""",1,risk,,,,,2.0,0.0,2.0,0.0,0.0,12.0,12.0,0.0,,,,,,,,,,,,,,,,,,,,,,,,,,,,,,,1970.5074222969997,None,1972.5294195129827,1974.050095489976,1974.0333872829801,None,1975.5540575560008,None,1.0,1977.559349424002,None,1977.559349424002,None,1977.559349424002,None,1978.294585420983,None,1978.294585420983,1979.2972528440005,1980.400166470994,None,1980.400166470994,None,0,1980.400166470994,None,1980.784508763987,1982.388736139983,None,None,0.6064991769962944,0.3416678470093757,,,,,,,,,,,,,113.0,1,19,1,2020_Feb_05_1203,Test,3.2.4,59.84182071169459
66,Pictures/IA50_G20.bmp,Pictures/IA50_G20.bmp,Pictures/IA50.bmp,"

Let's venture and take a risk!""""",1,risk,,,,,2.0,0.0,2.0,0.0,0.0,13.0,13.0,5.0,,,,,,,,,,,,,,,,,,,,,,,,,,,,,,,1982.405448039004,None,1984.4274448469805,1985.948116421001,1985.9314098419852,None,1987.4687944189936,None,1.0,1989.457369613985,None,1989.457369613985,None,1989.457369613985,None,1990.810936231981,None,1990.810936231981,1991.813573010004,1992.9164878509764,None,1992.9164878509764,None,0,1992.9164878509764,None,1993.568199661997,1994.905056321004,None,None,1.2524844059953466,0.6173399540130049,,,,,,,,,,,,,113.0,1,19,1,2020_Feb_05_1203,Test,3.2.4,59.84182071169459
67,Pictures/IA50_L30.bmp,Pictures/IA50_L30.bmp,Pictures/IA50.bmp,"

Take a leap, I think you should gamble.""""",1,risk,,,,,2.0,0.0,2.0,0.0,0.0,14.0,14.0,14.0,,,,,,,,,,,,,,,,,,,,,,,,,,,,,,,1994.9217665449833,None,1996.9437660079855,1998.464440123993,1998.4477311819792,None,1999.9851161719998,None,2.0,2001.9736909529893,None,2001.9736909529893,None,2001.9736909529893,None,None,None,None,None,2002.625408152002,None,2002.625408152002,None,1,2002.625408152002,None,None,None,2002.7590910689905,2004.6306896379974,0.4801536170125473,0.0924283359781839,,,,,,,,,,,,,113.0,1,19,1,2020_Feb_05_1203,Test,3.2.4,59.841820711694595
68,Pictures/IA25_G5.bmp,Pictures/IA25_G5.bmp,Pictures/IA25.bmp,"

Let's stay with the certain option.""""",0,safe,,,,,2.0,0.0,2.0,0.0,0.0,15.0,15.0,4.0,,,,,,,,,,,,,,,,,,,,,,,,,,,,,,,2004.6474022000039,None,2006.669398765982,2008.1900730159832,2008.1733646539801,None,2009.7441735589819,None,2.0,2011.6993272829861,None,2011.699327282986,None,2011.699327282986,None,None,None,None,None,2012.7186781810015,None,2012.7186781810015,None,1,2012.7186781810015,None,None,None,2012.9192052269937,2014.7072486169927,0.8505151529971045,0.15116874099476266,,,,,,,,,,,,,113.0,1,19,1,2020_Feb_05_1203,Test,3.2.4,59.84182071169459
69,Pictures/IA100_L60.bmp,Pictures/IA100_L60.bmp,Pictures/IA100.bmp,"

You'd have a lot to lose, don't gamble.""""",0,safe,,,,,2.0,0.0,2.0,0.0,0.0,16.0,16.0,19.0,,,,,,,,,,,,,,,,,,,,,,,,,,,,,,,2014.7239583100018,None,2016.7459605259937,2018.2666313159866,2018.249927064986,None,2019.7873065329914,None,2.0,2021.7758829389932,None,2021.7758829389932,None,2021.7758829389932,None,None,None,None,None,2022.3774685499957,None,2022.3774685499957,None,1,2022.3774685499957,None,None,None,2022.494443485979,2024.3660452129843,0.42996036901604384,0.06836641998961568,,,,,,,,,,,,,113.0,1,19,1,2020_Feb_05_1203,Test,3.2.4,59.841820711694595
70,Pictures/IA80_40_L95p.bmp,Pictures/IA80_40_L95p.bmp,Pictures/IA80.bmp,"

Let's stay with the certain option.""""",0,safe,,,,,2.0,0.0,2.0,0.0,0.0,17.0,17.0,1.0,,,,,,,,,,,,,,,,,,,,,,,,,,,,,,,2024.3827522560023,None,2026.4047507159994,2027.9254220599832,2027.908716927981,None,2029.4461015269917,None,2.0,2031.4346761459888,None,2031.4346761459892,None,2031.4346761459892,None,None,None,None,None,2032.086394840997,None,2032.086394840997,None,1,2032.086394840997,None,None,None,2032.2033663890033,2034.0749645649921,0.483165799989365,0.07143122801790014,,,,,,,,,,,,,113.0,1,19,1,2020_Feb_05_1203,Test,3.2.4,59.84182071169459
71,Pictures/IA100_G40.bmp,Pictures/IA100_G40.bmp,Pictures/IA100.bmp,"

Try your luck and gamble!""""",1,risk,,,,,2.0,0.0,2.0,0.0,0.0,18.0,18.0,10.0,,,,,,,,,,,,,,,,,,,,,,,,,,,,,,,2034.0916756469815,None,2036.1136760829831,2037.634347254003,2037.6176390699984,None,2039.1383599719848,None,2.0,2041.1436024279972,None,2041.1436024279974,None,2041.1436024279974,None,None,None,None,None,2042.079402656993,None,2042.079402656993,None,0,2042.079402656993,None,2042.16295046499,2044.0679712290002,None,None,0.72624608699698,0.03843630198389292,,,,,,,,,,,,,113.0,1,19,1,2020_Feb_05_1203,Test,3.2.4,59.84182071169459
72,Pictures/IA75_G60.bmp,Pictures/IA75_G60.bmp,Pictures/IA75.bmp,"

Make it exciting, take a chance!""""",1,risk,,,,,2.0,0.0,2.0,0.0,0.0,19.0,19.0,7.0,,,,,,,,,,,,,,,,,,,,,,,,,,,,,,,2044.0847253559914,None,2046.1066816279779,2047.6128010439859,2047.5939774019935,None,2049.164737429004,None,2.0,2051.1366082459863,None,2051.1366082459863,None,2051.1366082459863,None,None,None,None,None,2051.9888547080045,None,2051.9888547080045,None,0,2051.9888547080045,None,2052.155963937985,2053.9941353699833,None,None,0.6772349730017595,0.12098728001001292,,,,,,,,,,,,,113.0,1,19,1,2020_Feb_05_1203,Test,3.2.4,59.841820711694595
74,Pictures/IA40_20_L95p.bmp,Pictures/IA40_20_L95p.bmp,Pictures/IA40.bmp,"

Trust me, gamble!""""",1,risk,,,,,3.0,0.0,3.0,0.0,0.0,0.0,0.0,3.0,,,,,,,,,,,,,2060.4444743289787,None,2060.4444743289787,None,2060.4444743289787,None,0,4.937364733021242,2060.4444743289787,None,2060.4444743289787,None,2060.4444743289787,None,return,7.353139198006829,2060.4444743289787,None,2067.864045183989,None,2069.8693180659907,2071.3899939789844,2071.373290024989,None,2072.8605375199986,None,2.0,2074.882534554985,None,2074.882534554985,None,2074.882534554985,None,None,None,None,None,2077.0382180319866,None,2077.0382180319866,None,1,2077.0382180319866,None,None,None,2077.2053196269844,2079.0435099889874,2.003310011990834,0.12761476199375466,,,,,,,,,,,,,113.0,1,19,1,2020_Feb_05_1203,Test,3.2.4,59.841820711694595
75,Pictures/IA75_L60.bmp,Pictures/IA75_L60.bmp,Pictures/IA75.bmp,"

Why not take the gamble?""""",1,risk,,,,,3.0,0.0,3.0,0.0,0.0,1.0,1.0,4.0,,,,,,,,,,,,,,,,,,,,,,,,,,,,,,,2079.060213736986,None,2081.0822115019837,2082.6028839199857,2082.586175614997,None,2084.1736961799907,None,2.0,2086.112137767981,None,2086.112137767981,None,2086.112137767981,None,None,None,None,None,2086.8975463550014,None,2086.8975463550014,None,1,2086.8975463550014,None,None,None,2086.981090924004,2088.8861125900003,0.5737157160183415,0.036289465002482764,,,,,,,,,,,,,113.0,1,19,1,2020_Feb_05_1203,Test,3.2.4,59.84182071169459
76,Pictures/IA25_G20.bmp,Pictures/IA25_G20.bmp,Pictures/IA25.bmp,"

I wouldn't gamble for this one. """"",0,safe,,,,,3.0,0.0,3.0,0.0,0.0,2.0,2.0,10.0,,,,,,,,,,,,,,,,,,,,,,,,,,,,,,,2088.9028231099946,None,2090.924822544999,2092.445495327993,2092.4287887190007,None,2093.966172474,None,2.0,2095.9547510709963,None,2095.9547510709963,None,2095.9547510709963,None,None,None,None,None,2096.6231798389927,None,2096.6231798389927,None,0,2096.6231798389927,None,2096.7568648720044,2098.6284617100027,None,None,0.4910957539977972,0.09464965699589813,,,,,,,,,,,,,113.0,1,19,1,2020_Feb_05_1203,Test,3.2.4,59.84182071169459
77,Pictures/IA75_G60.bmp,Pictures/IA75_G60.bmp,Pictures/IA75.bmp,"

Make it exciting, take a chance!""""",1,risk,,,,,3.0,0.0,3.0,0.0,0.0,3.0,3.0,6.0,,,,,,,,,,,,,,,,,,,,,,,,,,,,,,,2098.6451725369843,None,2100.667173672992,2102.187843976979,2102.1711365419906,None,2103.6918137019966,None,1.0,2105.6970988939865,None,2105.6970988939865,None,2105.6970988939865,None,2106.2485543770017,None,2106.2485543770017,2107.2511943999853,2108.354115752998,None,2108.354115752998,None,0,2108.354115752998,None,2108.7718679329846,2110.342688934994,None,None,0.4047506249917205,0.3717145299888216,,,,,,,,,,,,,113.0,1,19,1,2020_Feb_05_1203,Test,3.2.4,59.841820711694595
78,Pictures/IA75_G30.bmp,Pictures/IA75_G30.bmp,Pictures/IA75.bmp,"

Be bold, gamble!""""",1,risk,,,,,3.0,0.0,3.0,0.0,0.0,4.0,4.0,18.0,,,,,,,,,,,,,,,,,,,,,,,,,,,,,,,2110.3593925369787,None,2112.381386687979,2113.9020652439795,2113.885352491983,None,2115.3893212139956,None,2.0,2117.4113139279943,None,2117.4113139279943,None,2117.4113139279943,None,None,None,None,None,2118.1298759609926,None,2118.1298759609926,None,1,2118.1298759609926,None,None,None,2118.430634638993,2120.135156965989,0.5625281199754681,0.2599573880142998,,,,,,,,,,,,,113.0,1,19,1,2020_Feb_05_1203,Test,3.2.4,59.841820711694595
79,Pictures/IA110_55_G95p.bmp,Pictures/IA110_55_G95p.bmp,Pictures/IA110.bmp,"

Take a chance!""""",1,risk,,,,,3.0,0.0,3.0,0.0,0.0,5.0,5.0,2.0,,,,,,,,,,,,,,,,,,,,,,,,,,,,,,,2120.151871485985,None,2122.173866931,2123.69454003399,2123.6778345009952,None,2125.181796621997,None,2.0,2127.203796933987,None,2127.203796933987,None,2127.203796933987,None,None,None,None,None,2127.9724892179947,None,2127.9724892179947,None,1,2127.9724892179947,None,None,None,2128.1061713249946,2129.9777727089822,0.6180445000063628,0.09734850097447634,,,,,,,,,,,,,113.0,1,19,1,2020_Feb_05_1203,Test,3.2.4,59.84182071169459
80,Pictures/IA25_G10.bmp,Pictures/IA25_G10.bmp,Pictures/IA25.bmp,"

What's life without a little risk?""""",1,risk,,,,,3.0,0.0,3.0,0.0,0.0,6.0,6.0,19.0,,,,,,,,,,,,,,,,,,,,,,,,,,,,,,,2129.9944834740018,None,2132.0164813470037,2133.537155995,2133.520447527,None,2135.057836602995,None,1.0,2137.0464116850053,None,2137.0464116850053,None,2137.0464116850053,None,2137.6647129560006,None,2137.6647129560006,2138.6673466789944,2139.8036812999926,None,2139.8036812999926,None,1,2139.8036812999926,None,None,None,2140.756189232983,2141.792252135987,0.4874349079909734,0.9141638579894787,,,,,,,,,,,,,113.0,1,19,1,2020_Feb_05_1203,Test,3.2.4,59.84182071169459
81,Pictures/IA75_L45.bmp,Pictures/IA75_L45.bmp,Pictures/IA75.bmp,"

Don't gamble for this one, play it safe.""""",0,safe,,,,,3.0,0.0,3.0,0.0,0.0,7.0,7.0,9.0,,,,,,,,,,,,,,,,,,,,,,,,,,,,,,,2141.808964077005,None,2143.830962078995,2145.3516404199763,2145.3349952439894,None,2146.8388931590016,None,2.0,2148.86089151699,None,2148.86089151699,None,2148.86089151699,None,None,None,None,None,2149.896956904995,None,2149.896956904995,None,1,2149.896956904995,None,None,None,2150.047348925,2151.8855271389766,0.8089537510240916,0.11687784301466307,,,,,,,,,,,,,113.0,1,19,1,2020_Feb_05_1203,Test,3.2.4,59.841820711694595
82,Pictures/IA50_L30.bmp,Pictures/IA50_L30.bmp,Pictures/IA50.bmp,"

Take a leap, I think you should gamble.""""",1,risk,,,,,3.0,0.0,3.0,0.0,0.0,8.0,8.0,12.0,,,,,,,,,,,,,,,,,,,,,,,,,,,,,,,2151.9022398089874,None,2153.924237900996,2155.428201254981,2155.4114954620018,None,2156.9655900539947,None,2.0,2158.954167050979,None,2158.954167050979,None,2158.954167050979,None,None,None,None,None,2159.605886627978,None,2159.605886627978,None,1,2159.605886627978,None,None,None,2159.7228655329964,2161.5944568879786,0.4436882000009064,0.07194761800928973,,,,,,,,,,,,,113.0,1,19,1,2020_Feb_05_1203,Test,3.2.4,59.841820711694595
83,Pictures/IA100_L40.bmp,Pictures/IA100_L40.bmp,Pictures/IA100.bmp,"

Think of the payoff, gamble!""""",1,risk,,,,,3.0,0.0,3.0,0.0,0.0,9.0,9.0,0.0,,,,,,,,,,,,,,,,,,,,,,,,,,,,,,,2161.6111676379805,None,2163.633169707988,2165.1538410249923,2165.13713577998,None,2166.657812888996,None,2.0,2168.6630991479906,None,2168.6630991479906,None,2168.6630991479906,None,None,None,None,None,2169.2479722409917,None,2169.2479722409917,None,1,2169.2479722409917,None,None,None,2169.3315243139805,2171.2365435309766,0.3827556259930134,0.0378791110124439,,,,,,,,,,,,,113.0,1,19,1,2020_Feb_05_1203,Test,3.2.4,59.841820711694595
84,Pictures/IA100_G60.bmp,Pictures/IA100_G60.bmp,Pictures/IA100.bmp,"

Be cautious, don't gamble for this one.""""",0,safe,,,,,3.0,0.0,3.0,0.0,0.0,10.0,10.0,5.0,,,,,,,,,,,,,,,,,,,,,,,,,,,,,,,2171.2532552710036,None,2173.275255391985,2174.7959309239814,2174.7792232559877,None,2176.316612122988,None,2.0,2178.305183891993,None,2178.305183891993,None,2178.305183891993,None,None,None,None,None,2178.956904634979,None,2178.956904634979,None,0,2178.956904634979,None,2179.023743603,2180.962185954995,None,None,0.4766604550241027,0.03293171900440939,,,,,,,,,,,,,113.0,1,19,1,2020_Feb_05_1203,Test,3.2.4,59.841820711694595
85,Pictures/IA25_L5.bmp,Pictures/IA25_L5.bmp,Pictures/IA25.bmp,"

It would be smarter to choose the safe option.""""",0,safe,,,,,3.0,0.0,3.0,0.0,0.0,11.0,11.0,7.0,,,,,,,,,,,,,,,,,,,,,,,,,,,,,,,2180.9789013729896,None,2183.0008998769918,2184.521571046993,2184.5048650849785,None,2186.0422494869854,None,2.0,2188.030826831993,None,2188.030826831993,None,2188.030826831993,None,None,None,None,None,2188.6658347129996,None,2188.6658347129996,None,1,2188.6658347129996,None,None,None,2188.715961184993,2190.654407225986,0.44700870697852224,0.004010596021544188,,,,,,,,,,,,,113.0,1,19,1,2020_Feb_05_1203,Test,3.2.4,59.84182071169459
86,Pictures/IA50_L40.bmp,Pictures/IA50_L40.bmp,Pictures/IA50.bmp,"

That gamble doesn't sound too good, play it safe.""""",0,safe,,,,,3.0,0.0,3.0,0.0,0.0,12.0,12.0,1.0,,,,,,,,,,,,,,,,,,,,,,,,,,,,,,,2190.6711157629907,None,2192.693116568,2194.213791583985,2194.197082803992,None,2195.7344684579875,None,2.0,2197.7230464549793,None,2197.7230464549793,None,2197.7230464549793,None,None,None,None,None,2198.341356952995,None,2198.341356952995,None,1,2198.341356952995,None,None,None,2199.8620192279923,None,0.4187983539886773,1.472473252011696,,,,,,,,,,,,,113.0,1,19,1,2020_Feb_05_1203,Test,3.2.4,59.841820711694595
87,Pictures/IA100_G20.bmp,Pictures/IA100_G20.bmp,Pictures/IA100.bmp,"

Go ahead and gamble!""""",1,risk,,,,,3.0,0.0,3.0,0.0,0.0,13.0,13.0,17.0,,,,,,,,,,,,,,,,,,,,,,,,,,,,,,,2200.3466273130034,None,2202.3686249610037,2203.889300408977,2203.8725939889846,None,2205.3932715629926,None,2.0,2207.398559928988,None,2207.398559928988,None,2207.398559928988,None,None,None,None,None,2208.0335622690036,None,2208.0335622690036,None,1,2208.0335622690036,None,None,None,2208.1505355160043,2210.022134756,0.4792836399865337,0.07627018599305302,,,,,,,,,,,,,113.0,1,19,1,2020_Feb_05_1203,Test,3.2.4,59.84182071169459
88,Pictures/IA80_40_L95p.bmp,Pictures/IA80_40_L95p.bmp,Pictures/IA80.bmp,"

Let's stay with the certain option.""""",0,safe,,,,,3.0,0.0,3.0,0.0,0.0,14.0,14.0,15.0,,,,,,,,,,,,,,,,,,,,,,,,,,,,,,,2210.0388462799892,None,2212.0608444300015,2213.5815198829805,2213.564813201985,None,2215.0687787189963,None,2.0,2217.0907747489982,None,2217.0907747489982,None,2217.0907747489982,None,None,None,None,None,2218.1101305850025,None,2218.1101305850025,None,0,2218.1101305850025,None,2218.277234092995,2220.115417317982,None,None,0.843072222021874,0.11970970101538116,,,,,,,,,,,,,113.0,1,19,1,2020_Feb_05_1203,Test,3.2.4,59.84182071169459
89,Pictures/IA50_G10.bmp,Pictures/IA50_G10.bmp,Pictures/IA50.bmp,"

Go with the safe option here!""""",0,safe,,,,,3.0,0.0,3.0,0.0,0.0,15.0,15.0,11.0,,,,,,,,,,,,,,,,,,,,,,,,,,,,,,,2220.1321236469958,None,2222.1541224760003,2223.6747971489967,2223.658089334989,None,2225.178769300983,None,2.0,2227.184058997984,None,2227.184058997984,None,2227.184058997984,None,None,None,None,None,2228.1532748180034,None,2228.1532748180034,None,1,2228.1532748180034,None,None,None,2228.3371022770007,2230.141858727002,0.8057861610141117,0.1405598809942603,,,,,,,,,,,,,113.0,1,19,1,2020_Feb_05_1203,Test,3.2.4,59.84182071169459
90,Pictures/IA100_G80.bmp,Pictures/IA100_G80.bmp,Pictures/IA100.bmp,"

Why not gamble?""""",1,risk,,,,,3.0,0.0,3.0,0.0,0.0,16.0,16.0,14.0,,,,,,,,,,,,,,,,,,,,,,,,,,,,,,,2230.158557894989,None,2232.180558128981,2233.70123298798,2233.6845260779955,None,2235.2553370139794,None,2.0,2237.210490530997,None,2237.210490530997,None,2237.210490530997,None,None,None,None,None,2237.728522627993,None,2237.728522627993,None,0,2237.728522627993,None,2237.8454980239912,2239.717093653977,None,None,0.3633521980082151,0.07731158199021593,,,,,,,,,,,,,113.0,1,19,1,2020_Feb_05_1203,Test,3.2.4,59.84182071169459
91,Pictures/IA20_10_G95p.bmp,Pictures/IA20_10_G95p.bmp,Pictures/IA20.bmp,"

Take a leap, I think you should gamble.""""",1,risk,,,,,3.0,0.0,3.0,0.0,0.0,17.0,17.0,8.0,,,,,,,,,,,,,,,,,,,,,,,,,,,,,,,2239.733803899988,None,2241.755804919987,2243.2764829529915,2243.259771648998,None,2244.780450328981,None,2.0,2246.7857347840036,None,2246.7857347840036,None,2246.7857347840036,None,None,None,None,None,2247.8217984270013,None,2247.8217984270013,None,0,2247.8217984270013,None,2247.922060875979,2249.8270830129914,None,None,0.8441236829967238,0.05603723000967875,,,,,,,,,,,,,113.0,1,19,1,2020_Feb_05_1203,Test,3.2.4,59.841820711694595
92,Pictures/IA50_L10.bmp,Pictures/IA50_L10.bmp,Pictures/IA50.bmp,"

Play it safe, don’t gamble!""""",0,safe,,,,,3.0,0.0,3.0,0.0,0.0,18.0,18.0,13.0,,,,,,,,,,,,,,,,,,,,,,,,,,,,,,,2249.843798133981,None,2251.8657951089845,2253.386467877979,2253.369762271992,None,2254.9071472759824,None,2.0,2256.895724715985,None,2256.895724715985,None,2256.895724715985,None,None,None,None,None,2257.7646794279863,None,2257.7646794279863,None,0,2257.7646794279863,None,2257.831521939981,2259.7699676000047,None,None,0.6541255560005084,0.02516553198802285,,,,,,,,,,,,,113.0,1,19,1,2020_Feb_05_1203,Test,3.2.4,59.841820711694595
93,Pictures/IA40_20_G95p.bmp,Pictures/IA40_20_G95p.bmp,Pictures/IA40.bmp,"

Hold back, stay with the safe choice.""""",0,safe,,,,,3.0,0.0,3.0,0.0,0.0,19.0,19.0,16.0,,,,,,,,,,,,,,,,,,,,,,,,,,,,,,,2259.7866751629917,None,2261.8086755209947,2263.329353645997,2263.31264285199,None,2264.88345092698,None,1.0,2266.8386044559884,None,2266.8386044559884,None,2266.8386044559884,None,2267.9080920839915,None,2267.9080920839915,2268.910731886979,2270.013644761988,None,2270.013644761988,None,0,2270.013644761988,None,2270.3478666239826,2272.018925248005,None,None,0.9192433990247082,0.29618995197233744,,,,,,,,,,,,,113.0,1,19,1,2020_Feb_05_1203,Test,3.2.4,59.841820711694595
95,Pictures/IA50_L20.bmp,Pictures/IA50_L20.bmp,Pictures/IA50.bmp,"

Certainty is boring, take a risk!""""",1,risk,,,,,4.0,0.0,4.0,0.0,0.0,0.0,0.0,17.0,,,,,,,,,,,,,2280.4411372629984,None,2280.4411372629984,None,2280.4411372629984,None,1,1.6207077669969294,2280.4411372629984,None,2280.4411372629984,None,2280.4411372629984,None,return,3.4924953829904557,2280.4411372629984,None,2283.9838082389906,None,2285.989097705984,2287.509771359997,2287.493063283997,None,2289.0137401809916,None,2.0,2291.0023183379963,None,2291.0023183379963,None,2291.0023183379963,None,None,None,None,None,2292.155356827978,None,2292.155356827978,None,1,2292.155356827978,None,None,None,2292.2221990029793,2294.16064166298,0.9715252909809352,0.02648313599638641,,,,,,,,,,,,,113.0,1,19,1,2020_Feb_05_1203,Test,3.2.4,59.841820711694595
96,Pictures/IA20_10_G95p.bmp,Pictures/IA20_10_G95p.bmp,Pictures/IA20.bmp,"

Take a leap, I think you should gamble.""""",1,risk,,,,,4.0,0.0,4.0,0.0,0.0,1.0,1.0,7.0,,,,,,,,,,,,,,,,,,,,,,,,,,,,,,,2294.1773511409992,None,2296.1993516569783,2297.7200311019837,2297.7033187649795,None,2299.2407038160018,None,2.0,2301.229287049995,None,2301.229287049995,None,2301.229287049995,None,None,None,None,None,2301.897710418998,None,2301.897710418998,None,0,2301.897710418998,None,2302.0313947029936,2303.903000555001,None,None,0.4885610619967338,0.09212465598830022,,,,,,,,,,,,,113.0,1,19,1,2020_Feb_05_1203,Test,3.2.4,59.841820711694595
97,Pictures/IA50_G30.bmp,Pictures/IA50_G30.bmp,Pictures/IA50.bmp,"

I think you should gamble.""""",1,risk,,,,,4.0,0.0,4.0,0.0,0.0,2.0,2.0,3.0,,,,,,,,,,,,,,,,,,,,,,,,,,,,,,,2303.9197075569828,None,2305.9417074869853,2307.462379851,2307.445673523005,None,2308.966353614989,None,2.0,2310.9716401849873,None,2310.9716401849873,None,2310.9716401849873,None,None,None,None,None,2311.7570422019926,None,2311.7570422019926,None,0,2311.7570422019926,None,2311.823882761004,2313.7623244339775,None,None,0.5942030340083875,0.03280424099648371,,,,,,,,,,,,,113.0,1,19,1,2020_Feb_05_1203,Test,3.2.4,59.84182071169459
98,Pictures/IA100_G20.bmp,Pictures/IA100_G20.bmp,Pictures/IA100.bmp,"

Go ahead and gamble!""""",1,risk,,,,,4.0,0.0,4.0,0.0,0.0,3.0,3.0,15.0,,,,,,,,,,,,,,,,,,,,,,,,,,,,,,,2313.779037598986,None,2315.8010348079843,2317.32171094598,2317.3050038359947,None,2318.8423843499913,None,2.0,2320.830971834977,None,2320.8309718349774,None,2320.8309718349774,None,None,None,None,None,2321.482687320997,None,2321.482687320997,None,1,2321.482687320997,None,None,None,2321.63307874999,2323.4712590689887,0.494870033027837,0.11514820699812844,,,,,,,,,,,,,113.0,1,19,1,2020_Feb_05_1203,Test,3.2.4,59.84182071169459
99,Pictures/IA75_L30.bmp,Pictures/IA75_L30.bmp,Pictures/IA75.bmp,"

Hold back, stay with the safe choice.""""",0,safe,,,,,4.0,0.0,4.0,0.0,0.0,4.0,4.0,18.0,,,,,,,,,,,,,,,,,,,,,,,,,,,,,,,2323.4879704619816,None,2325.509970193991,2327.030646714993,2327.0139382070047,None,2328.5513270029915,None,2.0,2330.539901163982,None,2330.539901163982,None,2330.539901163982,None,None,None,None,None,2331.475704152981,None,2331.475704152981,None,1,2331.475704152981,None,None,None,2332.1274173400016,2333.4642733189976,0.7619374769856222,0.6101336010033265,,,,,,,,,,,,,113.0,1,19,1,2020_Feb_05_1203,Test,3.2.4,59.841820711694595
100,Pictures/IA75_G45.bmp,Pictures/IA75_G45.bmp,Pictures/IA75.bmp,"

Don't gamble for this one.""""",0,safe,,,,,4.0,0.0,4.0,0.0,0.0,5.0,5.0,10.0,,,,,,,,,,,,,,,,,,,,,,,,,,,,,,,2333.4809869509772,None,2335.502986601001,2337.0236604879897,2337.006954374985,None,2338.5276285900036,None,1.0,2340.532923033985,None,2340.532923033985,None,2340.532923033985,None,2341.4687188550015,None,2341.4687188550015,2342.471355501999,2343.590985805,None,2343.590985805,None,0,2343.590985805,None,2344.0421681499865,2345.5795549360046,None,None,0.8249266670027282,0.40684998902725056,,,,,,,,,,,,,113.0,1,19,1,2020_Feb_05_1203,Test,3.2.4,59.84182071169459
101,Pictures/IA25_G20.bmp,Pictures/IA25_G20.bmp,Pictures/IA25.bmp,"

I wouldn't gamble for this one. """"",0,safe,,,,,4.0,0.0,4.0,0.0,0.0,6.0,6.0,2.0,,,,,,,,,,,,,,,,,,,,,,,,,,,,,,,2345.596264713997,None,2347.6182666489913,2349.1389401390047,2349.122231799993,None,2350.626198782993,None,2.0,2352.64819766098,None,2352.6481976609793,None,2352.6481976609793,None,None,None,None,None,2353.3333580479957,None,2353.3333580479957,None,0,2353.3333580479957,None,2353.700967484998,2355.3219083449803,None,None,0.5256400860089343,0.3284501890011597,,,,,,,,,,,,,113.0,1,19,1,2020_Feb_05_1203,Test,3.2.4,59.84182071169459
102,Pictures/IA100_L60.bmp,Pictures/IA100_L60.bmp,Pictures/IA100.bmp,"

You'd have a lot to lose, don't gamble.""""",0,safe,,,,,4.0,0.0,4.0,0.0,0.0,7.0,7.0,1.0,,,,,,,,,,,,,,,,,,,,,,,,,,,,,,,2355.338635068998,None,2357.3606202380033,2358.881304078997,2358.86458775599,None,2360.4019797309884,None,2.0,2362.3905517729872,None,2362.3905517729872,None,2362.3905517729872,None,None,None,None,None,2362.9085843659996,None,2362.9085843659996,None,1,2362.9085843659996,None,None,None,2363.008845332981,2364.913869223994,0.3432907490059733,0.06524984902353026,,,,,,,,,,,,,113.0,1,19,1,2020_Feb_05_1203,Test,3.2.4,59.841820711694595
103,Pictures/IA25_L20.bmp,Pictures/IA25_L20.bmp,Pictures/IA25.bmp,"

Don't be tempted to gamble.""""",0,safe,,,,,4.0,0.0,4.0,0.0,0.0,8.0,8.0,0.0,,,,,,,,,,,,,,,,,,,,,,,,,,,,,,,2364.9305794980028,None,2366.9525785919977,2368.473253467993,2368.456550470001,None,2369.9939321209968,None,1.0,2371.982513997005,None,2371.9825139970053,None,2371.9825139970053,None,2372.80133750799,None,2372.80133750799,2373.803942056984,2374.906889398,None,2374.906889398,None,1,2374.906889398,None,None,None,2375.3580981809937,2376.895465854992,0.7033289669780061,0.4029474259878043,,,,,,,,,,,,,113.0,1,19,1,2020_Feb_05_1203,Test,3.2.4,59.84182071169459
104,Pictures/IA50_L10.bmp,Pictures/IA50_L10.bmp,Pictures/IA50.bmp,"

Play it safe, don’t gamble!""""",0,safe,,,,,4.0,0.0,4.0,0.0,0.0,9.0,9.0,5.0,,,,,,,,,,,,,,,,,,,,,,,,,,,,,,,2376.9121720779804,None,2378.934174689988,2380.454848445981,2380.4381427599874,None,2381.9421056709834,None,1.0,2383.964106444997,None,2383.964106444997,None,2383.964106444997,None,2384.899904436985,None,2384.899904436985,2385.902545773977,2387.0221707249875,None,2387.0221707249875,None,1,2387.0221707249875,None,None,None,2387.556913437991,2389.027452002978,0.8257476519793272,0.4956623329780996,,,,,,,,,,,,,113.0,1,19,1,2020_Feb_05_1203,Test,3.2.4,59.841820711694595
105,Pictures/IA25_L10.bmp,Pictures/IA25_L10.bmp,Pictures/IA25.bmp,"

Dont be afraid to take the risk!""""",1,risk,,,,,4.0,0.0,4.0,0.0,0.0,10.0,10.0,13.0,,,,,,,,,,,,,,,,,,,,,,,,,,,,,,,2389.044162895996,None,2391.0661639749887,2392.586842880002,2392.5701316649797,None,2394.124226758984,None,1.0,2396.096094231005,None,2396.096094231005,None,2396.096094231005,None,2396.8480764239794,None,2396.8480764239794,2397.850719471986,2398.953634799982,None,2398.953634799982,None,1,2398.953634799982,None,None,None,2399.42152799599,2400.9589137579896,0.6297481100191362,0.4282016320212279,,,,,,,,,,,,,113.0,1,19,1,2020_Feb_05_1203,Test,3.2.4,59.84182071169459
106,Pictures/IA110_55_G95p.bmp,Pictures/IA110_55_G95p.bmp,Pictures/IA110.bmp,"

Take a chance!""""",1,risk,,,,,4.0,0.0,4.0,0.0,0.0,11.0,11.0,16.0,,,,,,,,,,,,,,,,,,,,,,,,,,,,,,,2400.975625572988,None,2402.9976252529887,2404.5183033309877,2404.5015935529955,None,2406.0389792799833,None,2.0,2408.0275589139787,None,2408.0275589139783,None,2408.0275589139783,None,None,None,None,None,2408.8463838530006,None,2408.8463838530006,None,1,2408.8463838530006,None,None,None,2409.0134875410004,2410.8516661289905,0.6662849450076465,0.12744478901731782,,,,,,,,,,,,,113.0,1,19,1,2020_Feb_05_1203,Test,3.2.4,59.84182071169459
107,Pictures/IA25_G5.bmp,Pictures/IA25_G5.bmp,Pictures/IA25.bmp,"

Let's stay with the certain option.""""",0,safe,,,,,4.0,0.0,4.0,0.0,0.0,12.0,12.0,6.0,,,,,,,,,,,,,,,,,,,,,,,,,,,,,,,2410.8683803780004,None,2412.890378662996,2414.411052366981,2414.394348335976,None,2415.9317313029896,None,2.0,2417.920309683977,None,2417.9203096839774,None,2417.9203096839774,None,None,None,None,None,2418.5887398449995,None,2418.5887398449995,None,1,2418.5887398449995,None,None,None,2418.705710298993,2420.5773167040024,0.4935373959888239,0.07309572101803496,,,,,,,,,,,,,113.0,1,19,1,2020_Feb_05_1203,Test,3.2.4,59.84182071169459
108,Pictures/IA100_G60.bmp,Pictures/IA100_G60.bmp,Pictures/IA100.bmp,"

Be cautious, don't gamble for this one.""""",0,safe,,,,,4.0,0.0,4.0,0.0,0.0,13.0,13.0,8.0,,,,,,,,,,,,,,,,,,,,,,,,,,,,,,,2420.5940230499837,None,2422.616024263989,2424.1366995349813,2424.1199933039898,None,2425.6239564379794,None,2.0,2427.645957033994,None,2427.645957033994,None,2427.645957033994,None,None,None,None,None,2428.9661032469885,None,2428.9661032469885,None,0,2428.9661032469885,None,2429.1666291999863,2430.9713893639855,None,None,1.1438886310206726,0.15972030299599282,,,,,,,,,,,,,113.0,1,19,1,2020_Feb_05_1203,Test,3.2.4,59.841820711694595
109,Pictures/IA20_10_L95p.bmp,Pictures/IA20_10_L95p.bmp,Pictures/IA20.bmp,"

Don't be tempted to gamble.""""",0,safe,,,,,4.0,0.0,4.0,0.0,0.0,14.0,14.0,19.0,,,,,,,,,,,,,,,,,,,,,,,,,,,,,,,2430.988100778981,None,2433.010099092993,2434.530777626001,2434.5140684299986,None,2436.0514536129776,None,2.0,2438.040034659993,None,2438.0400346599927,None,2438.0400346599927,None,None,None,None,None,2438.725176341977,None,2438.725176341977,None,1,2438.725176341977,None,None,None,2438.8588609729777,2440.730455982004,0.5337988259852864,0.09665889901225456,,,,,,,,,,,,,113.0,1,19,1,2020_Feb_05_1203,Test,3.2.4,59.84182071169459
110,Pictures/IA75_G15.bmp,Pictures/IA75_G15.bmp,Pictures/IA75.bmp,"

Take a chance!""""",1,risk,,,,,4.0,0.0,4.0,0.0,0.0,15.0,15.0,4.0,,,,,,,,,,,,,,,,,,,,,,,,,,,,,,,2440.7471666100028,None,2442.7691699069983,2444.2898433639784,2444.273139211989,None,2445.810519125982,None,2.0,2447.7990989209798,None,2447.7990989209793,None,2447.7990989209793,None,None,None,None,None,2448.4006846509874,None,2448.4006846509874,None,1,2448.4006846509874,None,None,None,2448.5677906789933,2450.405980615993,0.4467384910094552,0.1331512320030015,,,,,,,,,,,,,113.0,1,19,1,2020_Feb_05_1203,Test,3.2.4,59.84182071169459
111,Pictures/IA100_L40.bmp,Pictures/IA100_L40.bmp,Pictures/IA100.bmp,"

Think of the payoff, gamble!""""",1,risk,,,,,4.0,0.0,4.0,0.0,0.0,16.0,16.0,14.0,,,,,,,,,,,,,,,,,,,,,,,,,,,,,,,2450.4226819149917,None,2452.444681114983,2453.965355753986,2453.948648472986,None,2455.4526150599995,None,2.0,2457.4746139810013,None,2457.4746139810013,None,2457.4746139810013,None,None,None,None,None,2457.992646111001,None,2457.992646111001,None,1,2457.992646111001,None,None,None,2458.0929083539813,2459.9979298209946,0.3472306329931598,0.05319436499848962,,,,,,,,,,,,,113.0,1,19,1,2020_Feb_05_1203,Test,3.2.4,59.841820711694595
112,Pictures/IA100_G40.bmp,Pictures/IA100_G40.bmp,Pictures/IA100.bmp,"

Try your luck and gamble!""""",1,risk,,,,,4.0,0.0,4.0,0.0,0.0,17.0,17.0,12.0,,,,,,,,,,,,,,,,,,,,,,,,,,,,,,,2460.014642291004,None,2462.036646702996,2463.557317006984,2463.5406111569896,None,2465.061283739982,None,1.0,2467.0665739129763,None,2467.0665739129763,None,2467.0665739129763,None,2468.019084678992,None,2468.019084678992,2469.021725603001,2470.1246413619956,None,2470.1246413619956,None,0,2470.1246413619956,None,2470.475560572988,2472.1132111839834,None,None,0.8512678419938311,0.3051953900139779,,,,,,,,,,,,,113.0,1,19,1,2020_Feb_05_1203,Test,3.2.4,59.84182071169459
113,Pictures/IA50_G20.bmp,Pictures/IA50_G20.bmp,Pictures/IA50.bmp,"

Let's venture and take a risk!""""",1,risk,,,,,4.0,0.0,4.0,0.0,0.0,18.0,18.0,9.0,,,,,,,,,,,,,,,,,,,,,,,,,,,,,,,2472.129922527005,None,2474.151926321996,2475.6725996379973,2475.6558923659904,None,2477.1932757269824,None,2.0,2479.181874829985,None,2479.1818748299847,None,2479.1818748299847,None,None,None,None,None,2479.4158117299958,None,2479.4158117299958,None,1,2479.4158117299958,None,None,None,2479.582910023979,2481.4210926829837,0.0639756589953322,0.12603283298085444,,,,,,,,,,,,,113.0,1,19,1,2020_Feb_05_1203,Test,3.2.4,59.84182071169459
114,Pictures/IA25_L15.bmp,Pictures/IA25_L15.bmp,Pictures/IA25.bmp,"

There's not much on the line here, gamble!""""",1,risk,,,,,4.0,0.0,4.0,0.0,0.0,19.0,19.0,11.0,,,,,,,,,,,,,,,,,,,,,,,,,,,,,,,2481.437805570982,None,2483.45980149298,2484.963764676999,2484.947064291977,None,2486.501155261998,None,2.0,2488.4897352919797,None,2488.4897352919797,None,2488.4897352919797,None,None,None,None,None,2488.9576350029965,None,2488.9576350029965,None,1,2488.9576350029965,None,None,None,2489.007763485977,2490.9462074799812,0.30010871699778363,0.016207970009418204,,,,,,,,,,,,,113.0,1,19,1,2020_Feb_05_1203,Test,3.2.4,59.841820711694595
116,Pictures/IA100_G20.bmp,Pictures/IA100_G20.bmp,Pictures/IA100.bmp,"

Go ahead and gamble!""""",1,risk,,,,,5.0,0.0,5.0,0.0,0.0,0.0,0.0,12.0,,,,,,,,,,,,,2497.279579544993,None,2497.279579544993,None,2497.279579544993,None,0,1.0702543009829242,2497.279579544993,None,2497.279579544993,None,2497.279579544993,None,return,4.982028489001095,2497.279579544993,None,2502.309472072986,None,2504.3315098119783,2505.852183790994,2505.835481713992,None,2507.356151752989,None,2.0,2509.344741114997,None,2509.3447411149973,None,2509.3447411149973,None,None,None,None,None,2510.1134222969995,None,2510.1134222969995,None,1,2510.1134222969995,None,None,None,2510.4309233759996,2512.1020002769947,0.6050980330037419,0.2764274519868195,,,,,,,,,,,,,113.0,1,19,1,2020_Feb_05_1203,Test,3.2.4,59.84182071169459
117,Pictures/IA100_G40.bmp,Pictures/IA100_G40.bmp,Pictures/IA100.bmp,"

Try your luck and gamble!""""",1,risk,,,,,5.0,0.0,5.0,0.0,0.0,1.0,1.0,17.0,,,,,,,,,,,,,,,,,,,,,,,,,,,,,,,2512.118708035996,None,2514.140707725979,2515.661385052983,2515.644675835996,None,2517.148640735977,None,2.0,2519.1706418480026,None,2519.1706418480026,None,2519.1706418480026,None,None,None,None,None,2519.9393357819936,None,2519.9393357819936,None,0,2519.9393357819936,None,2520.1732845199876,2521.944619080983,None,None,0.603204615006689,0.18650380900362507,,,,,,,,,,,,,113.0,1,19,1,2020_Feb_05_1203,Test,3.2.4,59.84182071169459
118,Pictures/IA40_20_G95p.bmp,Pictures/IA40_20_G95p.bmp,Pictures/IA40.bmp,"

Hold back, stay with the safe choice.""""",0,safe,,,,,5.0,0.0,5.0,0.0,0.0,2.0,2.0,18.0,,,,,,,,,,,,,,,,,,,,,,,,,,,,,,,2521.9613303549995,None,2523.9833314889984,2525.504006000003,2525.4872999609797,None,2526.9912624399876,None,1.0,2529.0132640899974,None,2529.0132640899974,None,2529.0132640899974,None,2531.152241023985,None,2531.152241023985,2532.1548784079787,2533.2577923979843,None,2533.2577923979843,None,0,2533.2577923979843,None,2534.594646918995,None,None,None,2.00057140699937,1.3000467610254418,,,,,,,,,,,,,113.0,1,19,1,2020_Feb_05_1203,Test,3.2.4,59.841820711694595
119,Pictures/IA110_55_L95p.bmp,Pictures/IA110_55_L95p.bmp,Pictures/IA110.bmp,"

Trust me, gamble!""""",1,risk,,,,,5.0,0.0,5.0,0.0,0.0,3.0,3.0,8.0,,,,,,,,,,,,,,,,,,,,,,,,,,,,,,,2535.279785752995,None,2537.301786009979,2538.822461459989,2538.805754881003,None,2540.343150904984,None,2.0,2542.331719951995,None,2542.331719951995,None,2542.331719951995,None,None,None,None,None,2542.8497514089977,None,2542.8497514089977,None,1,2542.8497514089977,None,None,None,2542.9834335619817,2544.8383256130037,0.35412562199053355,0.10008419200312346,,,,,,,,,,,,,113.0,1,19,1,2020_Feb_05_1203,Test,3.2.4,59.841820711694595
120,Pictures/IA50_L30.bmp,Pictures/IA50_L30.bmp,Pictures/IA50.bmp,"

Take a leap, I think you should gamble.""""",1,risk,,,,,5.0,0.0,5.0,0.0,0.0,4.0,4.0,10.0,,,,,,,,,,,,,,,,,,,,,,,,,,,,,,,2544.8550347599958,None,2546.877040448977,2548.397711239988,2548.381004914001,None,2549.918393031985,None,2.0,2551.90697079699,None,2551.90697079699,None,2551.90697079699,None,None,None,None,None,2552.374879052979,None,2552.374879052979,None,1,2552.374879052979,None,None,None,2552.425002070988,2554.380159619992,0.2988638160168193,0.006967833003727718,,,,,,,,,,,,,113.0,1,19,1,2020_Feb_05_1203,Test,3.2.4,59.841820711694595
121,Pictures/IA75_L15.bmp,Pictures/IA75_L15.bmp,Pictures/IA75.bmp,"

Trust me–gamble!""""",1,risk,,,,,5.0,0.0,5.0,0.0,0.0,5.0,5.0,2.0,,,,,,,,,,,,,,,,,,,,,,,,,,,,,,,2554.3968661039835,None,2556.4188690779847,2557.939540994994,2557.9228330419865,None,2559.4602206629934,None,2.0,2561.4487997769897,None,2561.44879977699,None,2561.44879977699,None,None,None,None,None,2562.000259663997,None,2562.000259663997,None,1,2562.000259663997,None,None,None,2562.6519688849803,2563.9888260059815,0.3970408590103034,0.6055730519874487,,,,,,,,,,,,,113.0,1,19,1,2020_Feb_05_1203,Test,3.2.4,59.84182071169459
122,Pictures/IA20_10_L95p.bmp,Pictures/IA20_10_L95p.bmp,Pictures/IA20.bmp,"

Don't be tempted to gamble.""""",0,safe,,,,,5.0,0.0,5.0,0.0,0.0,6.0,6.0,13.0,,,,,,,,,,,,,,,,,,,,,,,,,,,,,,,2564.005538447993,None,2566.0275384800043,2567.5482140969834,2567.531510255998,None,2569.035475872981,None,2.0,2571.057473358989,None,2571.0574733589892,None,2571.0574733589892,None,None,None,None,None,2572.093539670983,None,2572.093539670983,None,0,2572.093539670983,None,2572.16037769799,2574.0988221879816,None,None,0.8523600120097399,0.02429778501391411,,,,,,,,,,,,,113.0,1,19,1,2020_Feb_05_1203,Test,3.2.4,59.84182071169459
123,Pictures/IA100_L60.bmp,Pictures/IA100_L60.bmp,Pictures/IA100.bmp,"

You'd have a lot to lose, don't gamble.""""",0,safe,,,,,5.0,0.0,5.0,0.0,0.0,7.0,7.0,4.0,,,,,,,,,,,,,,,,,,,,,,,,,,,,,,,2574.115532180993,None,2576.13753360798,2577.6582075379847,2577.641505026986,None,2579.145470278978,None,2.0,2581.1674679559947,None,2581.1674679559947,None,2581.1674679559947,None,None,None,None,None,2581.8358953819843,None,2581.8358953819843,None,1,2581.8358953819843,None,None,None,2582.086555906979,2583.8244408069877,0.4943733999971301,0.20194673701189456,,,,,,,,,,,,,113.0,1,19,1,2020_Feb_05_1203,Test,3.2.4,59.841820711694595
124,Pictures/IA25_G20.bmp,Pictures/IA25_G20.bmp,Pictures/IA25.bmp,"

I wouldn't gamble for this one. """"",0,safe,,,,,5.0,0.0,5.0,0.0,0.0,8.0,8.0,5.0,,,,,,,,,,,,,,,,,,,,,,,,,,,,,,,2583.8411456669855,None,2585.8631791219814,2587.3671485660016,2587.350449488993,None,2588.887826864986,None,2.0,2590.893113931001,None,2590.8931139310007,None,2590.8931139310007,None,None,None,None,None,2591.778786076,None,2591.778786076,None,1,2591.778786076,None,None,None,2591.9291757449973,2593.7673575189838,0.6967292749905027,0.10706115598441103,,,,,,,,,,,,,113.0,1,19,1,2020_Feb_05_1203,Test,3.2.4,59.84182071169459
125,Pictures/IA75_L60.bmp,Pictures/IA75_L60.bmp,Pictures/IA75.bmp,"

Why not take the gamble?""""",1,risk,,,,,5.0,0.0,5.0,0.0,0.0,9.0,9.0,6.0,,,,,,,,,,,,,,,,,,,,,,,,,,,,,,,2593.784066998982,None,2595.80606836098,2597.326744474005,2597.3100359779787,None,2598.830712462979,None,2.0,2600.836001382995,None,2600.836001382995,None,2600.836001382995,None,None,None,None,None,2601.8219540120044,None,2601.8219540120044,None,1,2601.8219540120044,None,None,None,2601.9890407850035,2603.8104709189793,0.8178400299802888,0.1198842609883286,,,,,,,,,,,,,113.0,1,19,1,2020_Feb_05_1203,Test,3.2.4,59.84182071169459
126,Pictures/IA20_10_G95p.bmp,Pictures/IA20_10_G95p.bmp,Pictures/IA20.bmp,"

Take a leap, I think you should gamble.""""",1,risk,,,,,5.0,0.0,5.0,0.0,0.0,10.0,10.0,7.0,,,,,,,,,,,,,,,,,,,,,,,,,,,,,,,2603.827223686996,None,2605.849218099,2607.353184568987,2607.336501076992,None,2608.873827125004,None,2.0,2610.8791539819795,None,2610.8791539819795,None,2610.8791539819795,None,None,None,None,None,2612.182591005985,None,2612.182591005985,None,0,2612.182591005985,None,2612.2995659189764,2614.171163494,None,None,1.1186974690062923,0.07924336200812833,,,,,,,,,,,,,113.0,1,19,1,2020_Feb_05_1203,Test,3.2.4,59.841820711694595
127,Pictures/IA100_L80.bmp,Pictures/IA100_L80.bmp,Pictures/IA100.bmp,"

Go all in!""""",1,risk,,,,,5.0,0.0,5.0,0.0,0.0,11.0,11.0,0.0,,,,,,,,,,,,,,,,,,,,,,,,,,,,,,,2614.187875951,None,2616.2098804299894,2617.7305503629905,2617.7138448899786,None,2619.2345188100007,None,2.0,2621.2398164469923,None,2621.2398164469923,None,2621.2398164469923,None,None,None,None,None,2621.891529369983,None,2621.891529369983,None,1,2621.891529369983,None,None,None,2621.9750793849817,2623.8800710899814,0.5020317469898146,0.042315141996368766,,,,,,,,,,,,,113.0,1,19,1,2020_Feb_05_1203,Test,3.2.4,59.84182071169459
128,Pictures/IA75_G15.bmp,Pictures/IA75_G15.bmp,Pictures/IA75.bmp,"

Take a chance!""""",1,risk,,,,,5.0,0.0,5.0,0.0,0.0,12.0,12.0,9.0,,,,,,,,,,,,,,,,,,,,,,,,,,,,,,,2623.8968109949783,None,2625.9187790599826,2627.4394876899896,2627.422779975983,None,2628.943455553992,None,2.0,2630.9487463849946,None,2630.9487463849946,None,2630.9487463849946,None,None,None,None,None,2631.399937273003,None,2631.399937273003,None,1,2631.399937273003,None,None,None,2631.450065379002,2633.388511620986,0.2970973569899797,0.013888596004107969,,,,,,,,,,,,,113.0,1,19,1,2020_Feb_05_1203,Test,3.2.4,59.84182071169459
129,Pictures/IA25_G5.bmp,Pictures/IA25_G5.bmp,Pictures/IA25.bmp,"

Let's stay with the certain option.""""",0,safe,,,,,5.0,0.0,5.0,0.0,0.0,13.0,13.0,16.0,,,,,,,,,,,,,,,,,,,,,,,,,,,,,,,2633.4052201379964,None,2635.427221232996,2636.947898855986,2636.9311886039795,None,2638.435153939994,None,2.0,2640.4571587840037,None,2640.4571587840037,None,2640.4571587840037,None,None,None,None,None,2641.0420313869836,None,2641.0420313869836,None,1,2641.0420313869836,None,None,None,2641.092165168986,2643.0306041389995,0.4046893329941668,0.01181905300472863,,,,,,,,,,,,,113.0,1,19,1,2020_Feb_05_1203,Test,3.2.4,59.84182071169459
130,Pictures/IA100_G60.bmp,Pictures/IA100_G60.bmp,Pictures/IA100.bmp,"

Be cautious, don't gamble for this one.""""",0,safe,,,,,5.0,0.0,5.0,0.0,0.0,14.0,14.0,19.0,,,,,,,,,,,,,,,,,,,,,,,,,,,,,,,2643.0473175849766,None,2645.0693190569878,2646.589990837005,2646.5732879479765,None,2648.093965020991,None,2.0,2650.0992481769936,None,2650.0992481769936,None,2650.0992481769936,None,None,None,None,None,2650.7175471819937,None,2650.7175471819937,None,0,2650.7175471819937,None,2650.750964867999,2652.722829278995,None,None,0.4345819480076898,0.0002823949907906353,,,,,,,,,,,,,113.0,1,19,1,2020_Feb_05_1203,Test,3.2.4,59.841820711694595
131,Pictures/IA50_G20.bmp,Pictures/IA50_G20.bmp,Pictures/IA50.bmp,"

Let's venture and take a risk!""""",1,risk,,,,,5.0,0.0,5.0,0.0,0.0,15.0,15.0,1.0,,,,,,,,,,,,,,,,,,,,,,,,,,,,,,,2652.739540278999,None,2654.7615426440025,2656.282218050997,2656.2655094219954,None,2657.7694770709786,None,2.0,2659.791475601989,None,2659.791475601989,None,2659.791475601989,None,None,None,None,None,2660.309506342979,None,2660.309506342979,None,1,2660.309506342979,None,None,None,2660.7439829759824,2662.31479213899,0.3423702110012528,0.3923237950075418,,,,,,,,,,,,,113.0,1,19,1,2020_Feb_05_1203,Test,3.2.4,59.84182071169459
132,Pictures/IA75_G60.bmp,Pictures/IA75_G60.bmp,Pictures/IA75.bmp,"

Make it exciting, take a chance!""""",1,risk,,,,,5.0,0.0,5.0,0.0,0.0,16.0,16.0,11.0,,,,,,,,,,,,,,,,,,,,,,,,,,,,,,,2662.3315035190026,None,2664.3535074709803,2665.874179535982,2665.8574765599915,None,2667.428283005982,None,2.0,2669.3834378299944,None,2669.3834378299944,None,2669.3834378299944,None,None,None,None,None,2670.6200335989997,None,2670.6200335989997,None,0,2670.6200335989997,None,2671.188193868991,2672.625315696001,None,None,1.0544090410112403,0.5218064110085834,,,,,,,,,,,,,113.0,1,19,1,2020_Feb_05_1203,Test,3.2.4,59.841820711694595
133,Pictures/IA25_L10.bmp,Pictures/IA25_L10.bmp,Pictures/IA25.bmp,"

Dont be afraid to take the risk!""""",1,risk,,,,,5.0,0.0,5.0,0.0,0.0,17.0,17.0,15.0,,,,,,,,,,,,,,,,,,,,,,,,,,,,,,,2672.642027273978,None,2674.664027994004,2676.1847075120018,2676.168001960992,None,2677.671962124994,None,1.0,2679.693978653988,None,2679.693978653988,None,2679.693978653988,None,2680.2119922499987,None,2680.2119922499987,2681.2146345280053,2682.317546828999,None,2682.317546828999,None,1,2682.317546828999,None,None,None,2683.03610774799,2684.306120647001,0.3918622269993648,0.6722932689881418,,,,,,,,,,,,,113.0,1,19,1,2020_Feb_05_1203,Test,3.2.4,59.84182071169459
134,Pictures/IA100_L20.bmp,Pictures/IA100_L20.bmp,Pictures/IA100.bmp,"

Try to win as much money as you can, gamble!""""",1,risk,,,,,5.0,0.0,5.0,0.0,0.0,18.0,18.0,14.0,,,,,,,,,,,,,,,,,,,,,,,,,,,,,,,2684.3228308940015,None,2686.3448427099797,2687.865509169991,2687.848800612992,None,2689.3694787589775,None,1.0,2691.3747707360017,None,2691.3747707360017,None,2691.3747707360017,None,2691.9429297029856,None,2691.9429297029856,2692.9455699909886,2694.0484850629873,None,2694.0484850629873,None,0,2694.0484850629873,None,2694.6500656330027,2696.0537665409793,None,None,0.4230588339851238,0.5653418450092431,,,,,,,,,,,,,113.0,1,19,1,2020_Feb_05_1203,Test,3.2.4,59.841820711694595
135,Pictures/IA40_20_L95p.bmp,Pictures/IA40_20_L95p.bmp,Pictures/IA40.bmp,"

Trust me, gamble!""""",1,risk,,,,,5.0,0.0,5.0,0.0,0.0,19.0,19.0,3.0,,,,,,,,,,,,,,,,,,,,,,,,,,,,,,,2696.0704774469777,None,2698.092481330997,2699.613154179999,2699.5964484229917,None,2701.1171248229803,None,2.0,2703.122416541999,None,2703.122416541999,None,2703.122416541999,None,None,None,None,None,2703.824225962977,None,2703.824225962977,None,1,2703.824225962977,None,None,None,2703.891108155978,2705.8295476929925,0.5154429179965518,0.029609755001729358,,,,,,,,,,,,,113.0,1,19,1,2020_Feb_05_1203,Test,3.2.4,59.841820711694595
137,Pictures/IA50_L40.bmp,Pictures/IA50_L40.bmp,Pictures/IA50.bmp,"

That gamble doesn't sound too good, play it safe.""""",0,safe,,,,,6.0,0.0,6.0,0.0,0.0,0.0,0.0,7.0,,,,,,,,,,,,,2709.7565748920024,None,2709.7565748920024,None,2709.7565748920024,None,0,1.31325798999751,2709.7565748920024,None,2709.7565748920024,None,2709.7565748920024,None,return,3.2330451520101637,2709.7565748920024,None,2713.048587076977,None,2715.053877098981,2716.5745518439803,2716.557847950986,None,2718.061810054991,None,2.0,2720.0671009919897,None,2720.0671009919897,None,2720.0671009919897,None,None,None,None,None,2720.618551901978,None,2720.618551901978,None,1,2720.618551901978,None,None,None,2721.019607141003,2722.623838116997,0.3627565400092863,0.8112984749895986,,,,,,,,,,,,,113.0,1,19,1,2020_Feb_05_1203,Test,3.2.4,59.841820711694595
138,Pictures/IA75_G15.bmp,Pictures/IA75_G15.bmp,Pictures/IA75.bmp,"

Take a chance!""""",1,risk,,,,,6.0,0.0,6.0,0.0,0.0,1.0,1.0,13.0,,,,,,,,,,,,,,,,,,,,,,,,,,,,,,,2722.640548898984,None,2724.662550929992,2726.1832293879997,2726.16651807999,None,2727.6704808329814,None,2.0,2729.6924837289844,None,2729.6924837289844,None,2729.6924837289844,None,None,None,None,None,2730.2606481910043,None,2730.2606481910043,None,1,2730.2606481910043,None,None,None,2730.3274933799985,2732.2659331999894,0.4013561180036049,0.033182426996063434,,,,,,,,,,,,,113.0,1,19,1,2020_Feb_05_1203,Test,3.2.4,59.84182071169459
139,Pictures/IA75_L15.bmp,Pictures/IA75_L15.bmp,Pictures/IA75.bmp,"

Trust me–gamble!""""",1,risk,,,,,6.0,0.0,6.0,0.0,0.0,2.0,2.0,11.0,,,,,,,,,,,,,,,,,,,,,,,,,,,,,,,2732.282644149993,None,2734.3046439600002,2735.8253190489772,2735.808611496992,None,2737.312577323988,None,2.0,2739.334601065988,None,2739.334601065988,None,2739.334601065988,None,None,None,None,None,2740.170117531001,None,2740.170117531001,None,1,2740.170117531001,None,None,None,2740.7048559259856,2742.175397130981,0.6632353479799349,0.7077313589979894,,,,,,,,,,,,,113.0,1,19,1,2020_Feb_05_1203,Test,3.2.4,59.84182071169459
140,Pictures/IA50_G40.bmp,Pictures/IA50_G40.bmp,Pictures/IA50.bmp,"

It would probably be best to play it safe.""""",0,safe,,,,,6.0,0.0,6.0,0.0,0.0,3.0,3.0,6.0,,,,,,,,,,,,,,,,,,,,,,,,,,,,,,,2742.1921110079857,None,2744.214111226989,2745.7347870749945,2745.7180786819954,None,2747.2387548779952,None,2.0,2749.244044978986,None,2749.2440449789865,None,2749.2440449789865,None,None,None,None,None,2749.745330097998,None,2749.745330097998,None,0,2749.745330097998,None,2750.313529987994,2751.7506510359817,None,None,0.3218036190082785,0.5245144430082291,,,,,,,,,,,,,113.0,1,19,1,2020_Feb_05_1203,Test,3.2.4,59.84182071169459
141,Pictures/IA100_L60.bmp,Pictures/IA100_L60.bmp,Pictures/IA100.bmp,"

You'd have a lot to lose, don't gamble.""""",0,safe,,,,,6.0,0.0,6.0,0.0,0.0,4.0,4.0,15.0,,,,,,,,,,,,,,,,,,,,,,,,,,,,,,,2751.767362999002,None,2753.789362629003,2755.3100371289765,2755.29333657198,None,2756.814005776978,None,2.0,2758.8192970169766,None,2758.8192970169766,None,2758.8192970169766,None,None,None,None,None,2760.1895778839826,None,2760.1895778839826,None,1,2760.1895778839826,None,None,None,2760.7243179649813,2762.194859580981,1.186549918988021,0.4962548940093257,,,,,,,,,,,,,113.0,1,19,1,2020_Feb_05_1203,Test,3.2.4,59.841820711694595
142,Pictures/IA50_L30.bmp,Pictures/IA50_L30.bmp,Pictures/IA50.bmp,"

Take a leap, I think you should gamble.""""",1,risk,,,,,6.0,0.0,6.0,0.0,0.0,5.0,5.0,5.0,,,,,,,,,,,,,,,,,,,,,,,,,,,,,,,2762.211571939988,None,2764.233571485005,2765.754247953999,2765.7375432319823,None,2767.258221178985,None,2.0,2769.2635077809973,None,2769.2635077809973,None,2769.2635077809973,None,None,None,None,None,2770.8677421929897,None,2770.8677421929897,None,1,2770.8677421929897,None,None,None,2771.8035350949795,2772.8730245250044,1.4143346839991864,0.8900926430069376,,,,,,,,,,,,,113.0,1,19,1,2020_Feb_05_1203,Test,3.2.4,59.841820711694595
143,Pictures/IA100_G20.bmp,Pictures/IA100_G20.bmp,Pictures/IA100.bmp,"

Go ahead and gamble!""""",1,risk,,,,,6.0,0.0,6.0,0.0,0.0,6.0,6.0,0.0,,,,,,,,,,,,,,,,,,,,,,,,,,,,,,,2772.889732976997,None,2774.9117318409844,2776.4324095999764,2776.4157011529896,None,2777.9196669579833,None,2.0,2779.941666498984,None,2779.941666498984,None,2779.941666498984,None,None,None,None,None,2780.9610291929857,None,2780.9610291929857,None,1,2780.9610291929857,None,None,None,2781.629448830994,2782.966310942982,0.8641695819969755,0.6288010969874449,,,,,,,,,,,,,113.0,1,19,1,2020_Feb_05_1203,Test,3.2.4,59.84182071169459
144,Pictures/IA20_10_L95p.bmp,Pictures/IA20_10_L95p.bmp,Pictures/IA20.bmp,"

Don't be tempted to gamble.""""",0,safe,,,,,6.0,0.0,6.0,0.0,0.0,7.0,7.0,4.0,,,,,,,,,,,,,,,,,,,,,,,,,,,,,,,2782.983018611005,None,2785.005018700991,2786.5256960379775,2786.5089861449956,None,2788.0296629130025,None,2.0,2790.0349530669923,None,2790.034953066992,None,2790.034953066992,None,None,None,None,None,2790.519565843977,None,2790.519565843977,None,1,2790.519565843977,None,None,None,2791.221410615981,2792.5248499089794,0.3149132179969456,0.6542702269798609,,,,,,,,,,,,,113.0,1,19,1,2020_Feb_05_1203,Test,3.2.4,59.84182071169459
145,Pictures/IA25_L20.bmp,Pictures/IA25_L20.bmp,Pictures/IA25.bmp,"

Don't be tempted to gamble.""""",0,safe,,,,,6.0,0.0,6.0,0.0,0.0,8.0,8.0,1.0,,,,,,,,,,,,,,,,,,,,,,,,,,,,,,,2792.54155949899,None,2794.5635599819943,2796.084238123993,2796.067528004991,None,2797.5882099339797,None,2.0,2799.5934937039856,None,2799.5934937039856,None,2799.5934937039856,None,None,None,None,None,2800.729828712996,None,2800.729828712996,None,0,2800.729828712996,None,2801.3146963109903,2802.718398525991,None,None,1.0043563810177147,0.5400092609925196,,,,,,,,,,,,,113.0,1,19,1,2020_Feb_05_1203,Test,3.2.4,59.84182071169459
146,Pictures/IA100_G40.bmp,Pictures/IA100_G40.bmp,Pictures/IA100.bmp,"

Try your luck and gamble!""""",1,risk,,,,,6.0,0.0,6.0,0.0,0.0,9.0,9.0,8.0,,,,,,,,,,,,,,,,,,,,,,,,,,,,,,,2802.7351126799767,None,2804.7571120289795,2806.277785771002,2806.2610768759914,None,2807.781758291996,None,2.0,2809.787051486987,None,2809.7870514869865,None,2809.7870514869865,None,None,None,None,None,2810.8565298369795,None,2810.8565298369795,None,0,2810.8565298369795,None,2811.558378850983,2812.861816962977,None,None,0.9147913689957932,0.6533137230144348,,,,,,,,,,,,,113.0,1,19,1,2020_Feb_05_1203,Test,3.2.4,59.84182071169459
147,Pictures/IA25_G10.bmp,Pictures/IA25_G10.bmp,Pictures/IA25.bmp,"

What's life without a little risk?""""",1,risk,,,,,6.0,0.0,6.0,0.0,0.0,10.0,10.0,2.0,,,,,,,,,,,,,,,,,,,,,,,,,,,,,,,2812.8785248399945,None,2814.9005296709947,2816.4212012719945,2816.404497262003,None,2817.925171887997,None,1.0,2819.9304595830035,None,2819.9304595830035,None,2819.9304595830035,None,2822.8882625259866,None,2822.8882625259866,2823.890900664992,2825.0272391850012,None,2825.0272391850012,None,0,2825.0272391850012,None,2825.34475103399,2827.0158083169954,None,None,2.8273847970122006,0.2825919669994619,,,,,,,,,,,,,113.0,1,19,1,2020_Feb_05_1203,Test,3.2.4,59.84182071169459
148,Pictures/IA50_G30.bmp,Pictures/IA50_G30.bmp,Pictures/IA50.bmp,"

I think you should gamble.""""",1,risk,,,,,6.0,0.0,6.0,0.0,0.0,11.0,11.0,18.0,,,,,,,,,,,,,,,,,,,,,,,,,,,,,,,2827.0325189249997,None,2829.0544902469846,2830.5751972279973,2830.558489515999,None,2832.0958818949875,None,2.0,2834.0844545610016,None,2834.0844545610016,None,2834.0844545610016,None,None,None,None,None,2835.2040735699993,None,2835.2040735699993,None,1,2835.2040735699993,None,None,None,2835.855793989991,2837.1926466559817,0.9613891630142462,0.6177637020009571,,,,,,,,,,,,,113.0,1,19,1,2020_Feb_05_1203,Test,3.2.4,59.84182071169459
149,Pictures/IA110_55_G95p.bmp,Pictures/IA110_55_G95p.bmp,Pictures/IA110.bmp,"

Take a chance!""""",1,risk,,,,,6.0,0.0,6.0,0.0,0.0,12.0,12.0,19.0,,,,,,,,,,,,,,,,,,,,,,,,,,,,,,,2837.209362013993,None,2839.231360207981,2840.7520344659856,2840.735328462004,None,2842.256002651993,None,2.0,2844.2612943609997,None,2844.261294361,None,2844.261294361,None,None,None,None,None,2845.1302566509985,None,2845.1302566509985,None,0,2845.1302566509985,None,2845.8153891020047,2847.118826327991,None,None,0.7125491930055432,0.6435789630049841,,,,,,,,,,,,,113.0,1,19,1,2020_Feb_05_1203,Test,3.2.4,59.84182071169459
150,Pictures/IA25_L5.bmp,Pictures/IA25_L5.bmp,Pictures/IA25.bmp,"

It would be smarter to choose the safe option.""""",0,safe,,,,,6.0,0.0,6.0,0.0,0.0,13.0,13.0,16.0,,,,,,,,,,,,,,,,,,,,,,,,,,,,,,,2847.1355082499795,None,2849.1575395239925,2850.6782134090026,2850.661509375001,None,2852.182181576005,None,2.0,2854.1874718579934,None,2854.187471857993,None,2854.187471857993,None,None,None,None,None,2855.3739489979926,None,2855.3739489979926,None,0,2855.3739489979926,None,2855.992227815994,2857.3625363519823,None,None,1.010372493008617,0.5838911070022732,,,,,,,,,,,,,113.0,1,19,1,2020_Feb_05_1203,Test,3.2.4,59.84182071169459
151,Pictures/IA25_L10.bmp,Pictures/IA25_L10.bmp,Pictures/IA25.bmp,"

Dont be afraid to take the risk!""""",1,risk,,,,,6.0,0.0,6.0,0.0,0.0,14.0,14.0,10.0,,,,,,,,,,,,,,,,,,,,,,,,,,,,,,,2857.379222752992,None,2859.401222815999,2860.9219027909858,2860.905191024998,None,2862.4258727659762,None,2.0,2864.4311604809773,None,2864.4311604809773,None,2864.4311604809773,None,None,None,None,None,2866.1022279949975,None,2866.1022279949975,None,0,2866.1022279949975,None,2867.1884301980026,None,None,None,1.4946818120079115,1.0396112140151672,,,,,,,,,,,,,113.0,1,19,1,2020_Feb_05_1203,Test,3.2.4,59.84182071169459
152,Pictures/IA100_G60.bmp,Pictures/IA100_G60.bmp,Pictures/IA100.bmp,"

Be cautious, don't gamble for this one.""""",0,safe,,,,,6.0,0.0,6.0,0.0,0.0,15.0,15.0,9.0,,,,,,,,,,,,,,,,,,,,,,,,,,,,,,,2868.107513058989,None,2870.1295129969953,2871.650190376997,2871.633482284,None,2873.154157833982,None,2.0,2875.159448837978,None,2875.159448837978,None,2875.159448837978,None,None,None,None,None,2877.73290490199,None,2877.73290490199,None,0,2877.73290490199,None,2878.351206466992,2879.721480309003,None,None,2.3983957119926345,0.5769362889986951,,,,,,,,,,,,,113.0,1,19,1,2020_Feb_05_1203,Test,3.2.4,59.841820711694595
153,Pictures/IA20_10_G95p.bmp,Pictures/IA20_10_G95p.bmp,Pictures/IA20.bmp,"

Take a leap, I think you should gamble.""""",1,risk,,,,,6.0,0.0,6.0,0.0,0.0,16.0,16.0,14.0,,,,,,,,,,,,,,,,,,,,,,,,,,,,,,,2879.738186364004,None,2881.760215197981,2883.2808607000043,2883.2641557449824,None,2884.768120749999,None,2.0,2886.790122782986,None,2886.790122782986,None,2886.790122782986,None,None,None,None,None,2887.876288222993,None,2887.876288222993,None,0,2887.876288222993,None,2888.6282991390035,2889.8648940690036,None,None,0.903727168974001,0.7135471749934368,,,,,,,,,,,,,113.0,1,19,1,2020_Feb_05_1203,Test,3.2.4,59.841820711694595
154,Pictures/IA75_G45.bmp,Pictures/IA75_G45.bmp,Pictures/IA75.bmp,"

Don't gamble for this one.""""",0,safe,,,,,6.0,0.0,6.0,0.0,0.0,17.0,17.0,3.0,,,,,,,,,,,,,,,,,,,,,,,,,,,,,,,2889.8816045690037,None,2891.9036061259976,2893.424281275977,2893.4075741519923,None,2894.9282525960007,None,2.0,2896.9335387180035,None,2896.9335387180035,None,2896.9335387180035,None,None,None,None,None,2897.7523703709885,None,2897.7523703709885,None,0,2897.7523703709885,None,2898.4709239539807,2899.7409381949983,None,None,0.6243080630083568,0.677465469983872,,,,,,,,,,,,,113.0,1,19,1,2020_Feb_05_1203,Test,3.2.4,59.84182071169459
155,Pictures/IA75_L60.bmp,Pictures/IA75_L60.bmp,Pictures/IA75.bmp,"

Why not take the gamble?""""",1,risk,,,,,6.0,0.0,6.0,0.0,0.0,18.0,18.0,17.0,,,,,,,,,,,,,,,,,,,,,,,,,,,,,,,2899.757649335981,None,2901.7796562659787,2903.300326543977,2903.2836189309887,None,2904.8042958570004,None,2.0,2906.8095860639883,None,2906.809586063988,None,2906.809586063988,None,None,None,None,None,2907.5281471269845,None,2907.5281471269845,None,1,2907.5281471269845,None,None,None,2908.2467055759917,2909.516721345979,0.5402595300110988,0.6776897720119449,,,,,,,,,,,,,113.0,1,19,1,2020_Feb_05_1203,Test,3.2.4,59.84182071169459
156,Pictures/IA80_40_L95p.bmp,Pictures/IA80_40_L95p.bmp,Pictures/IA80.bmp,"

Let's stay with the certain option.""""",0,safe,,,,,6.0,0.0,6.0,0.0,0.0,19.0,19.0,12.0,,,,,,,,,,,,,,,,,,,,,,,,,,,,,,,2909.533432822005,None,2911.5554378419765,2913.07610926099,2913.0594154379796,None,2914.5800770880014,None,2.0,2916.58536889698,None,2916.58536889698,None,2916.58536889698,None,None,None,None,None,2918.4235489919956,None,2918.4235489919956,None,1,2918.4235489919956,None,None,None,2919.2256591829937,2920.428829127981,1.6684876779909246,0.7582931980141439,,,,,,,,,,,,,113.0,1,19,1,2020_Feb_05_1203,Test,3.2.4,59.84182071169459
158,Pictures/IA100_G60.bmp,Pictures/IA100_G60.bmp,Pictures/IA100.bmp,"

Be cautious, don't gamble for this one.""""",0,safe,,,,,7.0,0.0,7.0,0.0,0.0,0.0,0.0,8.0,,,,,,,,,,,,,2923.3365293589886,None,2923.3365293589886,None,2923.3365293589886,None,0,1.445297848986229,2923.3365293589886,None,2923.3365293589886,None,2923.3365293589886,None,return,3.1331534650234976,2923.3365293589886,None,2926.5282539299806,None,2928.533542950987,2930.0542183349894,2930.0375124749844,None,2931.5414780179854,None,2.0,2933.54676670098,None,2933.54676670098,None,2933.54676670098,None,None,None,None,None,2934.248581363994,None,2934.248581363994,None,1,2934.248581363994,None,None,None,2934.7666463889764,2936.237193973997,0.5310686830198392,0.4772533709765412,,,,,,,,,,,,,113.0,1,19,1,2020_Feb_05_1203,Test,3.2.4,59.841820711694595
159,Pictures/IA25_G15.bmp,Pictures/IA25_G15.bmp,Pictures/IA25.bmp,"

I think you should take a gamble.""""",1,risk,,,,,7.0,0.0,7.0,0.0,0.0,1.0,1.0,2.0,,,,,,,,,,,,,,,,,,,,,,,,,,,,,,,2936.2539024509897,None,2938.2759072069894,2939.7965801429823,2939.7798736440022,None,2941.3005469929776,None,2.0,2943.305842925998,None,2943.305842925998,None,2943.305842925998,None,None,None,None,None,2943.7737392979907,None,2943.7737392979907,None,1,2943.7737392979907,None,None,None,2944.0578188549844,2945.762316259992,0.2599991980241612,1.6000988690066151,,,,,,,,,,,,,113.0,1,19,1,2020_Feb_05_1203,Test,3.2.4,59.84182071169459
160,Pictures/IA50_G40.bmp,Pictures/IA50_G40.bmp,Pictures/IA50.bmp,"

It would probably be best to play it safe.""""",0,safe,,,,,7.0,0.0,7.0,0.0,0.0,2.0,2.0,7.0,,,,,,,,,,,,,,,,,,,,,,,,,,,,,,,2945.779023890005,None,2947.8010271739913,2949.3217025839836,2949.3049958399793,None,2950.80895975398,None,2.0,2952.830961464002,None,2952.830961464002,None,2952.830961464002,None,None,None,None,None,2953.098331312998,None,2953.098331312998,None,1,2953.098331312998,None,None,None,2953.3155678850017,2955.1036203609838,0.09489131200825797,1.8435235030192416,,,,,,,,,,,,,113.0,1,19,1,2020_Feb_05_1203,Test,3.2.4,59.84182071169459
161,Pictures/IA100_L20.bmp,Pictures/IA100_L20.bmp,Pictures/IA100.bmp,"

Try to win as much money as you can, gamble!""""",1,risk,,,,,7.0,0.0,7.0,0.0,0.0,3.0,3.0,12.0,,,,,,,,,,,,,,,,,,,,,,,,,,,,,,,2955.1203305060044,None,2957.1423285389897,2958.663010628981,2958.646296035993,None,2960.1502622189873,None,2.0,2962.1722625919792,None,2962.1722625919792,None,2962.1722625919792,None,None,None,None,None,2962.389503243001,None,2962.389503243001,None,1,2962.389503243001,None,None,None,2962.590028384002,2964.394790295977,0.02558645000681281,1.8403320649813395,,,,,,,,,,,,,113.0,1,19,1,2020_Feb_05_1203,Test,3.2.4,59.841820711694595
162,Pictures/IA40_20_L95p.bmp,Pictures/IA40_20_L95p.bmp,Pictures/IA40.bmp,"

Trust me, gamble!""""",1,risk,,,,,7.0,0.0,7.0,0.0,0.0,4.0,4.0,18.0,,,,,,,,,,,,,,,,,,,,,,,,,,,,,,,2964.411500065995,None,2966.433518881997,2967.954179591994,2967.9374678719905,None,2969.458149574988,None,2.0,2971.4634383109806,None,2971.4634383109806,None,2971.4634383109806,None,None,None,None,None,2971.8644913259777,None,2971.8644913259777,None,1,2971.8644913259777,None,None,None,2972.0650197950017,2973.869777504995,0.24642861098982394,1.9493357620085592,,,,,,,,,,,,,113.0,1,19,1,2020_Feb_05_1203,Test,3.2.4,59.841820711694595
163,Pictures/IA20_10_L95p.bmp,Pictures/IA20_10_L95p.bmp,Pictures/IA20.bmp,"

Don't be tempted to gamble.""""",0,safe,,,,,7.0,0.0,7.0,0.0,0.0,5.0,5.0,19.0,,,,,,,,,,,,,,,,,,,,,,,,,,,,,,,2973.886490502977,None,2975.9084909509984,2977.4291738710017,2977.412483594002,None,2978.933129054989,None,2.0,2980.938420041988,None,2980.938420041988,None,2980.938420041988,None,None,None,None,None,2981.389611869992,None,2981.389611869992,None,0,2981.389611869992,None,2981.5232962610025,2983.3949115329888,None,None,0.2834224100224674,0.09622104198206216,,,,,,,,,,,,,113.0,1,19,1,2020_Feb_05_1203,Test,3.2.4,59.84182071169459
164,Pictures/IA100_G40.bmp,Pictures/IA100_G40.bmp,Pictures/IA100.bmp,"

Try your luck and gamble!""""",1,risk,,,,,7.0,0.0,7.0,0.0,0.0,6.0,6.0,6.0,,,,,,,,,,,,,,,,,,,,,,,,,,,,,,,2983.411609264993,None,2985.4336105539987,2986.954286780005,2986.937583730003,None,2988.4415432020032,None,2.0,2990.463549573993,None,2990.463549573993,None,2990.463549573993,None,None,None,None,None,2991.148683819978,None,2991.148683819978,None,1,2991.148683819978,None,None,None,2991.2489463039965,2993.1539698209963,0.5342833370086737,1.9691433330008292,,,,,,,,,,,,,113.0,1,19,1,2020_Feb_05_1203,Test,3.2.4,59.84182071169459
165,Pictures/IA50_G20.bmp,Pictures/IA50_G20.bmp,Pictures/IA50.bmp,"

Let's venture and take a risk!""""",1,risk,,,,,7.0,0.0,7.0,0.0,0.0,7.0,7.0,14.0,,,,,,,,,,,,,,,,,,,,,,,,,,,,,,,2993.1706800679967,None,2995.1926811299927,2996.7133575500047,2996.696646892,None,2998.2173270019994,None,2.0,3000.2226180739813,None,3000.2226180739817,None,3000.2226180739817,None,None,None,None,None,3000.439855226985,None,3000.439855226985,None,1,3000.439855226985,None,None,None,3000.606961284997,3002.4451393729832,0.03923320400645025,1.045974379987456,,,,,,,,,,,,,113.0,1,19,1,2020_Feb_05_1203,Test,3.2.4,59.84182071169459
166,Pictures/IA100_L40.bmp,Pictures/IA100_L40.bmp,Pictures/IA100.bmp,"

Think of the payoff, gamble!""""",1,risk,,,,,7.0,0.0,7.0,0.0,0.0,8.0,8.0,17.0,,,,,,,,,,,,,,,,,,,,,,,,,,,,,,,3002.4618523129902,None,3004.4838530359852,3006.0045349329885,3005.9878249719914,None,3007.5085025939916,None,2.0,3009.513788758981,None,3009.513788758981,None,3009.513788758981,None,None,None,None,None,3009.8981333569973,None,3009.8981333569973,None,1,3009.8981333569973,None,None,None,3010.0318157309957,3011.9034203059855,0.2280692519852892,1.6836941450019367,,,,,,,,,,,,,113.0,1,19,1,2020_Feb_05_1203,Test,3.2.4,59.841820711694595
167,Pictures/IA110_55_G95p.bmp,Pictures/IA110_55_G95p.bmp,Pictures/IA110.bmp,"

