,Choice,Choice2,Amount,AdviceVar1,GambleAdviceNum,GambleAdviceType,practice.thisRepN,practice.thisTrialN,practice.thisN,practice.thisIndex,trials_2.thisRepN,trials_2.thisTrialN,trials_2.thisN,trials_2.thisIndex,trials.thisRepN,trials.thisTrialN,trials.thisN,trials.thisIndex,text.started,text.stopped,key_resp_4.keys,key_resp_4.rt,key_resp_4.started,key_resp_4.stopped,instructions.started,instructions.stopped,space.keys,space.rt,space.started,space.stopped,chooseInst.started,chooseInst.stopped,Ad1.started,Ad1.stopped,Ad2.started,Ad2.stopped,key_resp_3.keys,key_resp_3.rt,key_resp_3.started,key_resp_3.stopped,Ad1pic.started,Ad1pic.stopped,Ad2pic.started,Ad2pic.stopped,enter.keys,enter.rt,enter.started,enter.stopped,iSi.started,iSi.stopped,receiveMoneyPicture.started,receiveMoneyPicture.stopped,ISI2.started,ISI2.stopped,ChoicePic.started,ChoicePic.stopped,response.keys,response.rt,response.started,response.stopped,yesNo.started,yesNo.stopped,ask.started,ask.stopped,getAdv.started,getAdv.stopped,textForCode.started,textForCode.stopped,blank.started,blank.stopped,ChoicePic2.started,ChoicePic2.stopped,resp.keys,resp.rt,resp.started,resp.stopped,checkL1.started,checkL1.stopped,checkR1.started,checkR1.stopped,EndPrac.started,EndPrac.stopped,key_resp.keys,key_resp.rt,key_resp.started,key_resp.stopped,endText.started,endText.stopped,key_resp_2.keys,key_resp_2.rt,key_resp_2.started,key_resp_2.stopped,participant,session,age,gender,date,expName,psychopyVersion,frameRate
4,Pictures/IA50_G10.bmp,Pictures/IA50_G10.bmp,Pictures/IA50.bmp,"

Go with the safe option here!""""",0,safe,0,0.0,0.0,0.0,,,,,,,,,,,,,,,,,,,,,,,,,,,,,,,,,,,,,,,751.4041139479959,None,753.3759963359917,754.8799504439813,754.8632527630542,None,756.383937146049,None,1.0,2.0091791739687324,758.4393571569818,None,758.4393571569817,None,758.4393571569817,None,760.5950408839853,None,760.5950408839853,761.5976843860699,762.767442706041,None,762.767442706041,None,0,1.265076551004313,762.7674427060409,None,764.0708663270343,None,None,None,,,,,,,,,,,,,117.0,1,19,0,2020_Feb_26_1201,Test,3.2.4,59.83990778693342
5,Pictures/IA50_G30.bmp,Pictures/IA50_G30.bmp,Pictures/IA50.bmp,"

I think you should gamble.""""",1,risk,0,1.0,1.0,2.0,,,,,,,,,,,,,,,,,,,,,,,,,,,,,,,,,,,,,,,764.7894259970635,None,766.8114286049968,768.3321043760517,768.3154094620842,None,769.8862073300406,None,1.0,1.0151550309965387,771.8413775620284,None,771.8413775620284,None,771.8413775620284,None,772.977708942024,None,772.977708942024,773.9803517080145,775.0999759630067,None,775.0999759630067,None,1,1.3325478319311514,775.0999759630067,None,None,None,776.4702450900804,None,,,,,,,,,,,,,117.0,1,19,0,2020_Feb_26_1201,Test,3.2.4,59.83990778693342
6,Pictures/IA50_G20.bmp,Pictures/IA50_G20.bmp,Pictures/IA50.bmp,"

Let's venture and take a risk!""""",1,risk,0,2.0,2.0,1.0,,,,,,,,,,,,,,,,,,,,,,,,,,,,,,,,,,,,,,,777.1219614710426,None,779.1439645569772,780.6646399990422,780.6479486820754,None,782.2187426820165,None,1.0,0.2906204409664497,784.1739136669785,None,784.1739136669785,None,784.1739136669785,None,784.5749651259976,None,784.5749651259976,785.5776008190587,786.68051702308,None,786.68051702308,None,1,0.9680038100341335,786.68051702308,None,None,None,787.6831699520117,None,,,,,,,,,,,,,117.0,1,19,0,2020_Feb_26_1201,Test,3.2.4,59.83990778693342
7,Pictures/IA100_G40.bmp,Pictures/IA100_G40.bmp,Pictures/IA100.bmp,"

Try your luck and gamble!""""",1,risk,0,3.0,3.0,5.0,,,,,,,,,,,,,,,,,,,,,,,,,,,,,,,,,,,,,,,788.702513066004,None,790.7579379850067,792.2786141100805,792.2619217269821,None,793.7992930089822,None,1.0,0.2700655139051378,795.7544683510205,None,795.7544683510205,None,795.7544683510205,None,796.1388105800143,None,796.1388105800143,797.1414546400774,798.2443737700814,None,798.2443737700814,None,1,0.6521428249543533,798.2443737700813,None,None,None,798.9462118530646,800.2496567390626,,,,,,,,,,,,,117.0,1,19,0,2020_Feb_26_1201,Test,3.2.4,59.83990778693342
8,Pictures/IA50_G40.bmp,Pictures/IA50_G40.bmp,Pictures/IA50.bmp,"

It would probably be best to play it safe.""""",0,safe,0,4.0,4.0,3.0,,,,,,,,,,,,,,,,,,,,,,,,,,,,,,,,,,,,,,,800.2663561980007,None,802.2883574770531,803.8090363920201,803.7923406950432,None,805.3631383000175,None,1.0,0.8982336720218882,807.3183090949898,None,807.3183090949897,None,807.3183090949897,None,808.3710739139933,None,808.3710739139933,809.3737193390261,810.5100542540895,None,810.5100542540895,None,0,0.8664603390498087,810.5100542540895,None,811.4124470769893,812.5153414619854,None,None,,,,,,,,,,,,,117.0,1,19,0,2020_Feb_26_1201,Test,3.2.4,59.83990778693342
9,Pictures/IA100_G20.bmp,Pictures/IA100_G20.bmp,Pictures/IA100.bmp,"

Go ahead and gamble!""""",1,risk,0,5.0,5.0,4.0,,,,,,,,,,,,,,,,,,,,,,,,,,,,,,,,,,,,,,,812.5320629030466,None,814.5540654960787,816.0747427659807,816.0580226390158,None,817.62884502206,None,1.0,1.0645372739527377,819.5839929860084,None,819.5839929860085,None,819.5839929860085,None,820.7370477879886,None,820.7370477879886,821.7396919910097,822.8760249350453,None,822.8760249350453,None,0,0.5004960569785908,822.8760249350453,None,823.4107523349812,824.8812991420273,None,None,,,,,,,,,,,,,117.0,1,19,0,2020_Feb_26_1201,Test,3.2.4,59.83990778693342
11,Pictures/IA20_10_G95p.bmp,Pictures/IA20_10_G95p.bmp,Pictures/IA20.bmp,"

Take a leap, I think you should gamble.""""",1,risk,,,,,0.0,0.0,0.0,0.0,0.0,0.0,0.0,6.0,,,,,,,,,,,,,845.953583355993,None,845.953583355993,None,845.953583355993,None,0,2.942947620991617,845.953583355993,None,845.953583355993,None,845.953583355993,None,return,4.054837803007104,845.953583355993,None,850.0811368420254,None,852.1031403890811,853.6238169500139,853.6070970660076,None,855.1277740030782,None,1.0,1.6855601089773702,857.0829521120759,None,857.0829521120759,None,857.0829521120759,None,858.9044233880704,None,858.9044233880704,859.9070636590477,861.0099775750423,None,861.0099775750423,None,None,,861.0099775750423,None,None,None,None,None,,,,,,,,,,,,,117.0,1,19,0,2020_Feb_26_1201,Test,3.2.4,59.83990778693342
12,Pictures/IA110_55_G95p.bmp,Pictures/IA110_55_G95p.bmp,Pictures/IA110.bmp,"

Take a chance!""""",1,risk,,,,,0.0,0.0,0.0,0.0,0.0,1.0,1.0,4.0,,,,,,,,,,,,,,,,,,,,,,,,,,,,,,,863.0152634780388,None,865.0706915820483,866.5746438830392,866.557950315997,None,868.11204765609,None,1.0,0.917333232006058,870.0672048740089,None,870.0672048740089,None,870.0672048740089,None,871.0698444240261,None,871.0698444240261,872.0724851520499,873.1753976150649,None,873.1753976150649,None,0,0.6811244849814102,873.1753976150649,None,873.8939621570753,875.1639755680226,None,None,,,,,,,,,,,,,117.0,1,19,0,2020_Feb_26_1201,Test,3.2.4,59.83990778693342
13,Pictures/IA100_G80.bmp,Pictures/IA100_G80.bmp,Pictures/IA100.bmp,"

Why not gamble?""""",1,risk,,,,,0.0,0.0,0.0,0.0,0.0,2.0,2.0,10.0,,,,,,,,,,,,,,,,,,,,,,,,,,,,,,,875.1806995139923,None,877.2027042750269,878.7233808680902,878.7066611010814,None,880.2774875550531,None,1.0,1.38389553304296,882.2326342710294,None,882.2326342710294,None,882.2326342710294,None,883.7031446590554,None,883.7031446590554,884.7058239770122,885.8087386600673,None,885.8087386600673,None,1,0.7437829009722918,885.8087386600673,None,None,None,886.5941382880555,887.7973165350268,,,,,,,,,,,,,117.0,1,19,0,2020_Feb_26_1201,Test,3.2.4,59.83990778693342
14,Pictures/IA100_L80.bmp,Pictures/IA100_L80.bmp,Pictures/IA100.bmp,"

Go all in!""""",1,risk,,,,,0.0,0.0,0.0,0.0,0.0,3.0,3.0,7.0,,,,,,,,,,,,,,,,,,,,,,,,,,,,,,,887.8140359040117,None,889.8360420840327,891.3567208980676,891.3400001900737,None,892.927531197085,None,1.0,1.0465657400200143,894.8659831760451,None,894.8659831760451,None,894.8659831760451,None,896.0023136719828,None,896.0023136719828,897.0049567630049,898.1580055690138,None,898.1580055690138,None,1,1.7305176529334858,898.1580055690139,None,None,None,899.9293287490727,None,,,,,,,,,,,,,117.0,1,19,0,2020_Feb_26_1201,Test,3.2.4,59.83990778693342
15,Pictures/IA100_L20.bmp,Pictures/IA100_L20.bmp,Pictures/IA100.bmp,"

Try to win as much money as you can, gamble!""""",1,risk,,,,,0.0,0.0,0.0,0.0,0.0,4.0,4.0,17.0,,,,,,,,,,,,,,,,,,,,,,,,,,,,,,,900.1799901879858,None,902.2019945679933,903.722672400996,903.705977151054,None,905.2767792780651,None,1.0,0.9285914959618822,907.2319534820272,None,907.2319534820272,None,907.2319534820272,None,908.3181349870283,None,908.3181349870283,909.3207823180128,910.4236936920788,None,910.4236936920788,None,1,1.4648277659434823,910.4236936920788,None,None,None,911.9276727450779,None,,,,,,,,,,,,,117.0,1,19,0,2020_Feb_26_1201,Test,3.2.4,59.83990778693342
16,Pictures/IA25_L15.bmp,Pictures/IA25_L15.bmp,Pictures/IA25.bmp,"

There's not much on the line here, gamble!""""",1,risk,,,,,0.0,0.0,0.0,0.0,0.0,5.0,5.0,9.0,,,,,,,,,,,,,,,,,,,,,,,,,,,,,,,912.445703946054,None,914.4844312660863,915.9883737040218,915.9716816430446,None,917.5424796140287,None,2.0,1.4228654500329867,919.4976591080194,None,919.4976591080194,None,919.4976591080194,None,None,None,None,None,921.1018733810633,None,921.1018733810633,None,0,0.5466448040679097,921.1018733810633,None,921.6867762620095,923.0904506290099,None,None,,,,,,,,,,,,,117.0,1,19,0,2020_Feb_26_1201,Test,3.2.4,59.83990778693342
17,Pictures/IA75_L30.bmp,Pictures/IA75_L30.bmp,Pictures/IA75.bmp,"

Hold back, stay with the safe choice.""""",0,safe,,,,,0.0,0.0,0.0,0.0,0.0,6.0,6.0,1.0,,,,,,,,,,,,,,,,,,,,,,,,,,,,,,,923.107178742066,None,925.1626016789813,926.6665563760324,926.6498584910296,None,928.1705077770166,None,1.0,0.8734240609919652,930.1591098339995,None,930.1591098339995,None,930.1591098339995,None,931.1784698080737,None,931.1784698080737,932.1811085310765,933.2840295049828,None,933.2840295049828,None,0,0.516490634996444,933.2840295049828,None,933.8355015839916,935.272609731066,None,None,,,,,,,,,,,,,117.0,1,19,0,2020_Feb_26_1201,Test,3.2.4,59.83990778693342
18,Pictures/IA25_L5.bmp,Pictures/IA25_L5.bmp,Pictures/IA25.bmp,"

It would be smarter to choose the safe option.""""",0,safe,,,,,0.0,0.0,0.0,0.0,0.0,7.0,7.0,14.0,,,,,,,,,,,,,,,,,,,,,,,,,,,,,,,935.2893121760571,None,937.3113202040549,938.8152858130634,938.7985885610104,None,940.3861208449816,None,1.0,0.7872712250100449,942.3412662909833,None,942.3412662909832,None,942.3412662909832,None,943.2770754430676,None,943.2770754430676,944.2797211640282,945.3826331200544,None,945.3826331200544,None,1,0.5298862570198253,945.3826331200543,None,None,None,945.9507831130177,947.3879220320377,,,,,,,,,,,,,117.0,1,19,0,2020_Feb_26_1201,Test,3.2.4,59.83990778693342
19,Pictures/IA50_G20.bmp,Pictures/IA50_G20.bmp,Pictures/IA50.bmp,"

Let's venture and take a risk!""""",1,risk,,,,,0.0,0.0,0.0,0.0,0.0,8.0,8.0,3.0,,,,,,,,,,,,,,,,,,,,,,,,,,,,,,,947.4046207370702,None,949.4266233450035,950.947304639034,950.9306091320468,None,952.4512732949806,None,1.0,0.6719656899804249,954.4565686880377,None,954.4565686880378,None,954.4565686880378,None,955.2586851490196,None,955.2586851490196,956.261327141081,957.364245085977,None,957.364245085977,None,0,0.5562915250193328,957.364245085977,None,957.9658388510579,959.3695321390405,None,None,,,,,,,,,,,,,117.0,1,19,0,2020_Feb_26_1201,Test,3.2.4,59.83990778693342
20,Pictures/IA100_L40.bmp,Pictures/IA100_L40.bmp,Pictures/IA100.bmp,"

Think of the payoff, gamble!""""",1,risk,,,,,0.0,0.0,0.0,0.0,0.0,9.0,9.0,15.0,,,,,,,,,,,,,,,,,,,,,,,,,,,,,,,959.3862552250503,None,961.4082598610547,962.9289393350482,962.9122222850565,None,964.4997663660906,None,1.0,0.5383302969858049,966.4382061010692,None,966.4382061010692,None,966.4382061010692,None,967.1066402139841,None,967.1066402139841,968.1092815790325,969.2121954410104,None,969.2121954410104,None,1,1.2203207489801569,969.2121954410104,None,None,None,970.4822135199793,None,,,,,,,,,,,,,117.0,1,19,0,2020_Feb_26_1201,Test,3.2.4,59.83990778693342
21,Pictures/IA20_10_L95p.bmp,Pictures/IA20_10_L95p.bmp,Pictures/IA20.bmp,"

Don't be tempted to gamble.""""",0,safe,,,,,0.0,0.0,0.0,0.0,0.0,10.0,10.0,5.0,,,,,,,,,,,,,,,,,,,,,,,,,,,,,,,971.2341930510011,None,973.2561972930562,974.7768763880013,974.7601549130632,None,976.3309921619948,None,1.0,0.5863916969392449,978.2861316060879,None,978.286131606088,None,978.286131606088,None,979.0047085430706,None,979.0047085430706,980.0073486320907,981.1102635350544,None,981.1102635350544,None,1,0.8422631280263886,981.1102635350543,None,None,None,981.9959307470126,983.098829713068,,,,,,,,,,,,,117.0,1,19,0,2020_Feb_26_1201,Test,3.2.4,59.83990778693342
22,Pictures/IA100_G40.bmp,Pictures/IA100_G40.bmp,Pictures/IA100.bmp,"

Try your luck and gamble!""""",1,risk,,,,,0.0,0.0,0.0,0.0,0.0,11.0,11.0,2.0,,,,,,,,,,,,,,,,,,,,,,,,,,,,,,,983.1155529629905,None,985.1375589619856,986.6582402579953,986.6415174100548,None,988.1455001999857,None,1.0,0.6170332719339058,990.1674955880736,None,990.1674955880735,None,990.1674955880735,None,990.8860535180429,None,990.8860535180429,991.8886947550345,992.9916106470628,None,992.9916106470628,None,0,0.5609244499355555,992.9916106470627,None,993.593207746977,994.9969123990741,None,None,,,,,,,,,,,,,117.0,1,19,0,2020_Feb_26_1201,Test,3.2.4,59.83990778693342
23,Pictures/IA110_55_L95p.bmp,Pictures/IA110_55_L95p.bmp,Pictures/IA110.bmp,"

Trust me, gamble!""""",1,risk,,,,,0.0,0.0,0.0,0.0,0.0,12.0,12.0,13.0,,,,,,,,,,,,,,,,,,,,,,,,,,,,,,,995.0136107050348,None,997.0356173730687,998.5562946590362,998.5395998350577,None,1000.1271114969859,None,1.0,0.6549694900168106,1002.0655634420691,None,1002.0655634420691,None,1002.0655634420691,None,1002.8342682910152,None,1002.8342682910152,1003.8369111310458,1004.9398270460078,None,1004.9398270460078,None,1,0.2606869699666277,1004.9398270460078,None,None,None,1005.2406072240556,1006.9451162560144,,,,,,,,,,,,,117.0,1,19,0,2020_Feb_26_1201,Test,3.2.4,59.83990778693342
24,Pictures/IA50_G30.bmp,Pictures/IA50_G30.bmp,Pictures/IA50.bmp,"

I think you should gamble.""""",1,risk,,,,,0.0,0.0,0.0,0.0,0.0,13.0,13.0,8.0,,,,,,,,,,,,,,,,,,,,,,,,,,,,,,,1006.9618212450296,None,1008.9838198650395,1010.5045026990119,1010.4878175880293,None,1011.9917620649794,None,1.0,1.0907553050201386,1014.0137801320523,None,1014.0137801320525,None,1014.0137801320525,None,1015.2169409040362,None,1015.2169409040362,1016.2195975210052,1017.3559230940882,None,1017.3559230940882,None,1,0.5005951180355623,1017.3559230940883,None,None,None,1017.8906753920019,1019.3612120110774,,,,,,,,,,,,,117.0,1,19,0,2020_Feb_26_1201,Test,3.2.4,59.83990778693342
25,Pictures/IA80_40_G95p.bmp,Pictures/IA80_40_G95p.bmp,Pictures/IA80.bmp,"

Think of the payoff, gamble!""""",1,risk,,,,,0.0,0.0,0.0,0.0,0.0,14.0,14.0,0.0,,,,,,,,,,,,,,,,,,,,,,,,,,,,,,,1019.3779350530822,None,1021.4166149860248,1022.9373329810334,1022.9206096560229,None,1024.474713984062,None,1.0,0.4906498350901529,1026.42988608405,None,1026.42988608405,None,1026.42988608405,None,1027.048171073082,None,1027.048171073082,1028.0508183530765,1029.153731508064,None,1029.153731508064,None,0,0.4387982089538127,1029.153731508064,None,1029.6383433310548,1031.142321530031,None,None,,,,,,,,,,,,,117.0,1,19,0,2020_Feb_26_1201,Test,3.2.4,59.83990778693342
26,Pictures/IA100_L60.bmp,Pictures/IA100_L60.bmp,Pictures/IA100.bmp,"

You'd have a lot to lose, don't gamble.""""",0,safe,,,,,0.0,0.0,0.0,0.0,0.0,15.0,15.0,12.0,,,,,,,,,,,,,,,,,,,,,,,,,,,,,,,1031.1590202120133,None,1033.1810269000707,1034.6850056920666,1034.6682870270452,None,1036.255810513976,None,1.0,0.6535525299841538,1038.2109845470404,None,1038.2109845470404,None,1038.2109845470404,None,1039.013093990041,None,1039.013093990041,1040.0157319230493,1041.1186489320826,None,1041.1186489320826,None,None,,1041.1186489320826,None,None,None,None,None,,,,,,,,,,,,,117.0,1,19,0,2020_Feb_26_1201,Test,3.2.4,59.83990778693342
27,Pictures/IA50_G10.bmp,Pictures/IA50_G10.bmp,Pictures/IA50.bmp,"

Go with the safe option here!""""",0,safe,,,,,0.0,0.0,0.0,0.0,0.0,16.0,16.0,11.0,,,,,,,,,,,,,,,,,,,,,,,,,,,,,,,1043.1239375560544,None,1045.1459489290137,1046.6666243580403,1046.6499320730802,None,1048.1705983000575,None,1.0,1.544641035026871,1050.1758921870496,None,1050.1758921870496,None,1050.1758921870496,None,1051.846972487052,None,1051.846972487052,1052.8496118520852,1053.9525284640258,None,1053.9525284640258,None,1,1.6159933919552714,1053.9525284640258,None,None,None,1055.6068934260402,None,,,,,,,,,,,,,117.0,1,19,0,2020_Feb_26_1201,Test,3.2.4,59.83990778693342
28,Pictures/IA25_L20.bmp,Pictures/IA25_L20.bmp,Pictures/IA25.bmp,"

Don't be tempted to gamble.""""",0,safe,,,,,0.0,0.0,0.0,0.0,0.0,17.0,17.0,18.0,,,,,,,,,,,,,,,,,,,,,,,,,,,,,,,1055.9578288500197,None,1057.9798356830142,1059.5005219990853,1059.4838043870404,None,1061.05461912998,None,1.0,0.9347520290175452,1063.0097720660272,None,1063.009772066027,None,1063.009772066027,None,1064.0625591879943,None,1064.0625591879943,1065.0652033430524,1066.1681216839934,None,1066.1681216839934,None,1,0.32040896196849644,1066.1681216839934,None,None,None,1066.535742682987,1068.1734082719777,,,,,,,,,,,,,117.0,1,19,0,2020_Feb_26_1201,Test,3.2.4,59.83990778693342
29,Pictures/IA50_L40.bmp,Pictures/IA50_L40.bmp,Pictures/IA50.bmp,"

That gamble doesn't sound too good, play it safe.""""",0,safe,,,,,0.0,0.0,0.0,0.0,0.0,18.0,18.0,16.0,,,,,,,,,,,,,,,,,,,,,,,,,,,,,,,1068.1901097510708,None,1070.2121150220048,1071.7327967360616,1071.7160974959843,None,1073.2869030160364,None,2.0,0.9024625200545416,1075.242074239999,None,1075.242074239999,None,1075.242074239999,None,None,None,None,None,1076.3282638189849,None,1076.3282638189849,None,1,0.032254514982923865,1076.3282638189849,None,None,None,1076.395118837012,1078.3335670520319,,,,,,,,,,,,,117.0,1,19,0,2020_Feb_26_1201,Test,3.2.4,59.83990778693342
30,Pictures/IA80_40_L95p.bmp,Pictures/IA80_40_L95p.bmp,Pictures/IA80.bmp,"

Let's stay with the certain option.""""",0,safe,,,,,0.0,0.0,0.0,0.0,0.0,19.0,19.0,19.0,,,,,,,,,,,,,,,,,,,,,,,,,,,,,,,1078.350264465087,None,1080.3722720870283,1081.8929536270443,1081.8762538949961,None,1083.4470567529788,None,2.0,0.8623055410571396,1085.402233261033,None,1085.402233261033,None,1085.402233261033,None,None,None,None,None,1086.438285783981,None,1086.438285783981,None,1,0.9542294429847971,1086.438285783981,None,None,None,1087.4409423570614,None,,,,,,,,,,,,,117.0,1,19,0,2020_Feb_26_1201,Test,3.2.4,59.83990778693342
32,Pictures/IA100_L80.bmp,Pictures/IA100_L80.bmp,Pictures/IA100.bmp,"

Go all in!""""",1,risk,,,,,1.0,0.0,1.0,0.0,0.0,0.0,0.0,17.0,,,,,,,,,,,,,1100.425210305024,None,1100.425210305024,None,1100.425210305024,None,1,2.4153122450225055,1100.425210305024,None,1100.425210305024,None,1100.425210305024,None,return,3.5991126280277967,1100.425210305024,None,1104.0681736840634,None,1106.0901820770232,1107.6108576509869,1107.5941442090552,None,1109.081398547045,None,1.0,1.7451182350050658,1111.1034239730798,None,1111.1034239730798,None,1111.1034239730798,None,1112.9248940600082,None,1112.9248940600082,1113.9275351180695,1115.0471646060469,None,1115.0471646060469,None,0,1.5133548750309274,1115.0471646060469,None,1116.6012626960874,None,None,None,,,,,,,,,,,,,117.0,1,19,0,2020_Feb_26_1201,Test,3.2.4,59.83990778693342
33,Pictures/IA100_L20.bmp,Pictures/IA100_L20.bmp,Pictures/IA100.bmp,"

Try to win as much money as you can, gamble!""""",1,risk,,,,,1.0,0.0,1.0,0.0,0.0,1.0,1.0,10.0,,,,,,,,,,,,,,,,,,,,,,,,,,,,,,,1117.052454649005,None,1119.0744630440604,1120.595142779057,1120.5784210690763,None,1122.08240650699,None,1.0,0.9361230860231444,1124.1044004670111,None,1124.1044004670111,None,1124.1044004670111,None,1125.1905990079977,None,1125.1905990079977,1126.1932419770164,1127.3629679000005,None,1127.3629679000005,None,1,1.3255566739244389,1127.3629679000005,None,None,None,1128.7332959109917,None,,,,,,,,,,,,,117.0,1,19,0,2020_Feb_26_1201,Test,3.2.4,59.83990778693342
34,Pictures/IA100_G80.bmp,Pictures/IA100_G80.bmp,Pictures/IA100.bmp,"

Why not gamble?""""",1,risk,,,,,1.0,0.0,1.0,0.0,0.0,2.0,2.0,15.0,,,,,,,,,,,,,,,,,,,,,,,,,,,,,,,1129.3850014560157,None,1131.4070111330366,1132.9276910710616,1132.9109949420672,None,1134.4316640190082,None,1.0,1.1875658950302748,1136.4369606809923,None,1136.4369606809923,None,1136.4369606809923,None,1137.7236995210405,None,1137.7236995210405,1138.7263497760287,1139.8459737430094,None,1139.8459737430094,None,0,0.8985407159198076,1139.8459737430094,None,1140.7817617630353,1141.8512528480496,None,None,,,,,,,,,,,,,117.0,1,19,0,2020_Feb_26_1201,Test,3.2.4,59.83990778693342
35,Pictures/IA50_L40.bmp,Pictures/IA50_L40.bmp,Pictures/IA50.bmp,"

That gamble doesn't sound too good, play it safe.""""",0,safe,,,,,1.0,0.0,1.0,0.0,0.0,3.0,3.0,11.0,,,,,,,,,,,,,,,,,,,,,,,,,,,,,,,1141.8679799609818,None,1143.88998226705,1145.4106625220738,1145.39394244703,None,1146.9200421880232,None,1.0,1.21659530303441,1148.9199272260303,None,1148.9199272260303,None,1148.9199272260303,None,1150.2902196650393,None,1150.2902196650393,1151.2928629810922,1152.429203010979,None,1152.429203010979,None,0,0.8593189679086208,1152.429203010979,None,1153.3315659150248,1154.4344897780102,None,None,,,,,,,,,,,,,117.0,1,19,0,2020_Feb_26_1201,Test,3.2.4,59.83990778693342
36,Pictures/IA40_20_G95p.bmp,Pictures/IA40_20_G95p.bmp,Pictures/IA40.bmp,"

Hold back, stay with the safe choice.""""",0,safe,,,,,1.0,0.0,1.0,0.0,0.0,4.0,4.0,6.0,,,,,,,,,,,,,,,,,,,,,,,,,,,,,,,1154.4511879860656,None,1156.5066187700722,1158.027297438006,1158.0106024750276,None,1159.5479820710607,None,1.0,0.617369526065886,1161.5031595450127,None,1161.5031595450127,None,1161.5031595450127,None,1162.2551429329906,None,1162.2551429329906,1163.2577871819958,1164.3607049760176,None,1164.3607049760176,None,0,0.32782463904004544,1164.3607049760176,None,1164.7283242749982,1166.3659884800436,None,None,,,,,,,,,,,,,117.0,1,19,0,2020_Feb_26_1201,Test,3.2.4,59.83990778693342
37,Pictures/IA25_L10.bmp,Pictures/IA25_L10.bmp,Pictures/IA25.bmp,"

Dont be afraid to take the risk!""""",1,risk,,,,,1.0,0.0,1.0,0.0,0.0,5.0,5.0,7.0,,,,,,,,,,,,,,,,,,,,,,,,,,,,,,,1166.3826979170553,None,1168.4047010000795,1169.925381210982,1169.9086861520773,None,1171.479487137054,None,2.0,0.9978699579369276,1173.43466106907,None,1173.43466106907,None,1173.43466106907,None,None,None,None,None,1174.6044232110726,None,1174.6044232110726,None,0,0.6760913750622422,1174.6044232110726,None,1175.3229668859858,1176.5929871870903,None,None,,,,,,,,,,,,,117.0,1,19,0,2020_Feb_26_1201,Test,3.2.4,59.83990778693342
38,Pictures/IA80_40_G95p.bmp,Pictures/IA80_40_G95p.bmp,Pictures/IA80.bmp,"

Think of the payoff, gamble!""""",1,risk,,,,,1.0,0.0,1.0,0.0,0.0,6.0,6.0,9.0,,,,,,,,,,,,,,,,,,,,,,,,,,,,,,,1176.609711001045,None,1178.6317170660475,1180.1523974400482,1180.135677988059,None,1181.6396612280514,None,1.0,0.7708681760123001,1183.6616626210744,None,1183.6616626210744,None,1183.6616626210744,None,1184.5473259250866,None,1184.5473259250866,1185.5499715660699,1186.6528872760246,None,1186.6528872760246,None,0,0.6436446120496839,1186.6528872760246,None,1187.338026600075,1188.6414825170068,None,None,,,,,,,,,,,,,117.0,1,19,0,2020_Feb_26_1201,Test,3.2.4,59.83990778693342
39,Pictures/IA100_G60.bmp,Pictures/IA100_G60.bmp,Pictures/IA100.bmp,"

Be cautious, don't gamble for this one.""""",0,safe,,,,,1.0,0.0,1.0,0.0,0.0,7.0,7.0,13.0,,,,,,,,,,,,,,,,,,,,,,,,,,,,,,,1188.6581800030544,None,1190.6801934010582,1192.2008854030867,1192.1841963729821,None,1193.7549738429952,None,1.0,0.7943759079789743,1195.710157882073,None,1195.710157882073,None,1195.710157882073,None,1196.6459411060205,None,1196.6459411060205,1197.6485870589968,1198.7515001420397,None,1198.7515001420397,None,0,1.4490215179976076,1198.7515001420397,None,1200.2387607810088,None,None,None,,,,,,,,,,,,,117.0,1,19,0,2020_Feb_26_1201,Test,3.2.4,59.83990778693342
40,Pictures/IA75_G45.bmp,Pictures/IA75_G45.bmp,Pictures/IA75.bmp,"

Don't gamble for this one.""""",0,safe,,,,,1.0,0.0,1.0,0.0,0.0,8.0,8.0,5.0,,,,,,,,,,,,,,,,,,,,,,,,,,,,,,,1200.756798002054,None,1202.7788021729793,1204.2994837380247,1204.282793660066,None,1205.8535918940324,None,2.0,1.071771822986193,1207.8087663810002,None,1207.8087663810002,None,1207.8087663810002,None,None,None,None,None,1209.0954966250574,None,1209.0954966250574,None,0,0.3450194449396804,1209.0954966250574,None,1209.4798824850004,1211.0840777420672,None,None,,,,,,,,,,,,,117.0,1,19,0,2020_Feb_26_1201,Test,3.2.4,59.83990778693342
41,Pictures/IA50_G40.bmp,Pictures/IA50_G40.bmp,Pictures/IA50.bmp,"

It would probably be best to play it safe.""""",0,safe,,,,,1.0,0.0,1.0,0.0,0.0,9.0,9.0,19.0,,,,,,,,,,,,,,,,,,,,,,,,,,,,,,,1211.1007777220802,None,1213.1227859780192,1214.6434681250248,1214.6267721770564,None,1216.1641504470026,None,1.0,0.3037844719365239,1218.1527500540249,None,1218.152750054025,None,1218.152750054025,None,1218.6039396120468,None,1218.6039396120468,1219.606583914021,1220.7095027820906,None,1220.7095027820906,None,1,1.4830130090704188,1220.7095027820906,None,None,None,1222.2301810430363,None,,,,,,,,,,,,,117.0,1,19,0,2020_Feb_26_1201,Test,3.2.4,59.83990778693342
42,Pictures/IA20_10_G95p.bmp,Pictures/IA20_10_G95p.bmp,Pictures/IA20.bmp,"

Take a leap, I think you should gamble.""""",1,risk,,,,,1.0,0.0,1.0,0.0,0.0,10.0,10.0,1.0,,,,,,,,,,,,,,,,,,,,,,,,,,,,,,,1222.7147818370722,None,1224.7367886920692,1226.2574675870128,1226.2407756369794,None,1227.7781565809855,None,1.0,1.2497683659894392,1229.766755072982,None,1229.766755072982,None,1229.766755072982,None,1231.1537499610567,None,1231.1537499610567,1232.1563916989835,1233.2593139540404,None,1233.2593139540404,None,0,0.5732107309158891,1233.2593139540404,None,1233.8776062220568,1235.2478787340224,None,None,,,,,,,,,,,,,117.0,1,19,0,2020_Feb_26_1201,Test,3.2.4,59.83990778693342
43,Pictures/IA50_L20.bmp,Pictures/IA50_L20.bmp,Pictures/IA50.bmp,"

Certainty is boring, take a risk!""""",1,risk,,,,,1.0,0.0,1.0,0.0,0.0,11.0,11.0,0.0,,,,,,,,,,,,,,,,,,,,,,,,,,,,,,,1235.264615377062,None,1237.2866123160347,1238.8072946590835,1238.7905704020523,None,1240.3613992159953,None,1.0,2.1479802209651098,1242.316551128053,None,1242.316551128053,None,1242.316551128053,None,1244.5725058340468,None,1244.5725058340468,1245.5751508630347,1246.6780690290034,None,1246.6780690290034,None,None,,1246.6780690290034,None,None,None,None,None,,,,,,,,,,,,,117.0,1,19,0,2020_Feb_26_1201,Test,3.2.4,59.83990778693342
44,Pictures/IA100_L40.bmp,Pictures/IA100_L40.bmp,Pictures/IA100.bmp,"

Think of the payoff, gamble!""""",1,risk,,,,,1.0,0.0,1.0,0.0,0.0,12.0,12.0,2.0,,,,,,,,,,,,,,,,,,,,,,,,,,,,,,,1248.6833604080603,None,1250.70536924107,1252.2260509190382,1252.209357251064,None,1253.7300254580332,None,1.0,1.6092103030532598,1255.7353230810259,None,1255.7353230810259,None,1255.7353230810259,None,1257.4732458100189,None,1257.4732458100189,1258.4758894710103,1259.5788060909836,None,1259.5788060909836,None,0,0.5417246710276231,1259.5788060909836,None,1260.1636840860592,1261.5673908999888,None,None,,,,,,,,,,,,,117.0,1,19,0,2020_Feb_26_1201,Test,3.2.4,59.83990778693342
45,Pictures/IA100_G20.bmp,Pictures/IA100_G20.bmp,Pictures/IA100.bmp,"

Go ahead and gamble!""""",1,risk,,,,,1.0,0.0,1.0,0.0,0.0,13.0,13.0,14.0,,,,,,,,,,,,,,,,,,,,,,,,,,,,,,,1261.5841098329984,None,1263.6061231420608,1265.126806122018,1265.1100812570658,None,1266.6474866160424,None,1.0,0.8364767309976742,1268.6360600210028,None,1268.6360600210028,None,1268.6360600210028,None,1269.5718654170632,None,1269.5718654170632,1270.5745089030825,1271.6774272270268,None,1271.6774272270268,None,1,0.5551065010949969,1271.6774272270268,None,None,None,1272.2790227010846,1273.6827305799816,,,,,,,,,,,,,117.0,1,19,0,2020_Feb_26_1201,Test,3.2.4,59.83990778693342
46,Pictures/IA25_L20.bmp,Pictures/IA25_L20.bmp,Pictures/IA25.bmp,"

Don't be tempted to gamble.""""",0,safe,,,,,1.0,0.0,1.0,0.0,0.0,14.0,14.0,18.0,,,,,,,,,,,,,,,,,,,,,,,,,,,,,,,1273.6994278550847,None,1275.7214397049975,1277.2421192349866,1277.2254275130108,None,1278.7293860290665,None,1.0,1.1691261570667848,1280.7514035609786,None,1280.7514035609784,None,1280.7514035609784,None,1282.021416873089,None,1282.021416873089,1283.0240538690705,1284.1269736110698,None,1284.1269736110698,None,0,0.3375506470911205,1284.1269736110698,None,1284.5113146440126,1286.1155555890873,None,None,,,,,,,,,,,,,117.0,1,19,0,2020_Feb_26_1201,Test,3.2.4,59.83990778693342
47,Pictures/IA75_L30.bmp,Pictures/IA75_L30.bmp,Pictures/IA75.bmp,"

Hold back, stay with the safe choice.""""",0,safe,,,,,1.0,0.0,1.0,0.0,0.0,15.0,15.0,4.0,,,,,,,,,,,,,,,,,,,,,,,,,,,,,,,1286.1322771389969,None,1288.1542877350005,1289.674969388987,1289.6582463419763,None,1291.1956539900275,None,2.0,1.344295293907635,1293.1842387100914,None,1293.1842387100914,None,1293.1842387100914,None,None,None,None,None,1294.704910931061,None,1294.704910931061,None,0,0.2716192330699414,1294.704910931061,None,1295.0224124920787,1296.6934931230498,None,None,,,,,,,,,,,,,117.0,1,19,0,2020_Feb_26_1201,Test,3.2.4,59.83990778693342
48,Pictures/IA75_L60.bmp,Pictures/IA75_L60.bmp,Pictures/IA75.bmp,"

Why not take the gamble?""""",1,risk,,,,,1.0,0.0,1.0,0.0,0.0,16.0,16.0,8.0,,,,,,,,,,,,,,,,,,,,,,,,,,,,,,,1296.710215646075,None,1298.7322258780478,1300.236182138091,1300.2194858710284,None,1301.8237239710288,None,1.0,0.7823511770693585,1303.7621788859833,None,1303.7621788859833,None,1303.7621788859833,None,1304.6478531430475,None,1304.6478531430475,1305.650496527087,1306.753412812017,None,1306.753412812017,None,0,0.7911111150169745,1306.7534128120171,None,1307.5889367500786,1308.7587116520153,None,None,,,,,,,,,,,,,117.0,1,19,0,2020_Feb_26_1201,Test,3.2.4,59.83990778693342
49,Pictures/IA50_G10.bmp,Pictures/IA50_G10.bmp,Pictures/IA50.bmp,"

Go with the safe option here!""""",0,safe,,,,,1.0,0.0,1.0,0.0,0.0,17.0,17.0,3.0,,,,,,,,,,,,,,,,,,,,,,,,,,,,,,,1308.7753680819878,None,1310.7974127110792,1312.3180929870578,1312.3014014560028,None,1313.8387783460785,None,1.0,0.2851467099972069,1315.8273793429835,None,1315.8273793429835,None,1315.8273793429835,None,1316.2284263110487,None,1316.2284263110487,1317.2310714840423,1318.3339867930626,None,1318.3339867930626,None,0,0.2825262650148943,1318.3339867930624,None,1318.6514887000667,1320.3392907490488,None,None,,,,,,,,,,,,,117.0,1,19,0,2020_Feb_26_1201,Test,3.2.4,59.83990778693342
50,Pictures/IA80_40_L95p.bmp,Pictures/IA80_40_L95p.bmp,Pictures/IA80.bmp,"

Let's stay with the certain option.""""",0,safe,,,,,1.0,0.0,1.0,0.0,0.0,18.0,18.0,16.0,,,,,,,,,,,,,,,,,,,,,,,,,,,,,,,1320.3559890110046,None,1322.3779999359977,1323.8986816280521,1323.8819858790375,None,1325.385945711052,None,1.0,0.2565732480725273,1327.4079654410014,None,1327.4079654410016,None,1327.4079654410016,None,1327.7923009550432,None,1327.7923009550432,1328.794946886017,1329.8978279359872,None,1329.8978279359872,None,1,0.5986974200932309,1329.8978279359872,None,None,None,1330.5328861610033,1331.903168176068,,,,,,,,,,,,,117.0,1,19,0,2020_Feb_26_1201,Test,3.2.4,59.83990778693342
51,Pictures/IA100_G40.bmp,Pictures/IA100_G40.bmp,Pictures/IA100.bmp,"

Try your luck and gamble!""""",1,risk,,,,,1.0,0.0,1.0,0.0,0.0,19.0,19.0,12.0,,,,,,,,,,,,,,,,,,,,,,,,,,,,,,,1331.9198669380276,None,1333.941875508055,1335.4625579230487,1335.4458627019776,None,1336.9665307389805,None,1.0,0.26871275005396456,1338.9718306990108,None,1338.9718306990108,None,1338.9718306990108,None,1339.3728902760195,None,1339.3728902760195,1340.3755330070853,1341.4784512480255,None,1341.4784512480255,None,0,0.28207044501323253,1341.4784512480255,None,1341.7959529830841,1343.4670350829838,None,None,,,,,,,,,,,,,117.0,1,19,0,2020_Feb_26_1201,Test,3.2.4,59.83990778693342
53,Pictures/IA100_L60.bmp,Pictures/IA100_L60.bmp,Pictures/IA100.bmp,"

You'd have a lot to lose, don't gamble.""""",0,safe,,,,,2.0,0.0,2.0,0.0,0.0,0.0,0.0,1.0,,,,,,,,,,,,,1350.9033510889858,None,1350.9033510889858,None,1350.9033510889858,None,1,1.745182752958499,1350.9033510889858,None,1350.9033510889858,None,1350.9033510889858,None,return,6.32095989305526,1350.9033510889858,None,1357.2868663240224,None,1359.2921804829966,1360.8128635340836,1360.7961415150203,None,1362.300132296048,None,1.0,0.7511200739536434,1364.305411686073,None,1364.305411686073,None,1364.305411686073,None,1365.191085425089,None,1365.191085425089,1366.1937302820152,1367.330069269985,None,1367.330069269985,None,0,0.47045490401797,1367.330069269985,None,1367.8481016070582,1369.3353731180541,None,None,,,,,,,,,,,,,117.0,1,19,0,2020_Feb_26_1201,Test,3.2.4,59.83990778693342
54,Pictures/IA75_G30.bmp,Pictures/IA75_G30.bmp,Pictures/IA75.bmp,"

Be bold, gamble!""""",1,risk,,,,,2.0,0.0,2.0,0.0,0.0,1.0,1.0,8.0,,,,,,,,,,,,,,,,,,,,,,,,,,,,,,,1369.3520741950488,None,1371.3740815640194,1372.8947637780802,1372.8780683410587,None,1374.4488718160428,None,1.0,0.804485613014549,1376.4040518880356,None,1376.4040518880356,None,1376.4040518880356,None,1377.323143937043,None,1377.323143937043,1378.3257899080636,1379.42870821408,None,1379.42870821408,None,0,0.4678109179949388,1379.42870821408,None,1379.9299801130546,1381.4340010120068,None,None,,,,,,,,,,,,,117.0,1,19,0,2020_Feb_26_1201,Test,3.2.4,59.83990778693342
55,Pictures/IA40_20_G95p.bmp,Pictures/IA40_20_G95p.bmp,Pictures/IA40.bmp,"

Hold back, stay with the safe choice.""""",0,safe,,,,,2.0,0.0,2.0,0.0,0.0,2.0,2.0,19.0,,,,,,,,,,,,,,,,,,,,,,,,,,,,,,,1381.4506964740576,None,1383.4727071750674,1384.9933896540892,1384.9766936070519,None,1386.480698471074,None,1.0,0.6578543779905885,1388.502676157048,None,1388.502676157048,None,1388.502676157048,None,1389.3047816940816,None,1389.3047816940816,1390.3074256040854,1391.4103453650605,None,1391.4103453650605,None,0,0.2621741840848699,1391.4103453650605,None,1391.7111495240824,1393.4156366130337,None,None,,,,,,,,,,,,,117.0,1,19,0,2020_Feb_26_1201,Test,3.2.4,59.83990778693342
56,Pictures/IA75_L30.bmp,Pictures/IA75_L30.bmp,Pictures/IA75.bmp,"

Hold back, stay with the safe choice.""""",0,safe,,,,,2.0,0.0,2.0,0.0,0.0,3.0,3.0,18.0,,,,,,,,,,,,,,,,,,,,,,,,,,,,,,,1393.432365172077,None,1395.454371008091,1396.9750505540287,1396.958332701004,None,1398.4623168330872,None,1.0,1.2602038270561025,1400.4843256809982,None,1400.4843256809982,None,1400.4843256809982,None,1401.8379013770027,None,1401.8379013770027,1402.8405484670075,1403.943465494085,None,1403.943465494085,None,0,0.6570621529826894,1403.943465494085,None,1404.64530529303,1405.9487567270407,None,None,,,,,,,,,,,,,117.0,1,19,0,2020_Feb_26_1201,Test,3.2.4,59.83990778693342
57,Pictures/IA25_L10.bmp,Pictures/IA25_L10.bmp,Pictures/IA25.bmp,"

Dont be afraid to take the risk!""""",1,risk,,,,,2.0,0.0,2.0,0.0,0.0,4.0,4.0,10.0,,,,,,,,,,,,,,,,,,,,,,,,,,,,,,,1405.9654566880781,None,1407.987466649036,1409.5081510660239,1409.4914630510614,None,1411.0121256540297,None,2.0,0.8791083079995587,1413.0174224670045,None,1413.0174224670045,None,1413.0174224670045,None,None,None,None,None,1414.0702054710127,None,1414.0702054710127,None,0,0.834318266948685,1414.070205471013,None,1414.939174112049,1416.0755085040582,None,None,,,,,,,,,,,,,117.0,1,19,0,2020_Feb_26_1201,Test,3.2.4,59.83990778693342
58,Pictures/IA75_L15.bmp,Pictures/IA75_L15.bmp,Pictures/IA75.bmp,"

Trust me–gamble!""""",1,risk,,,,,2.0,0.0,2.0,0.0,0.0,5.0,5.0,2.0,,,,,,,,,,,,,,,,,,,,,,,,,,,,,,,1416.0922081309836,None,1418.1142186030047,1419.6348992800338,1419.6182036120445,None,1421.189009480062,None,1.0,1.072345560998656,1423.1441877310865,None,1423.1441877310863,None,1423.1441877310863,None,1424.347368028015,None,1424.347368028015,1425.3500087059801,1426.4696379220113,None,1426.4696379220113,None,1,1.8188754690345377,1426.469637922011,None,None,None,1428.3245344010647,None,,,,,,,,,,,,,117.0,1,19,0,2020_Feb_26_1201,Test,3.2.4,59.83990778693342
59,Pictures/IA25_G20.bmp,Pictures/IA25_G20.bmp,Pictures/IA25.bmp,"

I wouldn't gamble for this one. """"",0,safe,,,,,2.0,0.0,2.0,0.0,0.0,6.0,6.0,0.0,,,,,,,,,,,,,,,,,,,,,,,,,,,,,,,1428.474917414016,None,1430.4969301890815,1432.01761060406,1432.0009170940614,None,1433.5717216139892,None,1.0,1.24163091101218,1435.526903468999,None,1435.526903468999,None,1435.526903468999,None,1436.8971839890582,None,1436.8971839890582,1437.89982823201,1439.0361680859933,None,1439.0361680859933,None,0,1.2123507980722934,1439.0361680859933,None,1440.2894751960412,None,None,None,,,,,,,,,,,,,117.0,1,19,0,2020_Feb_26_1201,Test,3.2.4,59.83990778693342
60,Pictures/IA25_L5.bmp,Pictures/IA25_L5.bmp,Pictures/IA25.bmp,"

It would be smarter to choose the safe option.""""",0,safe,,,,,2.0,0.0,2.0,0.0,0.0,7.0,7.0,15.0,,,,,,,,,,,,,,,,,,,,,,,,,,,,,,,1441.04144989606,None,1443.0634631660068,1444.5841421240475,1444.5674462030875,None,1446.0881163630402,None,1.0,1.0511121359886602,1448.0934178130701,None,1448.0934178130701,None,1448.0934178130701,None,1449.279883433017,None,1449.279883433017,1450.282529438031,1451.4188687209971,None,1451.4188687209971,None,0,0.36567967804148793,1451.4188687209974,None,1451.8199376980774,1453.424174334039,None,None,,,,,,,,,,,,,117.0,1,19,0,2020_Feb_26_1201,Test,3.2.4,59.83990778693342
61,Pictures/IA75_L60.bmp,Pictures/IA75_L60.bmp,Pictures/IA75.bmp,"

Why not take the gamble?""""",1,risk,,,,,2.0,0.0,2.0,0.0,0.0,8.0,8.0,12.0,,,,,,,,,,,,,,,,,,,,,,,,,,,,,,,1453.4408724150853,None,1455.4628829599824,1456.9835634970805,1456.9668696130393,None,1458.5042522010626,None,1.0,0.7396758969407529,1460.4928617230614,None,1460.4928617230617,None,1460.4928617230617,None,1461.3451067170827,None,1461.3451067170827,1462.3477503840113,1463.4841018300503,None,1463.4841018300503,None,0,1.1564160489942878,1463.4841018300503,None,1464.6872502850601,None,None,None,,,,,,,,,,,,,117.0,1,19,0,2020_Feb_26_1201,Test,3.2.4,59.83990778693342
62,Pictures/IA25_G10.bmp,Pictures/IA25_G10.bmp,Pictures/IA25.bmp,"

What's life without a little risk?""""",1,risk,,,,,2.0,0.0,2.0,0.0,0.0,9.0,9.0,9.0,,,,,,,,,,,,,,,,,,,,,,,,,,,,,,,1465.5060926260194,None,1467.5281074090162,1469.0487906810595,1469.0320662379966,None,1470.6196050540311,None,1.0,0.6264473660849035,1472.5580780340827,None,1472.5580780340824,None,1472.5580780340824,None,1473.31004627503,None,1473.31004627503,1474.3126899449853,1475.4323200209765,None,1475.4323200209765,None,0,0.6641999759012833,1475.4323200209765,None,1476.1341577160638,1477.4376130460296,None,None,,,,,,,,,,,,,117.0,1,19,0,2020_Feb_26_1201,Test,3.2.4,59.83990778693342
63,Pictures/IA110_55_G95p.bmp,Pictures/IA110_55_G95p.bmp,Pictures/IA110.bmp,"

Take a chance!""""",1,risk,,,,,2.0,0.0,2.0,0.0,0.0,10.0,10.0,17.0,,,,,,,,,,,,,,,,,,,,,,,,,,,,,,,1477.4543176810257,None,1479.4763211170211,1480.9803071670467,1480.9635860630078,None,1482.517692491063,None,1.0,0.7262377479346469,1484.5062931170687,None,1484.5062931170687,None,1484.5062931170687,None,1485.3251083190553,None,1485.3251083190553,1486.327753265039,1487.4306716050487,None,1487.4306716050487,None,0,0.45786444400437176,1487.430671605049,None,1487.9320063210325,1489.4359765209956,None,None,,,,,,,,,,,,,117.0,1,19,0,2020_Feb_26_1201,Test,3.2.4,59.83990778693342
64,Pictures/IA100_L20.bmp,Pictures/IA100_L20.bmp,Pictures/IA100.bmp,"

Try to win as much money as you can, gamble!""""",1,risk,,,,,2.0,0.0,2.0,0.0,0.0,11.0,11.0,11.0,,,,,,,,,,,,,,,,,,,,,,,,,,,,,,,1489.4526771270903,None,1491.4746904920319,1492.9953739430055,1492.978676620056,None,1494.4993515630485,None,1.0,1.3678671759553254,1496.5046538710594,None,1496.5046538710594,None,1496.5046538710594,None,1498.0086309059989,None,1498.0086309059989,1499.0112737740856,1500.1141934080515,None,1500.1141934080515,None,1,0.9263330639805644,1500.1141934080515,None,None,None,1501.083405014011,1502.1194876910886,,,,,,,,,,,,,117.0,1,19,0,2020_Feb_26_1201,Test,3.2.4,59.83990778693342
65,Pictures/IA80_40_L95p.bmp,Pictures/IA80_40_L95p.bmp,Pictures/IA80.bmp,"

Let's stay with the certain option.""""",0,safe,,,,,2.0,0.0,2.0,0.0,0.0,12.0,12.0,16.0,,,,,,,,,,,,,,,,,,,,,,,,,,,,,,,1502.1361857299926,None,1504.1581960030599,1505.67888045602,1505.6621828270145,None,1507.1995632470353,None,1.0,0.6603639200329781,1509.188169250032,None,1509.188169250032,None,1509.188169250032,None,1509.9735599160194,None,1509.9735599160194,1510.9762060840148,1512.079125702032,None,1512.079125702032,None,1,0.4574049189686775,1512.079125702032,None,None,None,1512.5804581620032,1514.0844197000843,,,,,,,,,,,,,117.0,1,19,0,2020_Feb_26_1201,Test,3.2.4,59.83990778693342
66,Pictures/IA75_G45.bmp,Pictures/IA75_G45.bmp,Pictures/IA75.bmp,"

Don't gamble for this one.""""",0,safe,,,,,2.0,0.0,2.0,0.0,0.0,13.0,13.0,5.0,,,,,,,,,,,,,,,,,,,,,,,,,,,,,,,1514.1011414889945,None,1516.1231543939793,1517.643835401046,1517.6271189120596,None,1519.147819077014,None,1.0,0.8634190649027005,1521.1531117099805,None,1521.1531117099803,None,1521.1531117099803,None,1522.1223253810313,None,1522.1223253810313,1523.1249858370284,1524.22788829403,None,1524.22788829403,None,0,0.6206366380210966,1524.2278882940302,None,1524.896330124,1526.233193328022,None,None,,,,,,,,,,,,,117.0,1,19,0,2020_Feb_26_1201,Test,3.2.4,59.83990778693342
67,Pictures/IA50_G20.bmp,Pictures/IA50_G20.bmp,Pictures/IA50.bmp,"

Let's venture and take a risk!""""",1,risk,,,,,2.0,0.0,2.0,0.0,0.0,14.0,14.0,3.0,,,,,,,,,,,,,,,,,,,,,,,,,,,,,,,1526.2498929880094,None,1528.2719042970566,1529.7925851570908,1529.7758913780567,None,1531.3132781630848,None,1.0,0.9066591180162504,1533.3018737670498,None,1533.30187376705,None,1533.30187376705,None,1534.3212339270394,None,1534.3212339270394,1535.3238784640562,1536.426797832013,None,1536.426797832013,None,0,0.9337216559797525,1536.4267978320129,None,1537.3960075130453,1538.4320912830299,None,None,,,,,,,,,,,,,117.0,1,19,0,2020_Feb_26_1201,Test,3.2.4,59.83990778693342
68,Pictures/IA50_L30.bmp,Pictures/IA50_L30.bmp,Pictures/IA50.bmp,"

Take a leap, I think you should gamble.""""",1,risk,,,,,2.0,0.0,2.0,0.0,0.0,15.0,15.0,7.0,,,,,,,,,,,,,,,,,,,,,,,,,,,,,,,1538.4487898770021,None,1540.4708019500833,1541.9914858110715,1541.9747867130209,None,1543.562302257982,None,1.0,1.1397718510124832,1545.500759772025,None,1545.500759772025,None,1545.500759772025,None,1546.7874902409967,None,1546.7874902409967,1547.7901345189894,1548.8930599819869,None,1548.8930599819869,None,0,1.0194519709330052,1548.8930599819869,None,1549.94583703205,None,None,None,,,,,,,,,,,,,117.0,1,19,0,2020_Feb_26_1201,Test,3.2.4,59.83990778693342
69,Pictures/IA75_G60.bmp,Pictures/IA75_G60.bmp,Pictures/IA75.bmp,"

Make it exciting, take a chance!""""",1,risk,,,,,2.0,0.0,2.0,0.0,0.0,16.0,16.0,6.0,,,,,,,,,,,,,,,,,,,,,,,,,,,,,,,1550.8983615600737,None,1552.920369539992,1554.4243309859885,1554.40763616201,None,1555.995163123007,None,1.0,0.6102148600621149,1557.9503177150618,None,1557.9503177150618,None,1557.9503177150618,None,1558.685591835063,None,1558.685591835063,1559.6882366080536,1560.7911584239919,None,1560.7911584239919,None,0,0.3453728120075539,1560.7911584239919,None,1561.1755023860605,1562.7797401699936,None,None,,,,,,,,,,,,,117.0,1,19,0,2020_Feb_26_1201,Test,3.2.4,59.83990778693342
70,Pictures/IA100_L80.bmp,Pictures/IA100_L80.bmp,Pictures/IA100.bmp,"

Go all in!""""",1,risk,,,,,2.0,0.0,2.0,0.0,0.0,17.0,17.0,14.0,,,,,,,,,,,,,,,,,,,,,,,,,,,,,,,1562.7964630910428,None,1564.8184794189874,1566.3224349219818,1566.3057398690146,None,1567.859845753992,None,1.0,0.6321179040241987,1569.848418931011,None,1569.848418931011,None,1569.848418931011,None,1570.5502844090806,None,1570.5502844090806,1571.5529322010698,1572.6558512439951,None,1572.6558512439951,None,0,0.7286743799922988,1572.6558512439954,None,1573.4245305520017,1574.6611429100158,None,None,,,,,,,,,,,,,117.0,1,19,0,2020_Feb_26_1201,Test,3.2.4,59.83990778693342
71,Pictures/IA40_20_L95p.bmp,Pictures/IA40_20_L95p.bmp,Pictures/IA40.bmp,"

Trust me, gamble!""""",1,risk,,,,,2.0,0.0,2.0,0.0,0.0,18.0,18.0,4.0,,,,,,,,,,,,,,,,,,,,,,,,,,,,,,,1574.677842062083,None,1576.699861627072,1578.2205346350092,1578.2038452230627,None,1579.7746429400286,None,1.0,0.8147052980493754,1581.7298247960862,None,1581.7298247960862,None,1581.7298247960862,None,1582.6322057760553,None,1582.6322057760553,1583.634855241049,1584.737774237059,None,1584.737774237059,None,1,0.2627503810217604,1584.737774237059,None,None,None,1585.0385499519762,1586.7430694249924,,,,,,,,,,,,,117.0,1,19,0,2020_Feb_26_1201,Test,3.2.4,59.83990778693342
72,Pictures/IA75_G15.bmp,Pictures/IA75_G15.bmp,Pictures/IA75.bmp,"

Take a chance!""""",1,risk,,,,,2.0,0.0,2.0,0.0,0.0,19.0,19.0,13.0,,,,,,,,,,,,,,,,,,,,,,,,,,,,,,,1586.7597636170685,None,1588.781778866076,1590.3024572300492,1590.2857625770846,None,1591.8565797780175,None,1.0,0.22877627809066325,1593.8117480900837,None,1593.8117480900837,None,1593.8117480900837,None,1594.1292384699918,None,1594.1292384699918,1595.1318834300619,1596.2348035520408,None,1596.2348035520408,None,0,0.981718315044418,1596.2348035520406,None,1597.2541583880084,None,None,None,,,,,,,,,,,,,117.0,1,19,0,2020_Feb_26_1201,Test,3.2.4,59.83990778693342
74,Pictures/IA25_L10.bmp,Pictures/IA25_L10.bmp,Pictures/IA25.bmp,"

Dont be afraid to take the risk!""""",1,risk,,,,,3.0,0.0,3.0,0.0,0.0,0.0,0.0,10.0,,,,,,,,,,,,,1604.5901791009821,None,1604.590179100982,None,1604.590179100982,None,0,1.3623430230654776,1604.5901791009821,None,1604.590179100982,None,1604.590179100982,None,return,2.170225100009702,1604.5901791009821,None,1606.8127589700744,None,1608.81804890302,1610.3387368189872,1610.3220344770236,None,1611.8260082440684,None,1.0,0.7452205340377986,1613.8313086300625,None,1613.8313086300623,None,1613.8313086300623,None,1614.700274494011,None,1614.700274494011,1615.7029136080528,1616.8225460280664,None,1616.8225460280664,None,0,0.3379746830323711,1616.8225460280664,None,1617.2068900290178,1618.8278273810865,None,None,,,,,,,,,,,,,117.0,1,19,0,2020_Feb_26_1201,Test,3.2.4,59.83990778693342
75,Pictures/IA25_G15.bmp,Pictures/IA25_G15.bmp,Pictures/IA25.bmp,"

I think you should take a gamble.""""",1,risk,,,,,3.0,0.0,3.0,0.0,0.0,1.0,1.0,1.0,,,,,,,,,,,,,,,,,,,,,,,,,,,,,,,1618.844551044982,None,1620.8665598890511,1622.3872435700616,1622.3705244429873,None,1623.958067564061,None,1.0,0.968007629038766,1625.8965216310462,None,1625.8965216310462,None,1625.8965216310462,None,1626.9827067580773,None,1626.9827067580773,1627.985355964047,1629.1216965040658,None,1629.1216965040658,None,0,0.45482669910416007,1629.1216965040658,None,1629.6230309590464,1631.1269969179993,None,None,,,,,,,,,,,,,117.0,1,19,0,2020_Feb_26_1201,Test,3.2.4,59.83990778693342
76,Pictures/IA75_L30.bmp,Pictures/IA75_L30.bmp,Pictures/IA75.bmp,"

Hold back, stay with the safe choice.""""",0,safe,,,,,3.0,0.0,3.0,0.0,0.0,2.0,2.0,2.0,,,,,,,,,,,,,,,,,,,,,,,,,,,,,,,1631.143716989085,None,1633.1657258020716,1634.6864067810818,1634.6696876509814,None,1636.2238056090428,None,1.0,0.5728525560116395,1638.1956865240354,None,1638.1956865240354,None,1638.1956865240354,None,1638.9142600820633,None,1638.9142600820633,1639.916893655085,1641.0365962170763,None,1641.0365962170763,None,0,0.2599076629849151,1641.0365962170763,None,1641.3374074280728,1643.041807663045,None,None,,,,,,,,,,,,,117.0,1,19,0,2020_Feb_26_1201,Test,3.2.4,59.83990778693342
77,Pictures/IA50_L40.bmp,Pictures/IA50_L40.bmp,Pictures/IA50.bmp,"

That gamble doesn't sound too good, play it safe.""""",0,safe,,,,,3.0,0.0,3.0,0.0,0.0,3.0,3.0,16.0,,,,,,,,,,,,,,,,,,,,,,,,,,,,,,,1643.0585287980502,None,1645.0805950120553,1646.5845019919798,1646.5678062189836,None,1648.1052034980385,None,1.0,0.5380368649493903,1650.110497141024,None,1650.110497141024,None,1650.110497141024,None,1650.8123543190304,None,1650.8123543190304,1651.814998522983,1652.9513409910724,None,1652.9513409910724,None,0,0.4731835919665173,1652.9513409910724,None,1653.4693718320923,1654.9399214980658,None,None,,,,,,,,,,,,,117.0,1,19,0,2020_Feb_26_1201,Test,3.2.4,59.83990778693342
78,Pictures/IA100_L80.bmp,Pictures/IA100_L80.bmp,Pictures/IA100.bmp,"

Go all in!""""",1,risk,,,,,3.0,0.0,3.0,0.0,0.0,4.0,4.0,11.0,,,,,,,,,,,,,,,,,,,,,,,,,,,,,,,1654.9566209290642,None,1656.9786328109913,1658.4993237380404,1658.4826345890758,None,1659.986580552999,None,1.0,0.5919264670228586,1662.0086045820499,None,1662.0086045820499,None,1662.0086045820499,None,1662.6937338199932,None,1662.6937338199932,1663.696381533984,1664.7992982140277,None,1664.7992982140277,None,0,0.31322170002385974,1664.7992982140274,None,1665.1502233140636,1666.7878950840095,None,None,,,,,,,,,,,,,117.0,1,19,0,2020_Feb_26_1201,Test,3.2.4,59.83990778693342
79,Pictures/IA50_G10.bmp,Pictures/IA50_G10.bmp,Pictures/IA50.bmp,"

Go with the safe option here!""""",0,safe,,,,,3.0,0.0,3.0,0.0,0.0,5.0,5.0,3.0,,,,,,,,,,,,,,,,,,,,,,,,,,,,,,,1666.8045945580816,None,1668.8266053909902,1670.3472918129992,1670.3305960780706,None,1671.851267967024,None,1.0,0.5679671990219504,1673.8565648529914,None,1673.8565648529911,None,1673.8565648529911,None,1674.5417178400094,None,1674.5417178400094,1675.5443638790166,1676.647284161998,None,1676.647284161998,None,0,0.2812360080424696,1676.647284161998,None,1676.9647892940557,1678.6358633859782,None,None,,,,,,,,,,,,,117.0,1,19,0,2020_Feb_26_1201,Test,3.2.4,59.83990778693342
80,Pictures/IA25_L5.bmp,Pictures/IA25_L5.bmp,Pictures/IA25.bmp,"

It would be smarter to choose the safe option.""""",0,safe,,,,,3.0,0.0,3.0,0.0,0.0,6.0,6.0,12.0,,,,,,,,,,,,,,,,,,,,,,,,,,,,,,,1678.6525650219992,None,1680.6745808370179,1682.195262934081,1682.1785654660778,None,1683.699238391011,None,1.0,0.6879669399932027,1685.7045630200303,None,1685.70456302003,None,1685.70456302003,None,1686.5400892680045,None,1686.5400892680045,1687.5427352450788,1688.6456542530796,None,1688.6456542530796,None,0,0.642865520901978,1688.6456542530796,None,1689.3307941060048,1690.6342259830562,None,None,,,,,,,,,,,,,117.0,1,19,0,2020_Feb_26_1201,Test,3.2.4,59.83990778693342
81,Pictures/IA75_L15.bmp,Pictures/IA75_L15.bmp,Pictures/IA75.bmp,"

Trust me–gamble!""""",1,risk,,,,,3.0,0.0,3.0,0.0,0.0,7.0,7.0,9.0,,,,,,,,,,,,,,,,,,,,,,,,,,,,,,,1690.6509501960827,None,1692.6729614530923,1694.1936435060345,1694.1769282260211,None,1695.6809094679775,None,1.0,1.0256216889247298,1697.7029078480555,None,1697.7029078480555,None,1697.7029078480555,None,1698.8392531690188,None,1698.8392531690188,1699.8418997410918,1700.9448163079796,None,1700.9448163079796,None,0,1.4877113400725648,1700.9448163079794,None,1702.4822120930767,None,None,None,,,,,,,,,,,,,117.0,1,19,0,2020_Feb_26_1201,Test,3.2.4,59.83990778693342
82,Pictures/IA75_L45.bmp,Pictures/IA75_L45.bmp,Pictures/IA75.bmp,"

Don't gamble for this one, play it safe.""""",0,safe,,,,,3.0,0.0,3.0,0.0,0.0,8.0,8.0,15.0,,,,,,,,,,,,,,,,,,,,,,,,,,,,,,,1702.9668245000066,None,1704.9888398590265,1706.5095227800775,1706.4928096830845,None,1708.063626434072,None,1.0,0.9897642289288342,1710.018784885062,None,1710.018784885062,None,1710.018784885062,None,1711.155130655039,None,1711.155130655039,1712.157774600084,1713.2606980080018,None,1713.2606980080018,None,0,0.38783284195233136,1713.2606980080018,None,1713.6951603170019,1715.2659908090718,None,None,,,,,,,,,,,,,117.0,1,19,0,2020_Feb_26_1201,Test,3.2.4,59.83990778693342
83,Pictures/IA80_40_G95p.bmp,Pictures/IA80_40_G95p.bmp,Pictures/IA80.bmp,"

Think of the payoff, gamble!""""",1,risk,,,,,3.0,0.0,3.0,0.0,0.0,9.0,9.0,13.0,,,,,,,,,,,,,,,,,,,,,,,,,,,,,,,1715.2826972880866,None,1717.3046996360645,1718.8086721589789,1718.7919781820383,None,1720.346081516007,None,1.0,0.6258694370044395,1722.334659788059,None,1722.334659788059,None,1722.334659788059,None,1723.0866590780206,None,1723.0866590780206,1724.0893020720687,1725.192222184036,None,1725.192222184036,None,0,0.4802971939789131,1725.192222184036,None,1725.7102546669776,1727.180807681987,None,None,,,,,,,,,,,,,117.0,1,19,0,2020_Feb_26_1201,Test,3.2.4,59.83990778693342
84,Pictures/IA100_L40.bmp,Pictures/IA100_L40.bmp,Pictures/IA100.bmp,"

Think of the payoff, gamble!""""",1,risk,,,,,3.0,0.0,3.0,0.0,0.0,10.0,10.0,6.0,,,,,,,,,,,,,,,,,,,,,,,,,,,,,,,1727.1975046640728,None,1729.219516886049,1730.7401975300165,1730.7235047790455,None,1732.244176457054,None,1.0,0.24704968999139965,1734.2494825390168,None,1734.2494825390168,None,1734.2494825390168,None,1734.566980098025,None,1734.566980098025,1735.5696259409888,1736.689258281025,None,1736.689258281025,None,0,0.2792622989509255,1736.689258281025,None,1737.0067591380794,1738.6778402819764,None,None,,,,,,,,,,,,,117.0,1,19,0,2020_Feb_26_1201,Test,3.2.4,59.83990778693342
85,Pictures/IA80_40_L95p.bmp,Pictures/IA80_40_L95p.bmp,Pictures/IA80.bmp,"

Let's stay with the certain option.""""",0,safe,,,,,3.0,0.0,3.0,0.0,0.0,11.0,11.0,0.0,,,,,,,,,,,,,,,,,,,,,,,,,,,,,,,1738.694562830031,None,1740.71660358808,1742.2372597920473,1742.2205390770687,None,1743.7245239639888,None,1.0,0.26199196896050125,1745.7465296610026,None,1745.7465296610026,None,1745.7465296610026,None,1746.130888410029,None,1746.130888410029,1747.133535805042,1748.2364488750463,None,1748.2364488750463,None,1,0.3480712299933657,1748.2364488750463,None,None,None,1748.6207916800631,1750.2250181600684,,,,,,,,,,,,,117.0,1,19,0,2020_Feb_26_1201,Test,3.2.4,59.83990778693342
86,Pictures/IA50_L30.bmp,Pictures/IA50_L30.bmp,Pictures/IA50.bmp,"

Take a leap, I think you should gamble.""""",1,risk,,,,,3.0,0.0,3.0,0.0,0.0,12.0,12.0,4.0,,,,,,,,,,,,,,,,,,,,,,,,,,,,,,,1750.2417429080233,None,1752.2637538530398,1753.7844378880689,1753.7677164759953,None,1755.3051244610688,None,1.0,2.1228299729991704,1757.2937060800614,None,1757.2937060800614,None,1757.2937060800614,None,1759.566385828075,None,1759.566385828075,1760.5690322270384,1761.6719583619852,None,1761.6719583619852,None,0,0.3765686620026827,1761.6719583619852,None,1762.0897165370407,1763.6605296240887,None,None,,,,,,,,,,,,,117.0,1,19,0,2020_Feb_26_1201,Test,3.2.4,59.83990778693342
87,Pictures/IA100_L60.bmp,Pictures/IA100_L60.bmp,Pictures/IA100.bmp,"

You'd have a lot to lose, don't gamble.""""",0,safe,,,,,3.0,0.0,3.0,0.0,0.0,13.0,13.0,14.0,,,,,,,,,,,,,,,,,,,,,,,,,,,,,,,1763.677246212028,None,1765.6992564200189,1767.2199402609838,1767.2032179940725,None,1768.7239201749908,None,1.0,0.8952926779165864,1770.7292224720586,None,1770.7292224720586,None,1770.7292224720586,None,1771.7652734310832,None,1771.7652734310832,1772.7679204390151,1773.8708404729841,None,1773.8708404729841,None,0,0.7616738829528913,1773.8708404729841,None,1774.672966632992,1775.876144597074,None,None,,,,,,,,,,,,,117.0,1,19,0,2020_Feb_26_1201,Test,3.2.4,59.83990778693342
88,Pictures/IA75_G60.bmp,Pictures/IA75_G60.bmp,Pictures/IA75.bmp,"

Make it exciting, take a chance!""""",1,risk,,,,,3.0,0.0,3.0,0.0,0.0,14.0,14.0,17.0,,,,,,,,,,,,,,,,,,,,,,,,,,,,,,,1775.8928445900092,None,1777.9148588980315,1779.4355391730787,1779.4188497270225,None,1780.922803524998,None,1.0,0.7037001039134338,1782.9448281610385,None,1782.9448281610385,None,1782.9448281610385,None,1783.7970817460446,None,1783.7970817460446,1784.7997235230869,1785.9193565379828,None,1785.9193565379828,None,0,0.2651674149092287,1785.9193565379828,None,1786.2201342170592,1787.9246510650264,None,None,,,,,,,,,,,,,117.0,1,19,0,2020_Feb_26_1201,Test,3.2.4,59.83990778693342
89,Pictures/IA50_G20.bmp,Pictures/IA50_G20.bmp,Pictures/IA50.bmp,"

Let's venture and take a risk!""""",1,risk,,,,,3.0,0.0,3.0,0.0,0.0,15.0,15.0,7.0,,,,,,,,,,,,,,,,,,,,,,,,,,,,,,,1787.9413473280147,None,1789.9633600800298,1791.4840565130578,1791.4673471580027,None,1792.9713088769931,None,1.0,0.975201342953369,1794.9933359969873,None,1794.9933359969873,None,1794.9933359969873,None,1796.0962444510078,None,1796.0962444510078,1797.0988965340657,1798.2018121790607,None,1798.2018121790607,None,0,0.358709713909775,1798.2018121790607,None,1798.602852987009,1800.2070920800325,None,None,,,,,,,,,,,,,117.0,1,19,0,2020_Feb_26_1201,Test,3.2.4,59.83990778693342
90,Pictures/IA25_L15.bmp,Pictures/IA25_L15.bmp,Pictures/IA25.bmp,"

There's not much on the line here, gamble!""""",1,risk,,,,,3.0,0.0,3.0,0.0,0.0,16.0,16.0,19.0,,,,,,,,,,,,,,,,,,,,,,,,,,,,,,,1800.223823065986,None,1802.245829920983,1803.7665116019782,1803.7497924740892,None,1805.287199317012,None,1.0,0.5327531460206956,1807.2757754070917,None,1807.2757754070917,None,1807.2757754070917,None,1807.960930676083,None,1807.960930676083,1808.963575717993,1810.099922366091,None,1810.099922366091,None,0,0.84459718700964,1810.099922366091,None,1810.9855874030618,1812.093227014062,None,None,,,,,,,,,,,,,117.0,1,19,0,2020_Feb_26_1201,Test,3.2.4,59.83990778693342
91,Pictures/IA40_20_L95p.bmp,Pictures/IA40_20_L95p.bmp,Pictures/IA40.bmp,"

Trust me, gamble!""""",1,risk,,,,,3.0,0.0,3.0,0.0,0.0,17.0,17.0,8.0,,,,,,,,,,,,,,,,,,,,,,,,,,,,,,,1812.1262749109883,None,1814.1439228790116,1815.6646162730176,1815.6479101320729,None,1817.1685944080818,None,1.0,0.5793583940248936,1819.157171946019,None,1819.157171946019,None,1819.157171946019,None,1819.8423168750014,None,1819.8423168750014,1820.8449585780036,1821.9478787840344,None,1821.9478787840344,None,1,0.2446437639882788,1821.9478787840344,None,None,None,1822.2319610300474,1823.9364770529792,,,,,,,,,,,,,117.0,1,19,0,2020_Feb_26_1201,Test,3.2.4,59.83990778693342
92,Pictures/IA20_10_L95p.bmp,Pictures/IA20_10_L95p.bmp,Pictures/IA20.bmp,"

Don't be tempted to gamble.""""",0,safe,,,,,3.0,0.0,3.0,0.0,0.0,18.0,18.0,18.0,,,,,,,,,,,,,,,,,,,,,,,,,,,,,,,1823.953174441005,None,1825.9751856820658,1827.495870906976,1827.479183315998,None,1829.016557982075,None,1.0,0.6353663359768689,1831.0051637830911,None,1831.0051637830911,None,1831.0051637830911,None,1831.7738570020301,None,1831.7738570020301,1832.776500432985,1833.879422598984,None,1833.879422598984,None,1,0.3371029970003292,1833.879422598984,None,None,None,1834.2637663560454,1835.8680049300892,,,,,,,,,,,,,117.0,1,19,0,2020_Feb_26_1201,Test,3.2.4,59.83990778693342
93,Pictures/IA25_G10.bmp,Pictures/IA25_G10.bmp,Pictures/IA25.bmp,"

What's life without a little risk?""""",1,risk,,,,,3.0,0.0,3.0,0.0,0.0,19.0,19.0,5.0,,,,,,,,,,,,,,,,,,,,,,,,,,,,,,,1835.884703468997,None,1837.906719538034,1839.4273985140023,1839.4107098380334,None,1840.9480884240475,None,1.0,0.2638367789331824,1842.9366876120914,None,1842.9366876120912,None,1842.9366876120912,None,1843.3210281489883,None,1843.3210281489883,1844.3236672920175,1845.4265952840215,None,1845.4265952840215,None,0,0.5099276740802452,1845.4265952840212,None,1845.978044110001,1847.415183483041,None,None,,,,,,,,,,,,,117.0,1,19,0,2020_Feb_26_1201,Test,3.2.4,59.83990778693342
95,Pictures/IA50_L40.bmp,Pictures/IA50_L40.bmp,Pictures/IA50.bmp,"

That gamble doesn't sound too good, play it safe.""""",0,safe,,,,,4.0,0.0,4.0,0.0,0.0,0.0,0.0,19.0,,,,,,,,,,,,,1852.1777727809967,None,1852.1777727809967,None,1852.1777727809967,None,0,4.046744188992307,1852.1777727809967,None,1852.1777727809967,None,1852.1777727809967,None,return,4.998531899997033,1852.1777727809967,None,1857.2411402959842,None,1859.2464491070716,1860.7671339260412,1860.750414501992,None,1862.2711118709994,None,1.0,0.5088300390634686,1864.25970009109,None,1864.25970009109,None,1864.25970009109,None,1864.9281303340103,None,1864.9281303340103,1865.930772771011,1867.0671191189904,None,1867.0671191189904,None,0,0.3014014399377629,1867.0671191189904,None,1867.4180428379914,1869.0724166000728,None,None,,,,,,,,,,,,,117.0,1,19,0,2020_Feb_26_1201,Test,3.2.4,59.83990778693342
96,Pictures/IA100_L80.bmp,Pictures/IA100_L80.bmp,Pictures/IA100.bmp,"

Go all in!""""",1,risk,,,,,4.0,0.0,4.0,0.0,0.0,1.0,1.0,1.0,,,,,,,,,,,,,,,,,,,,,,,,,,,,,,,1869.0891117670108,None,1871.111124785035,1872.6318060670746,1872.6151077550605,None,1874.1524949710583,None,1.0,0.6594309360953048,1876.141100684996,None,1876.1411006849958,None,1876.1411006849958,None,1876.8930701150093,None,1876.8930701150093,1877.8957164760213,1878.998685294995,None,1878.998685294995,None,0,0.3058336640242487,1878.998685294995,None,1879.3495584210614,1880.9872295830864,None,None,,,,,,,,,,,,,117.0,1,19,0,2020_Feb_26_1201,Test,3.2.4,59.83990778693342
97,Pictures/IA75_L30.bmp,Pictures/IA75_L30.bmp,Pictures/IA75.bmp,"

Hold back, stay with the safe choice.""""",0,safe,,,,,4.0,0.0,4.0,0.0,0.0,2.0,2.0,17.0,,,,,,,,,,,,,,,,,,,,,,,,,,,,,,,1881.0039359040093,None,1883.0259458490186,1884.546626134077,1884.5299357359763,None,1886.0338901299983,None,1.0,0.3686145229730755,1888.0559171470813,None,1888.0559171470813,None,1888.0559171470813,None,1888.5739500609925,None,1888.5739500609925,1889.5765956860268,1890.7129360740073,None,1890.7129360740073,None,0,0.2795856709126383,1890.7129360740073,None,1891.0304382879985,1892.7015203940682,None,None,,,,,,,,,,,,,117.0,1,19,0,2020_Feb_26_1201,Test,3.2.4,59.83990778693342
98,Pictures/IA110_55_G95p.bmp,Pictures/IA110_55_G95p.bmp,Pictures/IA110.bmp,"

Take a chance!""""",1,risk,,,,,4.0,0.0,4.0,0.0,0.0,3.0,3.0,10.0,,,,,,,,,,,,,,,,,,,,,,,,,,,,,,,1892.7182196200592,None,1894.7402304840507,1896.2609159710119,1896.2442223050168,None,1897.7816042039776,None,1.0,1.5023291719844565,1899.7702089169761,None,1899.7702089169761,None,1899.7702089169761,None,1901.3577183160232,None,1901.3577183160232,1902.3603629600257,1903.4632836730452,None,1903.4632836730452,None,0,0.3132392449770123,1903.4632836730448,None,1903.814207677031,1905.4518784229876,None,None,,,,,,,,,,,,,117.0,1,19,0,2020_Feb_26_1201,Test,3.2.4,59.83990778693342
99,Pictures/IA75_G30.bmp,Pictures/IA75_G30.bmp,Pictures/IA75.bmp,"

Be bold, gamble!""""",1,risk,,,,,4.0,0.0,4.0,0.0,0.0,4.0,4.0,16.0,,,,,,,,,,,,,,,,,,,,,,,,,,,,,,,1905.4685791590018,None,1907.4905975019794,1909.0112745710649,1908.9945814360399,None,1910.5319612040184,None,1.0,0.29594486101996154,1912.5205810050247,None,1912.5205810050247,None,1912.5205810050247,None,1912.9216113450238,None,1912.9216113450238,1913.924255370046,1915.0271768950624,None,1915.0271768950624,None,0,0.40534666599705815,1915.0271768950624,None,1915.4783631439786,1917.015761419083,None,None,,,,,,,,,,,,,117.0,1,19,0,2020_Feb_26_1201,Test,3.2.4,59.83990778693342
100,Pictures/IA100_G40.bmp,Pictures/IA100_G40.bmp,Pictures/IA100.bmp,"

Try your luck and gamble!""""",1,risk,,,,,4.0,0.0,4.0,0.0,0.0,5.0,5.0,2.0,,,,,,,,,,,,,,,,,,,,,,,,,,,,,,,1917.0324824809795,None,1919.0544940930558,1920.5751814820105,1920.5584569590867,None,1922.0958629579982,None,1.0,1.1000896189361808,1924.0844440340295,None,1924.0844440340297,None,1924.0844440340297,None,1925.2876344299875,None,1925.2876344299875,1926.2902768870117,1927.3931982450886,None,1927.3931982450886,None,0,0.7193229069234803,1927.3931982450888,None,1928.1618813530076,1929.3984845350496,None,None,,,,,,,,,,,,,117.0,1,19,0,2020_Feb_26_1201,Test,3.2.4,59.83990778693342
101,Pictures/IA100_L40.bmp,Pictures/IA100_L40.bmp,Pictures/IA100.bmp,"

Think of the payoff, gamble!""""",1,risk,,,,,4.0,0.0,4.0,0.0,0.0,6.0,6.0,9.0,,,,,,,,,,,,,,,,,,,,,,,,,,,,,,,1929.4152050820412,None,1931.4372157960895,1932.9579029689774,1932.9411797210341,None,1934.4451652209973,None,1.0,0.7253695470280945,1936.4671648440417,None,1936.4671648440417,None,1936.4671648440417,None,1937.3194285880309,None,1937.3194285880309,1938.322075714008,1939.4250087760156,None,1939.4250087760156,None,0,0.743512160028331,1939.4250087760156,None,1940.2103990170872,1941.4135769370478,None,None,,,,,,,,,,,,,117.0,1,19,0,2020_Feb_26_1201,Test,3.2.4,59.83990778693342
102,Pictures/IA50_L20.bmp,Pictures/IA50_L20.bmp,Pictures/IA50.bmp,"

Certainty is boring, take a risk!""""",1,risk,,,,,4.0,0.0,4.0,0.0,0.0,7.0,7.0,7.0,,,,,,,,,,,,,,,,,,,,,,,,,,,,,,,1941.430280408007,None,1943.4522917160064,1944.972969544004,1944.9562812950462,None,1946.4769461050164,None,1.0,0.8302544950274751,1948.482264862978,None,1948.482264862978,None,1948.482264862978,None,1949.4180639830884,None,1949.4180639830884,1950.4207105779788,1951.5236321990378,None,1951.5236321990378,None,0,0.3728931500809267,1951.5236321990378,None,1951.9413982980186,1953.5122063440504,None,None,,,,,,,,,,,,,117.0,1,19,0,2020_Feb_26_1201,Test,3.2.4,59.83990778693342
103,Pictures/IA75_G15.bmp,Pictures/IA75_G15.bmp,Pictures/IA75.bmp,"

Take a chance!""""",1,risk,,,,,4.0,0.0,4.0,0.0,0.0,8.0,8.0,11.0,,,,,,,,,,,,,,,,,,,,,,,,,,,,,,,1953.5289261710132,None,1955.5509422000032,1957.0548967929792,1957.0382012840128,None,1958.575596224051,None,1.0,0.5556461670203134,1960.5808975260006,None,1960.5808975260006,None,1960.5808975260006,None,1961.2326114900643,None,1961.2326114900643,1962.235257419059,1963.3381766650127,None,1963.3381766650127,None,0,0.30234171205665916,1963.3381766650127,None,1963.6890967420768,1965.3267679780256,None,None,,,,,,,,,,,,,117.0,1,19,0,2020_Feb_26_1201,Test,3.2.4,59.83990778693342
104,Pictures/IA50_G10.bmp,Pictures/IA50_G10.bmp,Pictures/IA50.bmp,"

Go with the safe option here!""""",0,safe,,,,,4.0,0.0,4.0,0.0,0.0,9.0,9.0,14.0,,,,,,,,,,,,,,,,,,,,,,,,,,,,,,,1965.3434658210026,None,1967.3654783020029,1968.8861623320263,1968.869467662065,None,1970.3734285830287,None,1.0,1.0050772710237652,1972.395451275981,None,1972.395451275981,None,1972.395451275981,None,1973.5317910240265,None,1973.5317910240265,1974.5846193550387,1975.654054866056,None,1975.654054866056,None,1,1.8424735949374735,1975.654054866056,None,None,None,1977.5423698480008,None,,,,,,,,,,,,,117.0,1,19,0,2020_Feb_26_1201,Test,3.2.4,59.83990778693342
105,Pictures/IA25_L10.bmp,Pictures/IA25_L10.bmp,Pictures/IA25.bmp,"

Dont be afraid to take the risk!""""",1,risk,,,,,4.0,0.0,4.0,0.0,0.0,10.0,10.0,8.0,,,,,,,,,,,,,,,,,,,,,,,,,,,,,,,1977.6593500240706,None,1979.6813582780305,1981.2020405969813,1981.185345513979,None,1982.7227291329764,None,1.0,0.9292160279583186,1984.7113292440768,None,1984.7113292440772,None,1984.7113292440772,None,1985.764103027992,None,1985.764103027992,1986.766747944057,1987.8696633280488,None,1987.8696633280488,None,0,0.7868497599847615,1987.8696633280488,None,1988.7052155940328,1989.8749770560535,None,None,,,,,,,,,,,,,117.0,1,19,0,2020_Feb_26_1201,Test,3.2.4,59.83990778693342
106,Pictures/IA75_L45.bmp,Pictures/IA75_L45.bmp,Pictures/IA75.bmp,"

Don't gamble for this one, play it safe.""""",0,safe,,,,,4.0,0.0,4.0,0.0,0.0,11.0,11.0,6.0,,,,,,,,,,,,,,,,,,,,,,,,,,,,,,,1989.891670664074,None,1991.9136818900006,1993.4343603930906,1993.4176710840547,None,1994.9216303650755,None,1.0,0.8728832859778777,1996.94365367305,None,1996.94365367305,None,1996.94365367305,None,1997.9630144640105,None,1997.9630144640105,1998.9656578900758,2000.0685798290651,None,2000.0685798290651,None,0,0.25993990199640393,2000.0685798290651,None,2000.3693610350601,2002.073873389978,None,None,,,,,,,,,,,,,117.0,1,19,0,2020_Feb_26_1201,Test,3.2.4,59.83990778693342
107,Pictures/IA25_G20.bmp,Pictures/IA25_G20.bmp,Pictures/IA25.bmp,"

I wouldn't gamble for this one. """"",0,safe,,,,,4.0,0.0,4.0,0.0,0.0,12.0,12.0,5.0,,,,,,,,,,,,,,,,,,,,,,,,,,,,,,,2002.0905734320404,None,2004.1125886810478,2005.6332681260535,2005.6165917880132,None,2007.153956210008,None,1.0,0.5699796531116589,2009.142557997024,None,2009.1425579970237,None,2009.1425579970237,None,2009.8444134100573,None,2009.8444134100573,2010.8470600519795,2011.9834021499846,None,2011.9834021499846,None,0,0.249114788020961,2011.9834021499848,None,2012.2674779560184,2013.9719688110054,None,None,,,,,,,,,,,,,117.0,1,19,0,2020_Feb_26_1201,Test,3.2.4,59.83990778693342
108,Pictures/IA50_L30.bmp,Pictures/IA50_L30.bmp,Pictures/IA50.bmp,"

Take a leap, I think you should gamble.""""",1,risk,,,,,4.0,0.0,4.0,0.0,0.0,13.0,13.0,13.0,,,,,,,,,,,,,,,,,,,,,,,,,,,,,,,2013.9886934449896,None,2016.0107059050354,2017.53139220702,2017.5146716620075,None,2019.0520761440275,None,1.0,0.6078789769671857,2021.0406547520543,None,2021.0406547520543,None,2021.0406547520543,None,2021.7926046110224,None,2021.7926046110224,2022.7952877860516,2023.898207574035,None,2023.898207574035,None,0,0.806316657923162,2023.898207574035,None,2024.7504516000627,2025.8867870169925,None,None,,,,,,,,,,,,,117.0,1,19,0,2020_Feb_26_1201,Test,3.2.4,59.83990778693342
109,Pictures/IA50_L10.bmp,Pictures/IA50_L10.bmp,Pictures/IA50.bmp,"

Play it safe, don’t gamble!""""",0,safe,,,,,4.0,0.0,4.0,0.0,0.0,14.0,14.0,4.0,,,,,,,,,,,,,,,,,,,,,,,,,,,,,,,2025.9035151300486,None,2027.925524653052,2029.446207609028,2029.4294870800804,None,2031.0003174920566,None,1.0,0.5810469319112599,2032.9554741140455,None,2032.9554741140455,None,2032.9554741140455,None,2033.6573308210354,None,2033.6573308210354,2034.6599710400915,2035.7628931640647,None,2035.7628931640647,None,0,0.2456289159599692,2035.7628931640647,None,2036.0469733780483,2037.75149019307,None,None,,,,,,,,,,,,,117.0,1,19,0,2020_Feb_26_1201,Test,3.2.4,59.83990778693342
110,Pictures/IA25_G15.bmp,Pictures/IA25_G15.bmp,Pictures/IA25.bmp,"

I think you should take a gamble.""""",1,risk,,,,,4.0,0.0,4.0,0.0,0.0,15.0,15.0,15.0,,,,,,,,,,,,,,,,,,,,,,,,,,,,,,,2037.7681867160136,None,2039.7902013070416,2041.3108820520572,2041.2941899939906,None,2042.8315698180813,None,1.0,0.6043623971054329,2044.8201713060266,None,2044.8201713060262,None,2044.8201713060262,None,2045.5554114740808,None,2045.5554114740808,2046.5580925260438,2047.661013166071,None,2047.661013166071,None,0,0.2355023060226813,2047.661013166071,None,2047.9450943180127,2049.6663057410624,None,None,,,,,,,,,,,,,117.0,1,19,0,2020_Feb_26_1201,Test,3.2.4,59.83990778693342
111,Pictures/IA100_L60.bmp,Pictures/IA100_L60.bmp,Pictures/IA100.bmp,"

You'd have a lot to lose, don't gamble.""""",0,safe,,,,,4.0,0.0,4.0,0.0,0.0,16.0,16.0,0.0,,,,,,,,,,,,,,,,,,,,,,,,,,,,,,,2049.6830050729914,None,2051.7050173419993,2053.2257002230035,2053.2090076970635,None,2054.746391452034,None,1.0,1.5535312910797074,2056.734991391073,None,2056.734991391073,None,2056.734991391073,None,2058.422782905982,None,2058.422782905982,2059.4254299890017,2060.5450605259975,None,2060.5450605259975,None,0,0.7114848340861499,2060.5450605259975,None,2061.2970797020243,2062.5336345960386,None,None,,,,,,,,,,,,,117.0,1,19,0,2020_Feb_26_1201,Test,3.2.4,59.83990778693342
112,Pictures/IA110_55_L95p.bmp,Pictures/IA110_55_L95p.bmp,Pictures/IA110.bmp,"

Trust me, gamble!""""",1,risk,,,,,4.0,0.0,4.0,0.0,0.0,17.0,17.0,18.0,,,,,,,,,,,,,,,,,,,,,,,,,,,,,,,2062.5503545460524,None,2064.5723708710866,2066.0930624160683,2066.076329871081,None,2067.613736259984,None,1.0,0.7182148400461301,2069.6023144799983,None,2069.6023144799983,None,2069.6023144799983,None,2070.421144524007,None,2070.421144524007,2071.423789176042,2072.5267102660146,None,2072.5267102660146,None,1,0.3698125239461661,2072.5267102660146,None,None,None,2072.9444750950206,2074.5153074340196,,,,,,,,,,,,,117.0,1,19,0,2020_Feb_26_1201,Test,3.2.4,59.83990778693342
113,Pictures/IA25_G5.bmp,Pictures/IA25_G5.bmp,Pictures/IA25.bmp,"

Let's stay with the certain option.""""",0,safe,,,,,4.0,0.0,4.0,0.0,0.0,18.0,18.0,12.0,,,,,,,,,,,,,,,,,,,,,,,,,,,,,,,2074.5320075540803,None,2076.5540186570724,2078.0747012950014,2078.0580062300432,None,2079.628808879992,None,1.0,0.9205395720200612,2081.583989378996,None,2081.583989378996,None,2081.583989378996,None,2082.6367801950546,None,2082.6367801950546,2083.639401713037,2084.7590378110763,None,2084.7590378110763,None,1,0.7934947010362521,2084.7590378110763,None,None,None,2085.5945865350077,2086.7643302270444,,,,,,,,,,,,,117.0,1,19,0,2020_Feb_26_1201,Test,3.2.4,59.83990778693342
114,Pictures/IA75_L15.bmp,Pictures/IA75_L15.bmp,Pictures/IA75.bmp,"

Trust me–gamble!""""",1,risk,,,,,4.0,0.0,4.0,0.0,0.0,19.0,19.0,3.0,,,,,,,,,,,,,,,,,,,,,,,,,,,,,,,2086.7810574839823,None,2088.8030657460913,2090.323748121038,2090.307027499075,None,2091.8277238040464,None,1.0,0.6235048460075632,2093.8330251170555,None,2093.8330251170555,None,2093.8330251170555,None,2094.5682877110085,None,2094.5682877110085,2095.570934046991,2096.7072738229763,None,2096.7072738229763,None,0,1.245253281085752,2096.7072738229763,None,2097.994004772976,None,None,None,,,,,,,,,,,,,117.0,1,19,0,2020_Feb_26_1201,Test,3.2.4,59.83990778693342
116,Pictures/IA75_L15.bmp,Pictures/IA75_L15.bmp,Pictures/IA75.bmp,"

Trust me–gamble!""""",1,risk,,,,,5.0,0.0,5.0,0.0,0.0,0.0,0.0,5.0,,,,,,,,,,,,,2104.5112328400132,None,2104.5112328400137,None,2104.5112328400137,None,1,1.7692940670531243,2104.5112328400132,None,2104.5112328400137,None,2104.5112328400137,None,return,2.441096552996896,2104.5112328400132,None,2107.001144348993,None,2109.0064522679895,2110.52713539009,2110.510416537989,None,2112.014403269044,None,1.0,1.2841319059953094,2114.036405391991,None,2114.036405391991,None,2114.036405391991,None,2115.406690013013,None,2115.406690013013,2116.4093281460227,2117.5122523850296,None,2117.5122523850296,None,None,,2117.5122523850296,None,None,None,None,None,,,,,,,,,,,,,117.0,1,19,0,2020_Feb_26_1201,Test,3.2.4,59.83990778693342
117,Pictures/IA75_G60.bmp,Pictures/IA75_G60.bmp,Pictures/IA75.bmp,"

Make it exciting, take a chance!""""",1,risk,,,,,5.0,0.0,5.0,0.0,0.0,1.0,1.0,12.0,,,,,,,,,,,,,,,,,,,,,,,,,,,,,,,2119.517549780081,None,2121.5395600569896,2123.060243124026,2123.043546978035,None,2124.5809345319867,None,1.0,0.7909888719441369,2126.569539764081,None,2126.569539764081,None,2126.569539764081,None,2127.4886343650287,None,2127.4886343650287,2128.491273459047,2129.6108911460033,None,2129.6108911460033,None,0,0.293628397048451,2129.6108911460033,None,2129.9451182649937,2131.616198559059,None,None,,,,,,,,,,,,,117.0,1,19,0,2020_Feb_26_1201,Test,3.2.4,59.83990778693342
118,Pictures/IA100_G80.bmp,Pictures/IA100_G80.bmp,Pictures/IA100.bmp,"

Why not gamble?""""",1,risk,,,,,5.0,0.0,5.0,0.0,0.0,2.0,2.0,13.0,,,,,,,,,,,,,,,,,,,,,,,,,,,,,,,2131.632897129981,None,2133.6549092710484,2135.175592996064,2135.158897647052,None,2136.6962792240083,None,1.0,0.5076497070258483,2138.6848824680787,None,2138.6848824680783,None,2138.6848824680783,None,2139.286470129038,None,2139.286470129038,2140.289128578035,2141.392036714009,None,2141.392036714009,None,0,0.41647520603146404,2141.392036714009,None,2141.843228224083,2143.3806203090353,None,None,,,,,,,,,,,,,117.0,1,19,0,2020_Feb_26_1201,Test,3.2.4,59.83990778693342
119,Pictures/IA25_L20.bmp,Pictures/IA25_L20.bmp,Pictures/IA25.bmp,"

Don't be tempted to gamble.""""",0,safe,,,,,5.0,0.0,5.0,0.0,0.0,3.0,3.0,15.0,,,,,,,,,,,,,,,,,,,,,,,,,,,,,,,2143.3973181489855,None,2145.4193314469885,2146.940013822983,2146.9233205590867,None,2148.460702510085,None,1.0,0.8392453570850194,2150.449305099086,None,2150.449305099086,None,2150.449305099086,None,2151.418529069051,None,2151.418529069051,2152.4211749220267,2153.52409945603,None,2153.52409945603,None,1,0.30842371797189116,2153.52409945603,None,None,None,2153.875017898041,2155.5126706110314,,,,,,,,,,,,,117.0,1,19,0,2020_Feb_26_1201,Test,3.2.4,59.83990778693342
120,Pictures/IA100_G40.bmp,Pictures/IA100_G40.bmp,Pictures/IA100.bmp,"

Try your luck and gamble!""""",1,risk,,,,,5.0,0.0,5.0,0.0,0.0,4.0,4.0,14.0,,,,,,,,,,,,,,,,,,,,,,,,,,,,,,,2155.5293906820007,None,2157.551401359029,2159.072085914085,2159.0553680040175,None,2160.5593531010672,None,1.0,0.5311766139930114,2162.5813529110746,None,2162.5813529110746,None,2162.5813529110746,None,2163.2330937000224,None,2163.2330937000224,2164.235732382047,2165.338655770058,None,2165.338655770058,None,0,0.261864494998008,2165.338655770058,None,2165.6393951880746,2167.343947899062,None,None,,,,,,,,,,,,,117.0,1,19,0,2020_Feb_26_1201,Test,3.2.4,59.83990778693342
121,Pictures/IA75_L45.bmp,Pictures/IA75_L45.bmp,Pictures/IA75.bmp,"

Don't gamble for this one, play it safe.""""",0,safe,,,,,5.0,0.0,5.0,0.0,0.0,5.0,5.0,11.0,,,,,,,,,,,,,,,,,,,,,,,,,,,,,,,2167.3606444849866,None,2169.382657103008,2170.9033379850443,2170.886644012993,None,2172.4240271290764,None,1.0,0.6599117140285671,2174.412628761027,None,2174.412628761027,None,2174.412628761027,None,2175.2147342690732,None,2175.2147342690732,2176.2173841220792,2177.3370167500107,None,2177.3370167500107,None,0,0.7195078720105812,2177.3370167500107,None,2177.821622102987,2179.3255954079796,None,None,,,,,,,,,,,,,117.0,1,19,0,2020_Feb_26_1201,Test,3.2.4,59.83990778693342
122,Pictures/IA25_G10.bmp,Pictures/IA25_G10.bmp,Pictures/IA25.bmp,"

What's life without a little risk?""""",1,risk,,,,,5.0,0.0,5.0,0.0,0.0,6.0,6.0,10.0,,,,,,,,,,,,,,,,,,,,,,,,,,,,,,,2179.342318458017,None,2181.364331846009,2182.8850127310725,2182.8682949320646,None,2184.4224115860416,None,1.0,0.5902371880365536,2186.394293367979,None,2186.394293367979,None,2186.394293367979,None,2187.1128460310865,None,2187.1128460310865,2188.1154894590145,2189.2184100319864,None,2189.2184100319864,None,0,0.4781038110377267,2189.2184100319864,None,2189.7364430170273,2191.206994586042,None,None,,,,,,,,,,,,,117.0,1,19,0,2020_Feb_26_1201,Test,3.2.4,59.83990778693342
123,Pictures/IA110_55_G95p.bmp,Pictures/IA110_55_G95p.bmp,Pictures/IA110.bmp,"

Take a chance!""""",1,risk,,,,,5.0,0.0,5.0,0.0,0.0,7.0,7.0,4.0,,,,,,,,,,,,,,,,,,,,,,,,,,,,,,,2191.223718118039,None,2193.2457321480615,2194.766411746037,2194.7496941830027,None,2196.2536811310565,None,1.0,1.4128509649308398,2198.275678242091,None,2198.275678242091,None,2198.275678242091,None,2199.779650646029,None,2199.779650646029,2200.7822949939873,2201.9186374989804,None,2201.9186374989804,None,0,0.8178761190501973,2201.9186374989804,None,2202.7708899900317,2203.907219491084,None,None,,,,,,,,,,,,,117.0,1,19,0,2020_Feb_26_1201,Test,3.2.4,59.83990778693342
124,Pictures/IA50_L30.bmp,Pictures/IA50_L30.bmp,Pictures/IA50.bmp,"

Take a leap, I think you should gamble.""""",1,risk,,,,,5.0,0.0,5.0,0.0,0.0,8.0,8.0,7.0,,,,,,,,,,,,,,,,,,,,,,,,,,,,,,,2203.923946922063,None,2205.94595502608,2207.4666414509993,2207.4499196590623,None,2208.953904150054,None,1.0,1.9366208369610831,2210.9759079529904,None,2210.9759079529904,None,2210.9759079529904,None,2213.0480569089996,None,2213.0480569089996,2214.0507131890627,2215.1703359810635,None,2215.1703359810635,None,0,1.806177828926593,2215.1703359810635,None,2217.0252360730665,None,None,None,,,,,,,,,,,,,117.0,1,19,0,2020_Feb_26_1201,Test,3.2.4,59.83990778693342
125,Pictures/IA40_20_L95p.bmp,Pictures/IA40_20_L95p.bmp,Pictures/IA40.bmp,"

Trust me, gamble!""""",1,risk,,,,,5.0,0.0,5.0,0.0,0.0,9.0,9.0,19.0,,,,,,,,,,,,,,,,,,,,,,,,,,,,,,,2217.1756191860186,None,2219.197627407033,2220.718314083992,2220.7015810500598,None,2222.2389994610567,None,1.0,1.7569325770018622,2224.227602678002,None,2224.227602678002,None,2224.227602678002,None,2226.0992005610606,None,2226.0992005610606,2227.101845885976,2228.204767248011,None,2228.204767248011,None,1,0.2837471269303933,2228.204767248011,None,None,None,2228.5222692789976,2230.1933523620246,,,,,,,,,,,,,117.0,1,19,0,2020_Feb_26_1201,Test,3.2.4,59.83990778693342
126,Pictures/IA75_L30.bmp,Pictures/IA75_L30.bmp,Pictures/IA75.bmp,"

Hold back, stay with the safe choice.""""",0,safe,,,,,5.0,0.0,5.0,0.0,0.0,10.0,10.0,18.0,,,,,,,,,,,,,,,,,,,,,,,,,,,,,,,2230.2100766160293,None,2232.232084481977,2233.752769411076,2233.7360534369946,None,2235.2734541610116,None,1.0,0.9225009380606934,2237.2620338930283,None,2237.2620338930283,None,2237.2620338930283,None,2238.3315371699864,None,2238.3315371699864,2239.3341839290224,2240.4371040510014,None,2240.4371040510014,None,0,0.3074193760985509,2240.4371040510014,None,2240.7880281220423,2242.442397098057,None,None,,,,,,,,,,,,,117.0,1,19,0,2020_Feb_26_1201,Test,3.2.4,59.83990778693342
127,Pictures/IA25_G15.bmp,Pictures/IA25_G15.bmp,Pictures/IA25.bmp,"

I think you should take a gamble.""""",1,risk,,,,,5.0,0.0,5.0,0.0,0.0,11.0,11.0,2.0,,,,,,,,,,,,,,,,,,,,,,,,,,,,,,,2242.4590971299913,None,2244.4811228580074,2246.001794203068,2245.9851020909846,None,2247.4890672899783,None,2.0,0.7614424909697846,2249.511084301048,None,2249.511084301048,None,2249.511084301048,None,None,None,None,None,2250.480311357067,None,2250.480311357067,None,0,0.4882085049757734,2250.480311357067,None,2251.015055290074,2252.468891669996,None,None,,,,,,,,,,,,,117.0,1,19,0,2020_Feb_26_1201,Test,3.2.4,59.83990778693342
128,Pictures/IA80_40_L95p.bmp,Pictures/IA80_40_L95p.bmp,Pictures/IA80.bmp,"

Let's stay with the certain option.""""",0,safe,,,,,5.0,0.0,5.0,0.0,0.0,12.0,12.0,3.0,,,,,,,,,,,,,,,,,,,,,,,,,,,,,,,2252.4856070680544,None,2254.5076098340796,2256.0282878840812,2256.011599947,None,2257.548975727055,None,1.0,1.7669446610379964,2259.537578204065,None,2259.5375782040646,None,2259.5375782040646,None,2261.4426005410496,None,2261.4426005410496,2262.445246931049,2263.5481680129888,None,2263.5481680129888,None,1,0.30035241902805865,2263.5481680129888,None,None,None,2263.88238878001,2265.5534737249836,,,,,,,,,,,,,117.0,1,19,0,2020_Feb_26_1201,Test,3.2.4,59.83990778693342
129,Pictures/IA25_L5.bmp,Pictures/IA25_L5.bmp,Pictures/IA25.bmp,"

It would be smarter to choose the safe option.""""",0,safe,,,,,5.0,0.0,5.0,0.0,0.0,13.0,13.0,6.0,,,,,,,,,,,,,,,,,,,,,,,,,,,,,,,2265.5701695960015,None,2267.5921830220614,2269.112865347066,2269.0961700030607,None,2270.633556905086,None,1.0,0.602370240027085,2272.622153981007,None,2272.6221539810067,None,2272.6221539810067,None,2273.37414646009,None,2273.37414646009,2274.3767865980044,2275.4964121209923,None,2275.4964121209923,None,0,0.3521006560185924,2275.4964121209923,None,2275.897475126083,2277.5017258230364,None,None,,,,,,,,,,,,,117.0,1,19,0,2020_Feb_26_1201,Test,3.2.4,59.83990778693342
130,Pictures/IA50_L10.bmp,Pictures/IA50_L10.bmp,Pictures/IA50.bmp,"

Play it safe, don’t gamble!""""",0,safe,,,,,5.0,0.0,5.0,0.0,0.0,14.0,14.0,9.0,,,,,,,,,,,,,,,,,,,,,,,,,,,,,,,2277.5184137130855,None,2279.540423060069,2281.0444108219817,2281.027687721071,None,2282.5483765780227,None,2.0,0.6461273430613801,2284.570395327988,None,2284.570395327988,None,2284.570395327988,None,None,None,None,None,2285.3725146470824,None,2285.3725146470824,None,0,1.020005411002785,2285.3725146470824,None,2286.4419933389872,None,None,None,,,,,,,,,,,,,117.0,1,19,0,2020_Feb_26_1201,Test,3.2.4,59.83990778693342
131,Pictures/IA75_G30.bmp,Pictures/IA75_G30.bmp,Pictures/IA75.bmp,"

Be bold, gamble!""""",1,risk,,,,,5.0,0.0,5.0,0.0,0.0,15.0,15.0,8.0,,,,,,,,,,,,,,,,,,,,,,,,,,,,,,,2287.3945208999794,None,2289.4165600209963,2290.937219075044,2290.92049747298,None,2292.457903216011,None,2.0,0.8820467569166794,2294.4464824720053,None,2294.4464824720053,None,2294.4464824720053,None,None,None,None,None,2295.4825656140456,None,2295.4825656140456,None,0,0.5019557330524549,2295.4825656140456,None,2296.034008053015,2297.471148101031,None,None,,,,,,,,,,,,,117.0,1,19,0,2020_Feb_26_1201,Test,3.2.4,59.83990778693342
132,Pictures/IA25_L10.bmp,Pictures/IA25_L10.bmp,Pictures/IA25.bmp,"

Dont be afraid to take the risk!""""",1,risk,,,,,5.0,0.0,5.0,0.0,0.0,16.0,16.0,0.0,,,,,,,,,,,,,,,,,,,,,,,,,,,,,,,2297.487862433074,None,2299.509864198044,2301.030545192072,2301.013849031995,None,2302.534523494076,None,2.0,0.9327099500223994,2304.5398235750617,None,2304.5398235750617,None,2304.5398235750617,None,None,None,None,None,2305.6260360630695,None,2305.6260360630695,None,0,0.26248780195601285,2305.626036063069,None,2305.9268150650896,2307.6313308629906,None,None,,,,,,,,,,,,,117.0,1,19,0,2020_Feb_26_1201,Test,3.2.4,59.83990778693342
133,Pictures/IA100_L40.bmp,Pictures/IA100_L40.bmp,Pictures/IA100.bmp,"

Think of the payoff, gamble!""""",1,risk,,,,,5.0,0.0,5.0,0.0,0.0,17.0,17.0,17.0,,,,,,,,,,,,,,,,,,,,,,,,,,,,,,,2307.6480341760907,None,2309.670044008061,2311.190726264031,2311.1740332629997,None,2312.711412379984,None,2.0,0.8205083799548447,2314.700015466078,None,2314.700015466078,None,2314.700015466078,None,None,None,None,None,2315.7026590540772,None,2315.7026590540772,None,0,0.3538672529393807,2315.7026590540772,None,2316.103719167062,2317.707958652056,None,None,,,,,,,,,,,,,117.0,1,19,0,2020_Feb_26_1201,Test,3.2.4,59.83990778693342
134,Pictures/IA50_L20.bmp,Pictures/IA50_L20.bmp,Pictures/IA50.bmp,"

Certainty is boring, take a risk!""""",1,risk,,,,,5.0,0.0,5.0,0.0,0.0,18.0,18.0,16.0,,,,,,,,,,,,,,,,,,,,,,,,,,,,,,,2317.724656534032,None,2319.746669150074,2321.2673526880103,2321.2506599590415,None,2322.788041201071,None,2.0,0.3118700539926067,2324.7766549930675,None,2324.7766549930675,None,2324.7766549930675,None,None,None,None,None,2325.244546423084,None,2325.244546423084,None,0,0.019989563967101283,2325.244546423084,None,2325.311372259981,2327.2498264800524,None,None,,,,,,,,,,,,,117.0,1,19,0,2020_Feb_26_1201,Test,3.2.4,59.83990778693342
135,Pictures/IA110_55_L95p.bmp,Pictures/IA110_55_L95p.bmp,Pictures/IA110.bmp,"

Trust me, gamble!""""",1,risk,,,,,5.0,0.0,5.0,0.0,0.0,19.0,19.0,1.0,,,,,,,,,,,,,,,,,,,,,,,,,,,,,,,2327.266551721026,None,2329.288587970077,2330.809248415986,2330.792494761059,None,2332.296516822069,None,1.0,0.3620094230864197,2334.3185132570798,None,2334.3185132570798,None,2334.3185132570798,None,2334.7697159340605,None,2334.7697159340605,2335.7723607569933,2336.8919925160008,None,2336.8919925160008,None,1,0.22852756595239046,2336.8919925160008,None,None,None,2337.159349580994,2338.897276810021,,,,,,,,,,,,,117.0,1,19,0,2020_Feb_26_1201,Test,3.2.4,59.83990778693342
137,Pictures/IA20_10_G95p.bmp,Pictures/IA20_10_G95p.bmp,Pictures/IA20.bmp,"

Take a leap, I think you should gamble.""""",1,risk,,,,,6.0,0.0,6.0,0.0,0.0,0.0,0.0,7.0,,,,,,,,,,,,,2343.542901630979,None,2343.542901630979,None,2343.542901630979,None,1,1.9776277389610184,2343.542901630979,None,2343.542901630979,None,2343.542901630979,None,return,2.281432759016752,2343.542901630979,None,2345.88241195702,None,2347.8876998000783,2349.40838579298,2349.3916898000753,None,2350.912371554994,None,1.0,1.7795817469013857,2352.9009502980625,None,2352.9009502980625,None,2352.9009502980625,None,2354.822691987036,None,2354.822691987036,2355.825304144062,2356.92826101603,None,2356.92826101603,None,0,0.3042589989490807,2356.92826101603,None,2357.2791832310613,2358.933555810014,None,None,,,,,,,,,,,,,117.0,1,19,0,2020_Feb_26_1201,Test,3.2.4,59.83990778693342
138,Pictures/IA100_G80.bmp,Pictures/IA100_G80.bmp,Pictures/IA100.bmp,"

Why not gamble?""""",1,risk,,,,,6.0,0.0,6.0,0.0,0.0,1.0,1.0,10.0,,,,,,,,,,,,,,,,,,,,,,,,,,,,,,,2358.950282709091,None,2360.9722905029776,2362.492984091048,2362.476256187074,None,2363.9969477410195,None,1.0,0.4302737530088052,2366.0022551760776,None,2366.0022551760776,None,2366.0022551760776,None,2366.5202720829984,None,2366.5202720829984,2367.5229190430837,2368.642551214085,None,2368.642551214085,None,1,0.24596780503634363,2368.642551214085,None,None,None,2368.9266288890503,2370.6311468860367,,,,,,,,,,,,,117.0,1,19,0,2020_Feb_26_1201,Test,3.2.4,59.83990778693342
139,Pictures/IA75_G30.bmp,Pictures/IA75_G30.bmp,Pictures/IA75.bmp,"

Be bold, gamble!""""",1,risk,,,,,6.0,0.0,6.0,0.0,0.0,2.0,2.0,0.0,,,,,,,,,,,,,,,,,,,,,,,,,,,,,,,2370.6478452740703,None,2372.6698544690157,2374.190543647041,2374.1738444230286,None,2375.7112243480515,None,2.0,0.4846838770899922,2377.699834424071,None,2377.699834424071,None,2377.699834424071,None,None,None,None,None,2378.351537883049,None,2378.351537883049,None,0,0.36897881003096705,2378.351537883049,None,2378.769312068005,2380.340131069068,None,None,,,,,,,,,,,,,117.0,1,19,0,2020_Feb_26_1201,Test,3.2.4,59.83990778693342
140,Pictures/IA110_55_L95p.bmp,Pictures/IA110_55_L95p.bmp,Pictures/IA110.bmp,"

Trust me, gamble!""""",1,risk,,,,,6.0,0.0,6.0,0.0,0.0,3.0,3.0,11.0,,,,,,,,,,,,,,,,,,,,,,,,,,,,,,,2380.356834114995,None,2382.3788484360557,2383.8995295900386,2383.8828331850236,None,2385.420216411003,None,1.0,0.4717090369667858,2387.4088254510425,None,2387.4088254510425,None,2387.4088254510425,None,2387.9769856110215,None,2387.9769856110215,2388.979630738031,2390.0825526630506,None,2390.0825526630506,None,1,0.26997076196130365,2390.0825526630506,None,None,None,2390.4000524079893,2392.0711340920534,,,,,,,,,,,,,117.0,1,19,0,2020_Feb_26_1201,Test,3.2.4,59.83990778693342
141,Pictures/IA100_L40.bmp,Pictures/IA100_L40.bmp,Pictures/IA100.bmp,"

Think of the payoff, gamble!""""",1,risk,,,,,6.0,0.0,6.0,0.0,0.0,4.0,4.0,5.0,,,,,,,,,,,,,,,,,,,,,,,,,,,,,,,2392.087834374048,None,2394.109845084022,2395.630527976085,2395.613851209986,None,2397.117792500998,None,1.0,1.0447093439288435,2399.1398202839773,None,2399.1398202839773,None,2399.1398202839773,None,2400.309575373074,None,2400.309575373074,2401.312220323016,2402.4151412600186,None,2402.4151412600186,None,0,0.3133774559246376,2402.4151412600186,None,2402.7660644430434,2404.4037085589953,None,None,,,,,,,,,,,,,117.0,1,19,0,2020_Feb_26_1201,Test,3.2.4,59.83990778693342
142,Pictures/IA100_G20.bmp,Pictures/IA100_G20.bmp,Pictures/IA100.bmp,"

Go ahead and gamble!""""",1,risk,,,,,6.0,0.0,6.0,0.0,0.0,5.0,5.0,6.0,,,,,,,,,,,,,,,,,,,,,,,,,,,,,,,2404.4204347090563,None,2406.4424469909864,2407.9631373420125,2407.946410804056,None,2409.467112958082,None,1.0,1.2401237390004098,2411.472407581983,None,2411.472407581983,None,2411.472407581983,None,2412.80927307799,None,2412.80927307799,2413.8119185620453,2414.9148415760137,None,2414.9148415760137,None,0,0.5176790269324556,2414.9148415760137,None,2415.4662928390317,2416.9034090930363,None,None,,,,,,,,,,,,,117.0,1,19,0,2020_Feb_26_1201,Test,3.2.4,59.83990778693342
143,Pictures/IA75_L30.bmp,Pictures/IA75_L30.bmp,Pictures/IA75.bmp,"

Hold back, stay with the safe choice.""""",0,safe,,,,,6.0,0.0,6.0,0.0,0.0,6.0,6.0,17.0,,,,,,,,,,,,,,,,,,,,,,,,,,,,,,,2416.92013361305,None,2418.942147755064,2420.462829447002,2420.44610897603,None,2421.9500940790167,None,2.0,1.3404390800278634,2423.97209371801,None,2423.97209371801,None,2423.97209371801,None,None,None,None,None,2425.526201097993,None,2425.526201097993,None,0,0.7543265339918435,2425.526201097993,None,2426.3283338580513,2427.5315101820743,None,None,,,,,,,,,,,,,117.0,1,19,0,2020_Feb_26_1201,Test,3.2.4,59.83990778693342
144,Pictures/IA25_L10.bmp,Pictures/IA25_L10.bmp,Pictures/IA25.bmp,"

Dont be afraid to take the risk!""""",1,risk,,,,,6.0,0.0,6.0,0.0,0.0,7.0,7.0,13.0,,,,,,,,,,,,,,,,,,,,,,,,,,,,,,,2427.548207004089,None,2429.570217587985,2431.09090061998,2431.074210867984,None,2432.5781646460528,None,2.0,0.32034250802826136,2434.6001914740773,None,2434.6001914740773,None,2434.6001914740773,None,None,None,None,None,2435.1015023160726,None,2435.1015023160726,None,0,0.003029929008334875,2435.101502316073,None,2435.1516315640183,2437.0900878470857,None,None,,,,,,,,,,,,,117.0,1,19,0,2020_Feb_26_1201,Test,3.2.4,59.83990778693342
145,Pictures/IA40_20_L95p.bmp,Pictures/IA40_20_L95p.bmp,Pictures/IA40.bmp,"

Trust me, gamble!""""",1,risk,,,,,6.0,0.0,6.0,0.0,0.0,8.0,8.0,16.0,,,,,,,,,,,,,,,,,,,,,,,,,,,,,,,2437.106810781057,None,2439.128824152984,2440.64950358402,2440.632785461028,None,2442.1367710770573,None,1.0,0.9617588239489124,2444.1587706740247,None,2444.1587706740247,None,2444.1587706740247,None,2445.2115263600135,None,2445.2115263600135,2446.2142090160633,2447.317137790029,None,2447.317137790029,None,1,0.2833702591015026,2447.317137790029,None,None,None,2447.6346322520403,2449.3057108970825,,,,,,,,,,,,,117.0,1,19,0,2020_Feb_26_1201,Test,3.2.4,59.83990778693342
146,Pictures/IA100_L20.bmp,Pictures/IA100_L20.bmp,Pictures/IA100.bmp,"

Try to win as much money as you can, gamble!""""",1,risk,,,,,6.0,0.0,6.0,0.0,0.0,9.0,9.0,4.0,,,,,,,,,,,,,,,,,,,,,,,,,,,,,,,2449.3224189080065,None,2451.344423913979,2452.8484081710917,2452.831688078004,None,2454.3690843000077,None,2.0,1.698149068048224,2456.374382583075,None,2456.374382583075,None,2456.374382583075,None,None,None,None,None,2458.2794306890573,None,2458.2794306890573,None,0,0.6170914359390736,2458.2794306890573,None,2458.9311479229946,2460.2680131359957,None,None,,,,,,,,,,,,,117.0,1,19,0,2020_Feb_26_1201,Test,3.2.4,59.83990778693342
147,Pictures/IA25_L15.bmp,Pictures/IA25_L15.bmp,Pictures/IA25.bmp,"

There's not much on the line here, gamble!""""",1,risk,,,,,6.0,0.0,6.0,0.0,0.0,10.0,10.0,15.0,,,,,,,,,,,,,,,,,,,,,,,,,,,,,,,2460.284713375033,None,2462.306726657087,2463.8274089890765,2463.8107141120126,None,2465.3313853750005,None,2.0,1.2398476499365645,2467.3366859300295,None,2467.3366859300295,None,2467.3366859300295,None,None,None,None,None,2468.757118951995,None,2468.757118951995,None,0,0.2353919961024076,2468.757118951995,None,2469.0411877080332,2470.745699546067,None,None,,,,,,,,,,,,,117.0,1,19,0,2020_Feb_26_1201,Test,3.2.4,59.83990778693342
148,Pictures/IA25_G15.bmp,Pictures/IA25_G15.bmp,Pictures/IA25.bmp,"

I think you should take a gamble.""""",1,risk,,,,,6.0,0.0,6.0,0.0,0.0,11.0,11.0,2.0,,,,,,,,,,,,,,,,,,,,,,,,,,,,,,,2470.7624002320226,None,2472.784411621047,2474.3050949850585,2474.288400619989,None,2475.8090714639984,None,2.0,0.5301604189444333,2477.8143713410245,None,2477.8143713410245,None,2477.8143713410245,None,None,None,None,None,2478.5162428480107,None,2478.5162428480107,None,0,0.028281155042350292,2478.5162428480107,None,2478.5830682050437,2480.50482617307,None,None,,,,,,,,,,,,,117.0,1,19,0,2020_Feb_26_1201,Test,3.2.4,59.83990778693342
149,Pictures/IA100_L80.bmp,Pictures/IA100_L80.bmp,Pictures/IA100.bmp,"

Go all in!""""",1,risk,,,,,6.0,0.0,6.0,0.0,0.0,12.0,12.0,14.0,,,,,,,,,,,,,,,,,,,,,,,,,,,,,,,2480.5215353230014,None,2482.5435470560333,2484.064228606061,2484.047509653028,None,2485.5682102380088,None,2.0,1.1070228399476036,2487.5735114429845,None,2487.5735114429845,None,2487.5735114429845,None,None,None,None,None,2488.8602389820153,None,2488.8602389820153,None,0,0.7482857540016994,2488.8602389820153,None,2489.645647041034,2490.848825516994,None,None,,,,,,,,,,,,,117.0,1,19,0,2020_Feb_26_1201,Test,3.2.4,59.83990778693342
150,Pictures/IA100_G40.bmp,Pictures/IA100_G40.bmp,Pictures/IA100.bmp,"

Try your luck and gamble!""""",1,risk,,,,,6.0,0.0,6.0,0.0,0.0,13.0,13.0,12.0,,,,,,,,,,,,,,,,,,,,,,,,,,,,,,,2490.8655236760387,None,2492.887539344025,2494.408217474004,2494.3915284560057,None,2495.912194347009,None,2.0,0.2990347950253636,2497.917496119044,None,2497.917496119044,None,2497.917496119044,None,None,None,None,None,2498.3687033120077,None,2498.3687033120077,None,0,0.04782381700351834,2498.368703312008,None,2498.452266815002,2500.373998871073,None,None,,,,,,,,,,,,,117.0,1,19,0,2020_Feb_26_1201,Test,3.2.4,59.83990778693342
151,Pictures/IA80_40_G95p.bmp,Pictures/IA80_40_G95p.bmp,Pictures/IA80.bmp,"

Think of the payoff, gamble!""""",1,risk,,,,,6.0,0.0,6.0,0.0,0.0,14.0,14.0,3.0,,,,,,,,,,,,,,,,,,,,,,,,,,,,,,,2500.3906964519992,None,2502.4127057950245,2503.933388488018,2503.91669546708,None,2505.4373660950223,None,2.0,0.32587836601305753,2507.442665876006,None,2507.442665876006,None,2507.442665876006,None,None,None,None,None,2507.944004361052,None,2507.944004361052,None,0,0.31251771398819983,2507.944004361052,None,2508.294926341041,2509.9325741720386,None,None,,,,,,,,,,,,,117.0,1,19,0,2020_Feb_26_1201,Test,3.2.4,59.83990778693342
152,Pictures/IA50_G30.bmp,Pictures/IA50_G30.bmp,Pictures/IA50.bmp,"

I think you should gamble.""""",1,risk,,,,,6.0,0.0,6.0,0.0,0.0,15.0,15.0,8.0,,,,,,,,,,,,,,,,,,,,,,,,,,,,,,,2509.949298972031,None,2511.9713139199885,2513.4920047710184,2513.475278086029,None,2514.9959757920587,None,2.0,1.6152535760775208,2517.001276124036,None,2517.001276124036,None,2517.001276124036,None,None,None,None,None,2518.772583474987,None,2518.772583474987,None,0,0.04393194697331637,2518.7725834749867,None,2518.8561680720886,2520.7611904040677,None,None,,,,,,,,,,,,,117.0,1,19,0,2020_Feb_26_1201,Test,3.2.4,59.83990778693342
153,Pictures/IA50_L10.bmp,Pictures/IA50_L10.bmp,Pictures/IA50.bmp,"

Play it safe, don’t gamble!""""",0,safe,,,,,6.0,0.0,6.0,0.0,0.0,16.0,16.0,1.0,,,,,,,,,,,,,,,,,,,,,,,,,,,,,,,2520.7779115540907,None,2522.7999235780444,2524.3206216300605,2524.303888772032,None,2525.824585502036,None,1.0,0.8906429599737749,2527.8298862180673,None,2527.8298862180673,None,2527.8298862180673,None,2528.849232976092,None,2528.849232976092,2529.851882728981,2530.954798159073,None,2530.954798159073,None,0,0.2537242500111461,2530.954798159073,None,2531.2556006259983,2532.960093777976,None,None,,,,,,,,,,,,,117.0,1,19,0,2020_Feb_26_1201,Test,3.2.4,59.83990778693342
154,Pictures/IA25_L20.bmp,Pictures/IA25_L20.bmp,Pictures/IA25.bmp,"

Don't be tempted to gamble.""""",0,safe,,,,,6.0,0.0,6.0,0.0,0.0,17.0,17.0,19.0,,,,,,,,,,,,,,,,,,,,,,,,,,,,,,,2532.9768150959862,None,2534.9988310530316,2536.5195137580163,2536.5027929010103,None,2538.0234857540345,None,2.0,1.4597602169960735,2540.028788128053,None,2540.028788128053,None,2540.028788128053,None,None,None,None,None,2541.649728344986,None,2541.649728344986,None,0,0.2707970099290833,2541.6497283449858,None,2541.9672261150554,2543.638311546063,None,None,,,,,,,,,,,,,117.0,1,19,0,2020_Feb_26_1201,Test,3.2.4,59.83990778693342
155,Pictures/IA75_G60.bmp,Pictures/IA75_G60.bmp,Pictures/IA75.bmp,"

Make it exciting, take a chance!""""",1,risk,,,,,6.0,0.0,6.0,0.0,0.0,18.0,18.0,9.0,,,,,,,,,,,,,,,,,,,,,,,,,,,,,,,2543.655032836017,None,2545.677043239004,2547.1977263879958,2547.181008648011,None,2548.701707406086,None,1.0,0.8775288420729339,2550.7070045080036,None,2550.7070045080036,None,2550.7070045080036,None,2551.726365406066,None,2551.726365406066,2552.7290083080297,2553.831932033063,None,2553.831932033063,None,1,1.936587402014993,2553.831932033063,None,None,None,2555.803789654048,None,,,,,,,,,,,,,117.0,1,19,0,2020_Feb_26_1201,Test,3.2.4,59.83990778693342
156,Pictures/IA75_G15.bmp,Pictures/IA75_G15.bmp,Pictures/IA75.bmp,"

Take a chance!""""",1,risk,,,,,6.0,0.0,6.0,0.0,0.0,19.0,19.0,18.0,,,,,,,,,,,,,,,,,,,,,,,,,,,,,,,2555.853923632996,None,2557.8759341390105,2559.3966175620444,2559.379922528053,None,2560.900593605009,None,1.0,1.430602136999369,2562.905920566991,None,2562.905920566991,None,2562.905920566991,None,2564.426587829017,None,2564.426587829017,2565.429262728081,2566.615695174085,None,2566.615695174085,None,0,0.22483201802242547,2566.615695174085,None,2566.883061249042,2568.6042662010295,None,None,,,,,,,,,,,,,117.0,1,19,0,2020_Feb_26_1201,Test,3.2.4,59.83990778693342
158,Pictures/IA110_55_L95p.bmp,Pictures/IA110_55_L95p.bmp,Pictures/IA110.bmp,"

Trust me, gamble!""""",1,risk,,,,,7.0,0.0,7.0,0.0,0.0,0.0,0.0,0.0,,,,,,,,,,,,,2574.085427717073,None,2574.085427717073,None,2574.085427717073,None,0,2.6671090880408883,2574.085427717073,None,2574.085427717073,None,2574.085427717073,None,return,3.6749428639886896,2574.085427717073,None,2577.795239627012,None,2579.817259870004,2581.321211036062,2581.2877847850323,None,2582.858599776984,None,2.0,2.322021825006232,2584.8304904940305,None,2584.8304904940305,None,2584.8304904940305,None,None,None,None,None,2587.30369018903,None,2587.30369018903,None,1,0.03282804507762194,2587.30369018903,None,None,None,2587.3705440839985,2589.2922798220534,,,,,,,,,,,,,117.0,1,19,0,2020_Feb_26_1201,Test,3.2.4,59.83990778693342
159,Pictures/IA100_L20.bmp,Pictures/IA100_L20.bmp,Pictures/IA100.bmp,"

Try to win as much money as you can, gamble!""""",1,risk,,,,,7.0,0.0,7.0,0.0,0.0,1.0,1.0,15.0,,,,,,,,,,,,,,,,,,,,,,,,,,,,,,,2589.308975705062,None,2591.3477134460118,2592.8516740250634,2592.8182627720525,None,2594.3556476620724,None,2.0,0.9515636310679838,2596.360949719092,None,2596.360949719092,None,2596.360949719092,None,None,None,None,None,2597.4972833930515,None,2597.4972833930515,None,0,0.20724262995645404,2597.4972833930515,None,2597.747961483081,2599.485891276039,None,None,,,,,,,,,,,,,117.0,1,19,0,2020_Feb_26_1201,Test,3.2.4,59.83990778693342
160,Pictures/IA25_G15.bmp,Pictures/IA25_G15.bmp,Pictures/IA25.bmp,"

I think you should take a gamble.""""",1,risk,,,,,7.0,0.0,7.0,0.0,0.0,2.0,2.0,7.0,,,,,,,,,,,,,,,,,,,,,,,,,,,,,,,2599.502594082034,None,2601.541319989017,2603.061994382064,2603.045313198003,None,2604.5659746630117,None,2.0,0.4219797949772328,2606.55455212004,None,2606.55455212004,None,2606.55455212004,None,None,None,None,None,2607.156165819033,None,2607.156165819033,None,0,0.02035673300269991,2607.156165819033,None,2607.222982187057,2609.1447056030156,None,None,,,,,,,,,,,,,117.0,1,19,0,2020_Feb_26_1201,Test,3.2.4,59.83990778693342
161,Pictures/IA100_L80.bmp,Pictures/IA100_L80.bmp,Pictures/IA100.bmp,"

Go all in!""""",1,risk,,,,,7.0,0.0,7.0,0.0,0.0,3.0,3.0,18.0,,,,,,,,,,,,,,,,,,,,,,,,,,,,,,,2609.161467497004,None,2611.200218090089,2612.7041852370608,2612.670757411048,None,2614.2415642200503,None,2.0,0.3150859270244837,2616.213438439998,None,2616.213438439998,None,2616.213438439998,None,None,None,None,None,2616.698032564018,None,2616.698032564018,None,0,0.39049738203175366,2616.698032564018,None,2617.1325323589845,2618.6866184329847,None,None,,,,,,,,,,,,,117.0,1,19,0,2020_Feb_26_1201,Test,3.2.4,59.83990778693342
162,Pictures/IA75_L15.bmp,Pictures/IA75_L15.bmp,Pictures/IA75.bmp,"

Trust me–gamble!""""",1,risk,,,,,7.0,0.0,7.0,0.0,0.0,4.0,4.0,13.0,,,,,,,,,,,,,,,,,,,,,,,,,,,,,,,2618.703317067004,None,2620.7420693919994,2622.2460230670404,2622.2126130450047,None,2623.7667026909767,None,2.0,0.6379040740430355,2625.7386231099954,None,2625.7386231099954,None,2625.7386231099954,None,None,None,None,None,2626.5575101430295,None,2626.5575101430295,None,0,0.02700264798477292,2626.557510143029,None,2626.624284057063,2628.546059539076,None,None,,,,,,,,,,,,,117.0,1,19,0,2020_Feb_26_1201,Test,3.2.4,59.83990778693342
163,Pictures/IA20_10_L95p.bmp,Pictures/IA20_10_L95p.bmp,Pictures/IA20.bmp,"

