Choice,Choice2,Amount,AdviceVar1,GambleAdviceNum,GambleAdviceType,practice.thisRepN,practice.thisTrialN,practice.thisN,practice.thisIndex,trials_2.thisRepN,trials_2.thisTrialN,trials_2.thisN,trials_2.thisIndex,trials.thisRepN,trials.thisTrialN,trials.thisN,trials.thisIndex,text.started,text.stopped,key_resp_4.keys,key_resp_4.rt,key_resp_4.started,key_resp_4.stopped,instructions.started,instructions.stopped,space.keys,space.rt,space.started,space.stopped,chooseInst.started,chooseInst.stopped,Ad1.started,Ad1.stopped,Ad2.started,Ad2.stopped,key_resp_3.keys,key_resp_3.rt,key_resp_3.started,key_resp_3.stopped,Ad1pic.started,Ad1pic.stopped,Ad2pic.started,Ad2pic.stopped,enter.keys,enter.rt,enter.started,enter.stopped,iSi.started,iSi.stopped,receiveMoneyPicture.started,receiveMoneyPicture.stopped,ISI2.started,ISI2.stopped,ChoicePic.started,ChoicePic.stopped,response.keys,response.started,response.stopped,yesNo.started,yesNo.stopped,ask.started,ask.stopped,getAdv.started,getAdv.stopped,textForCode.started,textForCode.stopped,blank.started,blank.stopped,ChoicePic2.started,ChoicePic2.stopped,resp.keys,resp.started,resp.stopped,checkL1.started,checkL1.stopped,checkR1.started,checkR1.stopped,response.rt,resp.rt,EndPrac.started,EndPrac.stopped,key_resp.keys,key_resp.rt,key_resp.started,key_resp.stopped,endText.started,endText.stopped,key_resp_2.keys,key_resp_2.rt,key_resp_2.started,key_resp_2.stopped,participant,session,age,gender (0=male, 1 = female, 2 = other),date,expName,psychopyVersion,frameRate,
,,,,,,,,,,,,,,,,,,441.11850940099976,None,space,216.35029149399998,441.11850940099976,None,,,,,,,,,,,,,,,,,,,,,,,,,,,,,,,,,,,,,,,,,,,,,,,,,,,,,,,,,,,,,,,,,,,,,109,001,18,1,2019_Dec_06_1209,Test,3.2.4,59.84121695665333,
,,,,,,,,,,,,,,,,,,,,,,,,657.4877541710011,None,space,3.2850713699990592,657.4877541710011,None,,,,,,,,,,,,,,,,,,,,,,,,,,,,,,,,,,,,,,,,,,,,,,,,,,,,,,,,,,,,,,,109,001,18,1,2019_Dec_06_1209,Test,3.2.4,59.84121695665333,
,,,,,,,,,,,,,,,,,,,,,,,,,,,,,,661.398066392001,None,661.398066392001,None,661.398066392001,None,left,8.07873997599745,661.398066392001,None,,,,,,,,,,,,,,,,,,,,,,,,,,,,,,,,,,,,,,,,,,,,,,,,,,,,,109,001,18,1,2019_Dec_06_1209,Test,3.2.4,59.84121695665333,
,,,,,,,,,,,,,,,,,,,,,,,,,,,,,,,,,,,,,,,,661.398066392001,None,661.398066392001,None,return,10.710595214997738,661.398066392001,None,,,,,,,,,,,,,,,,,,,,,,,,,,,,,,,,,,,,,,,,,,,,,109,001,18,1,2019_Dec_06_1209,Test,3.2.4,59.84121695665333,
Pictures/IA100_G20.bmp,Pictures/IA100_G20.bmp,Pictures/IA100.bmp,"

"Go ahead and gamble!"",1,risk,0,0,0,4,,,,,,,,,,,,,,,,,,,,,,,,,,,,,,,,,,,,,,,672.1597387049987,None,674.1817363830014,675.7024053419991,675.6857071960003,None,677.1896674420022,None,None,679.2784991459994,None,679.2784991459994,None,679.2784991459994,None,None,None,None,None,682.3866954610021,None,682.3866954610021,None,None,682.3866954610021,None,None,None,None,None,,,,,,,,,,,,,,,109,001,18,1,2019_Dec_06_1209,Test,3.2.4,59.84121695665333,
Pictures/IA50_G20.bmp,Pictures/IA50_G20.bmp,Pictures/IA50.bmp,"

"Let's venture and take a risk!"",1,risk,0,1,1,1,,,,,,,,,,,,,,,,,,,,,,,,,,,,,,,,,,,,,,,684.3919720910017,None,686.4473901710007,687.9513381710021,687.9346453879989,None,689.5054444769994,None,1,691.4438867520003,None,691.4438867520003,None,691.4438867520003,None,692.4465168710012,None,692.4465168710012,693.4491547940015,694.5520674540021,None,694.5520674540021,None,right,694.5520674540021,None,None,None,696.3568350540008,None,0.8969260220001161,1.75674072000038,,,,,,,,,,,,,109,001,18,1,2019_Dec_06_1209,Test,3.2.4,59.84121695665333,
Pictures/IA50_G40.bmp,Pictures/IA50_G40.bmp,Pictures/IA50.bmp,"

"It would probably be best to play it safe."",0,safe,0,2,2,3,,,,,,,,,,,,,,,,,,,,,,,,,,,,,,,,,,,,,,,696.574057681999,None,698.5960497660017,700.1167519699993,700.1000694169998,None,701.6708159720001,None,2,703.6259800160005,None,703.6259800160005,None,703.6259800160005,None,None,None,None,None,705.5643744879999,None,705.5643744879999,None,None,705.5643744879999,None,None,None,None,None,1.7548279399998137,,,,,,,,,,,,,,109,001,18,1,2019_Dec_06_1209,Test,3.2.4,59.84121695665333,
Pictures/IA50_G30.bmp,Pictures/IA50_G30.bmp,Pictures/IA50.bmp,"

"I think you should gamble."",1,risk,0,3,3,2,,,,,,,,,,,,,,,,,,,,,,,,,,,,,,,,,,,,,,,707.569687665,None,709.5916824640008,711.1123526279989,711.0956569320006,None,712.6497370770012,None,2,714.6216032539996,None,714.6216032539996,None,714.6216032539996,None,None,None,None,None,716.1589904780012,None,716.1589904780012,None,left,716.1589904780012,None,716.6770155510021,718.1475532650002,None,None,1.3832122410021839,0.4698178039980121,,,,,,,,,,,,,109,001,18,1,2019_Dec_06_1209,Test,3.2.4,59.84121695665333,
Pictures/IA50_G10.bmp,Pictures/IA50_G10.bmp,Pictures/IA50.bmp,"

"Go with the safe option here!"",0,safe,0,4,4,0,,,,,,,,,,,,,,,,,,,,,,,,,,,,,,,,,,,,,,,718.1642785549993,None,720.1862740120014,721.7069428430004,721.6902282110022,None,723.2443268610004,None,1,725.2162024770005,None,725.2162024770005,None,725.2162024770005,None,726.4694814079994,None,726.4694814079994,727.4721158399989,728.5917389280003,None,728.5917389280003,None,left,728.5917389280003,None,729.7113711450002,None,None,None,1.1246055840019835,1.0850613469992823,,,,,,,,,,,,,109,001,18,1,2019_Dec_06_1209,Test,3.2.4,59.84121695665333,
Pictures/IA100_G40.bmp,Pictures/IA100_G40.bmp,Pictures/IA100.bmp,"

"Try your luck and gamble!"",1,risk,0,5,5,5,,,,,,,,,,,,,,,,,,,,,,,,,,,,,,,,,,,,,,,730.5970279220019,None,732.6190223109988,734.1229734469998,734.1062766040013,None,735.6770795170014,None,1,737.6489605210008,None,737.6489605210008,None,737.6489605210008,None,738.6348714490014,None,738.6348714490014,739.6375098099998,740.7738482259992,None,740.7738482259992,None,right,740.7738482259992,None,None,None,741.8098900730001,None,0.8758534090011381,0.9909568439979921,,,,,,,,,,,,,109,001,18,1,2019_Dec_06_1209,Test,3.2.4,59.84121695665333,
,,,,,,,,,,,,,,,,,,,,,,,,,,,,,,,,,,,,,,,,,,,,,,,,,,,,,,,,,,,,,,,,,,,,,,,,,,,,,,,,742.7958249510011,None,space,13.76098081300006,742.7958249510011,None,,,,,,,109,001,18,1,2019_Dec_06_1209,Test,3.2.4,59.84121695665333,
Pictures/IA25_G15.bmp,Pictures/IA25_G15.bmp,Pictures/IA25.bmp,"

"I think you should take a gamble."",1,risk,,,,,0,0,0,0,0,0,0,19,,,,,,,,,,,,,756.7158389760007,None,756.7158389760007,None,756.7158389760007,None,left,6.048958401999698,756.7158389760007,None,756.7158389760007,None,756.7158389760007,None,return,7.136841529001686,756.7158389760007,None,763.9181340979994,None,765.9401359430012,767.4608088280002,767.4440910880003,None,768.9647757710009,None,1,770.9366362729997,None,770.9366362729997,None,770.9366362729997,None,772.3570352530005,None,772.3570352530005,773.3596709109988,774.4625820120018,None,774.4625820120018,None,right,774.4625820120018,None,None,None,775.0140332730007,776.4511609239999,1.292179436000879,0.5022243220009841,,,,,,,,,,,,,109,001,18,1,2019_Dec_06_1209,Test,3.2.4,59.84121695665333,
Pictures/IA75_G30.bmp,Pictures/IA75_G30.bmp,Pictures/IA75.bmp,"

"Be bold, gamble!"",1,risk,,,,,0,0,0,0,0,1,1,0,,,,,,,,,,,,,,,,,,,,,,,,,,,,,,,776.4678582029992,None,778.5232806320018,780.0439486840005,780.0272546209999,None,781.5646215000015,None,2,783.519786492001,None,783.519786492001,None,783.519786492001,None,None,None,None,None,785.0905893599993,None,785.0905893599993,None,left,785.0905893599993,None,786.1936233720007,None,None,None,1.4130413769998995,1.066217745999893,,,,,,,,,,,,,109,001,18,1,2019_Dec_06_1209,Test,3.2.4,59.84121695665333,
Pictures/IA40_20_L95p.bmp,Pictures/IA40_20_L95p.bmp,Pictures/IA40.bmp,"

"Trust me, gamble!"",1,risk,,,,,0,0,0,0,0,2,2,17,,,,,,,,,,,,,,,,,,,,,,,,,,,,,,,787.1125696029994,None,789.1679865299993,790.6886568260015,790.6719590620014,None,792.2093321159991,None,1,794.1645002059995,None,794.1645002059995,None,794.1645002059995,None,794.7827771929988,None,794.7827771929988,795.7854151850006,796.9050367050004,None,796.9050367050004,None,right,796.9050367050004,None,None,None,797.8909648580011,None,0.5203148069995223,0.9477683030017943,,,,,,,,,,,,,109,001,18,1,2019_Dec_06_1209,Test,3.2.4,59.84121695665333,
Pictures/IA100_G20.bmp,Pictures/IA100_G20.bmp,Pictures/IA100.bmp,"

"Go ahead and gamble!"",1,risk,,,,,0,0,0,0,0,3,3,16,,,,,,,,,,,,,,,,,,,,,,,,,,,,,,,798.9103256390008,None,800.9323203280001,802.4529930040007,802.4362775920017,None,803.9402453869989,None,1,805.9622316570021,None,805.9622316570021,None,805.9622316570021,None,806.580540848001,None,806.580540848001,807.5831726630022,808.6860905989997,None,808.6860905989997,None,left,808.6860905989997,None,809.6887120620013,None,None,None,0.5225955950008938,0.9667091990013432,,,,,,,,,,,,,109,001,18,1,2019_Dec_06_1209,Test,3.2.4,59.84121695665333,
Pictures/IA20_10_L95p.bmp,Pictures/IA20_10_L95p.bmp,Pictures/IA20.bmp,"

"Don't be tempted to gamble."",0,safe,,,,,0,0,0,0,0,4,4,18,,,,,,,,,,,,,,,,,,,,,,,,,,,,,,,810.7080740980018,None,812.7634917899995,814.2674448440011,814.2507474010017,None,815.8550293570006,None,1,817.7600149319987,None,817.7600149319987,None,817.7600149319987,None,818.5453890960016,None,818.5453890960016,819.548026749002,820.6509345420018,None,820.6509345420018,None,left,820.6509345420018,None,822.0212015700017,None,None,None,0.684758094001154,1.3298809420011821,,,,,,,,,,,,,109,001,18,1,2019_Dec_06_1209,Test,3.2.4,59.84121695665333,
Pictures/IA40_20_G95p.bmp,Pictures/IA40_20_G95p.bmp,Pictures/IA40.bmp,"

"Hold back, stay with the safe choice."",0,safe,,,,,0,0,0,0,0,5,5,9,,,,,,,,,,,,,,,,,,,,,,,,,,,,,,,822.6729168109996,None,824.6949122200022,826.2155830390002,826.1988913470013,None,827.7696777349993,None,1,829.7248436730006,None,829.7248436730006,None,829.7248436730006,None,830.6105087620017,None,830.6105087620017,831.6131470940018,832.7160580620002,None,832.7160580620002,None,left,832.7160580620002,None,833.250784494001,834.7213369419987,None,None,0.7359767579982872,0.4887611529993592,,,,,,,,,,,,,109,001,18,1,2019_Dec_06_1209,Test,3.2.4,59.84121695665333,
Pictures/IA75_L45.bmp,Pictures/IA75_L45.bmp,Pictures/IA75.bmp,"

"Don't gamble for this one, play it safe."",0,safe,,,,,0,0,0,0,0,6,6,11,,,,,,,,,,,,,,,,,,,,,,,,,,,,,,,834.7380339510019,None,836.7600292110001,838.2807002949994,838.2640082899998,None,839.8347976010009,None,1,841.7899619000018,None,841.7899619000018,None,841.7899619000018,None,842.7926043949992,None,842.7926043949992,843.7952639190007,844.9315699100007,None,844.9315699100007,None,left,844.9315699100007,None,846.2684222870012,None,None,None,0.878863165002258,1.2972469550004462,,,,,,,,,,,,,109,001,18,1,2019_Dec_06_1209,Test,3.2.4,59.84121695665333,
Pictures/IA50_L10.bmp,Pictures/IA50_L10.bmp,Pictures/IA50.bmp,"

"Play it safe, don’t gamble!"",0,safe,,,,,0,0,0,0,0,7,7,8,,,,,,,,,,,,,,,,,,,,,,,,,,,,,,,846.9368443189996,None,848.9755518310012,850.4795163109993,850.4627979510005,None,852.0168683760021,None,1,853.9887727890018,None,853.9887727890018,None,853.9887727890018,None,855.4927245110011,None,855.4927245110011,856.4953616060011,857.6149842080013,None,857.6149842080013,None,None,857.6149842080013,None,None,None,None,None,1.3760230180014332,,,,,,,,,,,,,,109,001,18,1,2019_Dec_06_1209,Test,3.2.4,59.84121695665333,
Pictures/IA75_L15.bmp,Pictures/IA75_L15.bmp,Pictures/IA75.bmp,"

"Trust me, gamble!"",1,risk,,,,,0,0,0,0,0,8,8,1,,,,,,,,,,,,,,,,,,,,,,,,,,,,,,,859.620261936001,None,861.6422558679988,863.1629310380013,863.1462117049996,None,864.7003136530002,None,2,866.6721770730001,None,866.6721770730001,None,866.6721770730001,None,None,None,None,None,867.7750822790003,None,867.7750822790003,None,right,867.7750822790003,None,None,None,868.4936412870011,869.76365085,0.9406374179998238,0.6777233309985604,,,,,,,,,,,,,109,001,18,1,2019_Dec_06_1209,Test,3.2.4,59.84121695665333,
Pictures/IA100_L20.bmp,Pictures/IA100_L20.bmp,Pictures/IA100.bmp,"

"Try to win as much money as you can, gamble!"",1,risk,,,,,0,0,0,0,0,9,9,10,,,,,,,,,,,,,,,,,,,,,,,,,,,,,,,869.7803504040021,None,871.8357719090018,873.3564388240011,873.3397466040005,None,874.8771128299995,None,1,876.8322789890008,None,876.8322789890008,None,876.8322789890008,None,877.4505726650023,None,877.4505726650023,878.4532097100018,879.5561253300002,None,879.5561253300002,None,right,879.5561253300002,None,None,None,880.5086250089989,881.544675770001,0.47653564699794515,0.9046814790017379,,,,,,,,,,,,,109,001,18,1,2019_Dec_06_1209,Test,3.2.4,59.84121695665333,
Pictures/IA50_L30.bmp,Pictures/IA50_L30.bmp,Pictures/IA50.bmp,"

"Take a leap, I think you should gamble."",1,risk,,,,,0,0,0,0,0,10,10,6,,,,,,,,,,,,,,,,,,,,,,,,,,,,,,,881.5613973959989,None,883.5834028970021,885.1040686109991,885.0873479969996,None,886.6414496389989,None,2,888.6133203019999,None,888.6133203019999,None,888.6133203019999,None,None,None,None,None,890.317790735,None,890.317790735,None,left,890.317790735,None,890.718859482,892.3230827070001,None,None,1.5274974040003144,0.3590163589979056,,,,,,,,,,,,,109,001,18,1,2019_Dec_06_1209,Test,3.2.4,59.84121695665333,
Pictures/IA100_L40.bmp,Pictures/IA100_L40.bmp,Pictures/IA100.bmp,"

"Think of the payoff, gamble!"",1,risk,,,,,0,0,0,0,0,11,11,3,,,,,,,,,,,,,,,,,,,,,,,,,,,,,,,892.3397826590008,None,894.3617774279992,895.8824491849991,895.8657572810007,None,897.4387747100009,None,1,899.3917078199993,None,899.3917078199993,None,899.3917078199993,None,900.5781646340001,None,900.5781646340001,901.580818475999,902.7171383339992,None,902.7171383339992,None,right,902.7171383339992,None,None,None,903.9871426319987,None,1.0771107239997946,1.2236698370033992,,,,,,,,,,,,,109,001,18,1,2019_Dec_06_1209,Test,3.2.4,59.84121695665333,
Pictures/IA100_G40.bmp,Pictures/IA100_G40.bmp,Pictures/IA100.bmp,"

"Try your luck and gamble!"",1,risk,,,,,0,0,0,0,0,12,12,15,,,,,,,,,,,,,,,,,,,,,,,,,,,,,,,904.722415354001,None,906.7444098650012,908.2650814690023,908.2483644849999,None,909.8024678649999,None,1,911.7743305770018,None,911.7743305770018,None,911.7743305770018,None,912.3090605899997,None,912.3090605899997,913.311697172001,914.4146090169997,None,914.4146090169997,None,left,914.4146090169997,None,915.5676553609992,None,None,None,0.43048671599899535,1.1101996549987234,,,,,,,,,,,,,109,001,18,1,2019_Dec_06_1209,Test,3.2.4,59.84121695665333,
Pictures/IA100_G60.bmp,Pictures/IA100_G60.bmp,Pictures/IA100.bmp,"

"Be cautious, don't gamble for this one."",0,safe,,,,,0,0,0,0,0,13,13,12,,,,,,,,,,,,,,,,,,,,,,,,,,,,,,,916.4198862929989,None,918.4419097099999,919.9458524740003,919.9291380399991,None,921.4999371580016,None,1,923.4718388229994,None,923.4718388229994,None,923.4718388229994,None,924.6080996609999,None,924.6080996609999,925.610809648002,926.7304032409993,None,926.7304032409993,None,left,926.7304032409993,None,927.8332895579988,None,None,None,1.0129976209973393,1.0584072269994067,,,,,,,,,,,,,109,001,18,1,2019_Dec_06_1209,Test,3.2.4,59.84121695665333,
Pictures/IA100_L60.bmp,Pictures/IA100_L60.bmp,Pictures/IA100.bmp,"

"You'd have a lot to lose, don't gamble."",0,safe,,,,,0,0,0,0,0,14,14,7,,,,,,,,,,,,,,,,,,,,,,,,,,,,,,,928.7523849770005,None,930.774370911,932.2950436030005,932.2783468640009,None,933.8324269600016,None,1,935.8042918589999,None,935.8042918589999,None,935.8042918589999,None,937.1578688379996,None,937.1578688379996,938.1605048700003,939.2634211000004,None,939.2634211000004,None,left,939.2634211000004,None,941.0013252380013,None,None,None,1.22453355199832,1.7013822890003212,,,,,,,,,,,,,109,001,18,1,2019_Dec_06_1209,Test,3.2.4,59.84121695665333,
Pictures/IA80_40_L95p.bmp,Pictures/IA80_40_L95p.bmp,Pictures/IA80.bmp,"

"Let's stay with the certain option."",0,safe,,,,,0,0,0,0,0,15,15,14,,,,,,,,,,,,,,,,,,,,,,,,,,,,,,,941.2854039289996,None,943.3408481940023,944.8447704200007,944.828074557001,None,946.3320357519988,None,1,948.3373248930002,None,948.3373248930002,None,948.3373248930002,None,950.0752305630012,None,950.0752305630012,951.0778676030022,952.1807784119992,None,952.1807784119992,None,left,952.1807784119992,None,952.8491957020015,954.1860451479988,None,None,1.6194827090002946,0.6320287249982357,,,,,,,,,,,,,109,001,18,1,2019_Dec_06_1209,Test,3.2.4,59.84121695665333,
Pictures/IA50_L20.bmp,Pictures/IA50_L20.bmp,Pictures/IA50.bmp,"

"Certainty is boring, take a risk!"",1,risk,,,,,0,0,0,0,0,16,16,4,,,,,,,,,,,,,,,,,,,,,,,,,,,,,,,954.2027714180003,None,956.2247642639995,957.7454334860013,957.7287178610022,None,959.2995297699999,None,1,961.2546768220018,None,961.2546768220018,None,961.2546768220018,None,962.6750807649987,None,962.6750807649987,963.6777172399998,964.7806281330013,None,964.7806281330013,None,right,964.7806281330013,None,None,None,966.6020941819988,None,1.318135464000079,1.7841768160033098,,,,,,,,,,,,,109,001,18,1,2019_Dec_06_1209,Test,3.2.4,59.84121695665333,
Pictures/IA50_G40.bmp,Pictures/IA50_G40.bmp,Pictures/IA50.bmp,"

"It would probably be best to play it safe."",0,safe,,,,,0,0,0,0,0,17,17,5,,,,,,,,,,,,,,,,,,,,,,,,,,,,,,,966.7859099460002,None,968.8079020020014,970.3285736290018,970.3118761020014,None,971.8826690550013,None,1,973.8378341220014,None,973.8378341220014,None,973.8378341220014,None,975.0242928890002,None,975.0242928890002,976.0269310340009,977.1298409910014,None,977.1298409910014,None,left,977.1298409910014,None,978.4332594560001,None,None,None,1.0469780579987855,1.266961599001661,,,,,,,,,,,,,109,001,18,1,2019_Dec_06_1209,Test,3.2.4,59.84121695665333,
Pictures/IA80_40_G95p.bmp,Pictures/IA80_40_G95p.bmp,Pictures/IA80.bmp,"

"Think of the payoff, gamble!"",1,risk,,,,,0,0,0,0,0,18,18,13,,,,,,,,,,,,,,,,,,,,,,,,,,,,,,,979.1518178090009,None,981.1738110340011,982.694490058002,982.6777867339988,None,984.2485824489995,None,1,986.2037449640011,None,986.2037449640011,None,986.2037449640011,None,989.0278363500001,None,989.0278363500001,990.0304749240022,991.1333880230013,None,991.1333880230013,None,left,991.1333880230013,None,992.3532631220005,None,None,None,2.6970837189983285,1.1834157949997461,,,,,,,,,,,,,109,001,18,1,2019_Dec_06_1209,Test,3.2.4,59.84121695665333,
Pictures/IA110_55_G95p.bmp,Pictures/IA110_55_G95p.bmp,Pictures/IA110.bmp,"

"Take a chance!"",1,risk,,,,,0,0,0,0,0,19,19,2,,,,,,,,,,,,,,,,,,,,,,,,,,,,,,,993.1386644679988,None,995.1940801339988,996.714755672001,996.6980570279993,None,998.235430132001,None,2,1000.1905907889995,None,1000.1905907889995,None,1000.1905907889995,None,None,None,None,None,1001.0261153780011,None,1001.0261153780011,None,left,1001.0261153780011,None,1001.8783586280006,1003.0146843889997,None,None,0.6862238299981982,0.802698612002132,,,,,,,,,,,,,109,001,18,1,2019_Dec_06_1209,Test,3.2.4,59.84121695665333,
,,,,,,,,,,0,0,0,0,,,,,,,,,,,,,,,,,,,,,,,,,,,,,,,,,,,,,,,,,,,,,,,,,,,,,,,,,,,,,,,,,,,,,,,,,1003.2486488510003,None,return,17.42814816199825,1003.2486488510003,None,109,001,18,1,2019_Dec_06_1209,Test,3.2.4,59.84121695665333,
Pictures/IA50_L10.bmp,Pictures/IA50_L10.bmp,Pictures/IA50.bmp,"

"Play it safe, don’t gamble!"",0,safe,,,,,1,0,1,0,0,0,0,5,,,,,,,,,,,,,1020.8617178570021,None,1020.8617178570021,None,1020.8617178570021,None,left,2.32709764700121,1020.8617178570021,None,1020.8617178570021,None,1020.8617178570021,None,return,3.230982219996804,1020.8617178570021,None,1024.1537061279996,None,1026.1590066669996,1027.6796738500016,1027.6629547340017,None,1029.1836252969988,None,1,1031.1722093999997,None,1031.1722093999997,None,1031.1722093999997,None,1032.408790988,None,1032.408790988,1033.4114270280006,1034.5143381810012,None,1034.5143381810012,None,right,1034.5143381810012,None,None,None,1036.4360907869996,None,1.1206123629999638,1.8744832049997058,,,,,,,,,,,,,109,001,18,1,2019_Dec_06_1209,Test,3.2.4,59.84121695665333,
Pictures/IA25_G5.bmp,Pictures/IA25_G5.bmp,Pictures/IA25.bmp,"

"Let's stay with the certain option."",0,safe,,,,,1,0,1,0,0,1,1,0,,,,,,,,,,,,,,,,,,,,,,,,,,,,,,,1036.519627488,None,1038.5917543610012,1040.112425757001,1040.095706807002,None,1041.5996682209989,None,2,1043.5715323900004,None,1043.5715323900004,None,1043.5715323900004,None,None,None,None,None,1045.4264326609991,None,1045.4264326609991,None,left,1045.4264326609991,None,1046.0112983530016,1047.4149959060014,None,None,1.6652821870011394,0.5463680979992205,,,,,,,,,,,,,109,001,18,1,2019_Dec_06_1209,Test,3.2.4,59.84121695665333,
Pictures/IA20_10_L95p.bmp,Pictures/IA20_10_L95p.bmp,Pictures/IA20.bmp,"

"Don't be tempted to gamble."",0,safe,,,,,1,0,1,0,0,2,2,1,,,,,,,,,,,,,,,,,,,,,,,,,,,,,,,1047.431697979002,None,1049.4871127240003,1051.0077869960005,1050.9911028409988,None,1052.4950355719993,None,2,1054.483623791999,None,1054.483623791999,None,1054.483623791999,None,None,None,None,None,1056.221535888002,None,1056.221535888002,None,right,1056.221535888002,None,None,None,1057.9761589810005,None,1.5851896019994456,1.719268197000929,,,,,,,,,,,,,109,001,18,1,2019_Dec_06_1209,Test,3.2.4,59.84121695665333,
Pictures/IA25_L10.bmp,Pictures/IA25_L10.bmp,Pictures/IA25.bmp,"

"Dont be afraid to take the risk!"",1,risk,,,,,1,0,1,0,0,3,3,2,,,,,,,,,,,,,,,,,,,,,,,,,,,,,,,1058.2268128809992,None,1060.2488059880015,1061.7694810350004,1061.752762832999,None,1063.3235747219987,None,1,1065.278717882,None,1065.278717882,None,1065.278717882,None,1066.0975409710009,None,1066.0975409710009,1067.1001772400014,1068.2030889490015,None,1068.2030889490015,None,None,1068.2030889490015,None,None,None,None,None,0.7181068890022289,,,,,,,,,,,,,,109,001,18,1,2019_Dec_06_1209,Test,3.2.4,59.84121695665333,
Pictures/IA40_20_L95p.bmp,Pictures/IA40_20_L95p.bmp,Pictures/IA40.bmp,"

"Trust me, gamble!"",1,risk,,,,,1,0,1,0,0,4,4,12,,,,,,,,,,,,,,,,,,,,,,,,,,,,,,,1070.2083701190022,None,1072.2303735950009,1073.7510326129996,1073.7343406050022,None,1075.3051299940016,None,1,1077.2602934329989,None,1077.2602934329989,None,1077.2602934329989,None,1078.7809517530004,None,1078.7809517530004,1079.7836094769991,1080.9032199840003,None,1080.9032199840003,None,right,1080.9032199840003,None,None,None,1081.5215060070004,1082.8917905740018,1.4325193770018814,0.5735850100027164,,,,,,,,,,,,,109,001,18,1,2019_Dec_06_1209,Test,3.2.4,59.84121695665333,
Pictures/IA110_55_L95p.bmp,Pictures/IA110_55_L95p.bmp,Pictures/IA110.bmp,"

"Trust me, gamble!"",1,risk,,,,,1,0,1,0,0,5,5,8,,,,,,,,,,,,,,,,,,,,,,,,,,,,,,,1082.9084975520018,None,1084.9304918400012,1086.4511611080015,1086.4344679140013,None,1087.988547748002,None,1,1089.960407188999,None,1089.960407188999,None,1089.960407188999,None,1090.6622564880017,None,1090.6622564880017,1091.6648924950023,1092.8012219789998,None,1092.8012219789998,None,right,1092.8012219789998,None,None,None,1093.202288454002,1094.806513686999,0.6364004850001947,0.3555862960020022,,,,,,,,,,,,,109,001,18,1,2019_Dec_06_1209,Test,3.2.4,59.84121695665333,
Pictures/IA100_L80.bmp,Pictures/IA100_L80.bmp,Pictures/IA100.bmp,"

"Go all in!"",1,risk,,,,,1,0,1,0,0,6,6,3,,,,,,,,,,,,,,,,,,,,,,,,,,,,,,,1094.823215458,None,1096.8452092920015,1098.4327228930015,1098.4160278820018,None,1099.9199740420008,None,1,1101.875140627002,None,1101.875140627002,None,1101.875140627002,None,1102.961331778999,None,1102.961331778999,1103.9639761360013,1105.0668815790013,None,1105.0668815790013,None,left,1105.0668815790013,None,1105.584910608999,1107.0554494880016,None,None,1.0096730820005178,0.47393768899928546,,,,,,,,,,,,,109,001,18,1,2019_Dec_06_1209,Test,3.2.4,59.84121695665333,
Pictures/IA80_40_L95p.bmp,Pictures/IA80_40_L95p.bmp,Pictures/IA80.bmp,"

"Let's stay with the certain option."",0,safe,,,,,1,0,1,0,0,7,7,14,,,,,,,,,,,,,,,,,,,,,,,,,,,,,,,1107.0721498880011,None,1109.094143557999,1110.6148166679995,1110.5981196460016,None,1112.1020694360013,None,2,1114.1240758179993,None,1114.1240758179993,None,1114.1240758179993,None,None,None,None,None,1114.8760562259995,None,1114.8760562259995,None,right,1114.8760562259995,None,None,None,1115.6113402190022,1116.8813235279995,0.5847308619995601,0.6967455550002342,,,,,,,,,,,,,109,001,18,1,2019_Dec_06_1209,Test,3.2.4,59.84121695665333,
Pictures/IA25_G15.bmp,Pictures/IA25_G15.bmp,Pictures/IA25.bmp,"

"I think you should take a gamble."",1,risk,,,,,1,0,1,0,0,8,8,9,,,,,,,,,,,,,,,,,,,,,,,,,,,,,,,1116.89804629,None,1118.920003612002,1120.440712710999,1120.4239947230017,None,1121.9948217480014,None,1,1123.9499498030018,None,1123.9499498030018,None,1123.9499498030018,None,1124.7019456730013,None,1124.7019456730013,1125.7045827830007,1126.807493299999,None,1126.807493299999,None,right,1126.807493299999,None,None,None,1128.6122298160008,None,0.6228713800010155,1.765303791999031,,,,,,,,,,,,,109,001,18,1,2019_Dec_06_1209,Test,3.2.4,59.84121695665333,
Pictures/IA80_40_G95p.bmp,Pictures/IA80_40_G95p.bmp,Pictures/IA80.bmp,"

"Think of the payoff, gamble!"",1,risk,,,,,1,0,1,0,0,9,9,13,,,,,,,,,,,,,,,,,,,,,,,,,,,,,,,1128.8294793040004,None,1130.8514731680007,1132.3721445359988,1132.3554275349998,None,1133.8594022840007,None,2,1135.881384065,None,1135.881384065,None,1135.881384065,None,None,None,None,None,1137.435491283999,None,1137.435491283999,None,left,1137.435491283999,None,1138.0537896839996,1139.4240430140017,None,None,1.387434268999641,0.577318739000475,,,,,,,,,,,,,109,001,18,1,2019_Dec_06_1209,Test,3.2.4,59.84121695665333,
Pictures/IA100_L20.bmp,Pictures/IA100_L20.bmp,Pictures/IA100.bmp,"

"Try to win as much money as you can, gamble!"",1,risk,,,,,1,0,1,0,0,10,10,11,,,,,,,,,,,,,,,,,,,,,,,,,,,,,,,1139.4407670660003,None,1141.4627610979987,1142.983447527,1142.9667166520012,None,1144.470688018002,None,1,1146.4926732120002,None,1146.4926732120002,None,1146.4926732120002,None,1148.096897102001,None,1148.096897102001,1149.0995328960016,1150.202445797,None,1150.202445797,None,right,1150.202445797,None,None,None,1151.2719645079997,None,1.4721417910004675,1.0263605779982754,,,,,,,,,,,,,109,001,18,1,2019_Dec_06_1209,Test,3.2.4,59.84121695665333,
Pictures/IA75_L60.bmp,Pictures/IA75_L60.bmp,Pictures/IA75.bmp,"

"Why not take the gamble?"",1,risk,,,,,1,0,1,0,0,11,11,4,,,,,,,,,,,,,,,,,,,,,,,,,,,,,,,1152.2244333750023,None,1154.2464276280007,1155.7670988970021,1155.750404999002,None,1157.304485132001,None,2,1159.2763491289988,None,1159.2763491289988,None,1159.2763491289988,None,None,None,None,None,1159.877932203999,None,1159.877932203999,None,left,1159.877932203999,None,1160.7803191679996,1161.8832114510005,None,None,0.4484572479996132,0.8548784160011564,,,,,,,,,,,,,109,001,18,1,2019_Dec_06_1209,Test,3.2.4,59.84121695665333,
Pictures/IA75_L30.bmp,Pictures/IA75_L30.bmp,Pictures/IA75.bmp,"

"Hold back, stay with the safe choice."",0,safe,,,,,1,0,1,0,0,12,12,15,,,,,,,,,,,,,,,,,,,,,,,,,,,,,,,1161.899933839999,None,1163.9219300270015,1165.4426005890018,1165.4258864370022,None,1166.9800016360023,None,1,1168.9518570680011,None,1168.9518570680011,None,1168.9518570680011,None,1169.7372519019991,None,1169.7372519019991,1170.7398919180014,1171.8427999220003,None,1171.8427999220003,None,left,1171.8427999220003,None,1172.5613547460016,1173.8313667479997,None,None,0.6369634219990985,0.6820042660001491,,,,,,,,,,,,,109,001,18,1,2019_Dec_06_1209,Test,3.2.4,59.84121695665333,
Pictures/IA110_55_G95p.bmp,Pictures/IA110_55_G95p.bmp,Pictures/IA110.bmp,"

"Take a chance!"",1,risk,,,,,1,0,1,0,0,13,13,16,,,,,,,,,,,,,,,,,,,,,,,,,,,,,,,1173.8480700639993,None,1175.8700659269998,1177.3907337640012,1177.3740373889996,None,1178.8779919609988,None,2,1180.8999936799992,None,1180.8999936799992,None,1180.8999936799992,None,None,None,None,None,1181.7355323310003,None,1181.7355323310003,None,left,1181.7355323310003,None,1182.704733134,1183.7408201930011,None,None,0.6728189209970878,0.9252772470026684,,,,,,,,,,,,,109,001,18,1,2019_Dec_06_1209,Test,3.2.4,59.84121695665333,
Pictures/IA50_G30.bmp,Pictures/IA50_G30.bmp,Pictures/IA50.bmp,"

"I think you should gamble."",1,risk,,,,,1,0,1,0,0,14,14,6,,,,,,,,,,,,,,,,,,,,,,,,,,,,,,,1183.7575070250023,None,1185.7794998710015,1187.3001722850022,1187.2834760190017,None,1188.8375566649993,None,1,1190.8094229140006,None,1190.8094229140006,None,1190.8094229140006,None,1191.5279837630005,None,1191.5279837630005,1192.530619985002,1193.6335298220001,None,1193.6335298220001,None,left,1193.6335298220001,None,1194.9369693360022,None,None,None,0.6033845470010419,1.267275480000535,,,,,,,,,,,,,109,001,18,1,2019_Dec_06_1209,Test,3.2.4,59.84121695665333,
Pictures/IA75_G30.bmp,Pictures/IA75_G30.bmp,Pictures/IA75.bmp,"

"Be bold, gamble!"",1,risk,,,,,1,0,1,0,0,15,15,10,,,,,,,,,,,,,,,,,,,,,,,,,,,,,,,1195.6555299620013,None,1197.6775227360013,1199.1981957390017,1199.1814764709998,None,1200.7355792380004,None,1,1202.707446190001,None,1202.707446190001,None,1202.707446190001,None,1203.2923062020018,None,1203.2923062020018,1204.294943404002,1205.3978551389991,None,1205.3978551389991,None,left,1205.3978551389991,None,1206.534189807,None,None,None,0.4973685580007441,1.0869460909998452,,,,,,,,,,,,,109,001,18,1,2019_Dec_06_1209,Test,3.2.4,59.84121695665333,
Pictures/IA25_L5.bmp,Pictures/IA25_L5.bmp,Pictures/IA25.bmp,"

"It would be smarter to choose the safe option."",0,safe,,,,,1,0,1,0,0,16,16,19,,,,,,,,,,,,,,,,,,,,,,,,,,,,,,,1207.419844049,None,1209.4418583389997,1210.962510313002,1210.9458147289988,None,1212.4998988350017,None,1,1214.471758005002,None,1214.471758005002,None,1214.471758005002,None,1215.9256005099996,None,1215.9256005099996,1216.9282355200012,1218.0311474650007,None,1218.0311474650007,None,right,1218.0311474650007,None,None,None,1218.766407875999,1220.0364151210015,1.3010531979998632,0.6936639390005439,,,,,,,,,,,,,109,001,18,1,2019_Dec_06_1209,Test,3.2.4,59.84121695665333,
Pictures/IA100_G60.bmp,Pictures/IA100_G60.bmp,Pictures/IA100.bmp,"

"Be cautious, don't gamble for this one."",0,safe,,,,,1,0,1,0,0,17,17,17,,,,,,,,,,,,,,,,,,,,,,,,,,,,,,,1220.053134455,None,1222.0751291039996,1223.5958064670012,1223.579083675002,None,1225.0997674560022,None,1,1227.1050698420004,None,1227.1050698420004,None,1227.1050698420004,None,1228.1076919219995,None,1228.1076919219995,1229.1103288939994,1230.213240508001,None,1230.213240508001,None,left,1230.213240508001,None,1230.8148093320015,1232.2185074340014,None,None,0.8837498879984196,0.5675629210018087,,,,,,,,,,,,,109,001,18,1,2019_Dec_06_1209,Test,3.2.4,59.84121695665333,
Pictures/IA50_L30.bmp,Pictures/IA50_L30.bmp,Pictures/IA50.bmp,"

"Take a leap, I think you should gamble."",1,risk,,,,,1,0,1,0,0,18,18,7,,,,,,,,,,,,,,,,,,,,,,,,,,,,,,,1232.2352311659997,None,1234.2572236560009,1235.7778989260005,1235.761179006,None,1237.2818771660022,None,1,1239.287145254999,None,1239.287145254999,None,1239.287145254999,None,1239.7550326689998,None,1239.7550326689998,1240.7576683139996,1241.8605820060002,None,1241.8605820060002,None,left,1241.8605820060002,None,1243.7990303100014,None,None,None,0.3176612040006148,1.9042172619992925,,,,,,,,,,,,,109,001,18,1,2019_Dec_06_1209,Test,3.2.4,59.84121695665333,
Pictures/IA40_20_G95p.bmp,Pictures/IA40_20_G95p.bmp,Pictures/IA40.bmp,"

"Hold back, stay with the safe choice."",0,safe,,,,,1,0,1,0,0,19,19,18,,,,,,,,,,,,,,,,,,,,,,,,,,,,,,,1243.8825722700021,None,1245.9045669980005,1247.4252346850008,1247.4085381590012,None,1248.9291986140015,None,2,1250.9344857270007,None,1250.9344857270007,None,1250.9344857270007,None,None,None,None,None,1252.6222619239998,None,1252.6222619239998,None,left,1252.6222619239998,None,1253.4745046320022,1254.6107988600015,None,None,1.5183262069986085,0.8065456800031825,,,,,,,,,,,,,109,001,18,1,2019_Dec_06_1209,Test,3.2.4,59.84121695665333,
,,,,,,,,,,1,0,1,0,,,,,,,,,,,,,,,,,,,,,,,,,,,,,,,,,,,,,,,,,,,,,,,,,,,,,,,,,,,,,,,,,,,,,,,,,1254.7779582000003,None,return,14.538841787998535,1254.7779582000003,None,109,001,18,1,2019_Dec_06_1209,Test,3.2.4,59.84121695665333,
Pictures/IA100_L40.bmp,Pictures/IA100_L40.bmp,Pictures/IA100.bmp,"

"Think of the payoff, gamble!"",1,risk,,,,,2,0,2,0,0,0,0,19,,,,,,,,,,,,,1269.4833628980014,None,1269.4833628980014,None,1269.4833628980014,None,right,1.4494430659979116,1269.4833628980014,None,1269.4833628980014,None,1269.4833628980014,None,return,2.649230732997239,1269.4833628980014,None,1272.1737830829989,None,1274.179052915999,1275.699730602999,1275.6830271670005,None,1277.2371122900004,None,1,1279.208974688001,None,1279.208974688001,None,1279.208974688001,None,1280.2116137740013,None,1280.2116137740013,1281.2142516150016,1282.317162653002,None,1282.317162653002,None,left,1282.317162653002,None,1283.8378299340002,None,None,None,0.8838312980005867,1.4796556010005588,,,,,,,,,,,,,109,001,18,1,2019_Dec_06_1209,Test,3.2.4,59.84121695665333,
Pictures/IA75_G60.bmp,Pictures/IA75_G60.bmp,Pictures/IA75.bmp,"

"Make it exciting, take a chance!"",1,risk,,,,,2,0,2,0,0,1,1,18,,,,,,,,,,,,,,,,,,,,,,,,,,,,,,,1284.3224522349992,None,1286.3444445610003,1287.8651165510018,1287.8483976630014,None,1289.4025016939995,None,1,1291.374370378002,None,1291.374370378002,None,1291.374370378002,None,1292.0762130680014,None,1292.0762130680014,1293.0788550100006,1294.1817653729995,None,1294.1817653729995,None,right,1294.1817653729995,None,None,None,1295.1175469369991,1296.187028182001,0.582434915999329,0.8950516839977354,,,,,,,,,,,,,109,001,18,1,2019_Dec_06_1209,Test,3.2.4,59.84121695665333,
Pictures/IA20_10_G95p.bmp,Pictures/IA20_10_G95p.bmp,Pictures/IA20.bmp,"

"Take a leap, I think you should gamble."",1,risk,,,,,2,0,2,0,0,2,2,4,,,,,,,,,,,,,,,,,,,,,,,,,,,,,,,1296.2037509620022,None,1298.2257510150012,1299.746417860002,1299.7297059740013,None,1301.283801411002,None,2,1303.2556666870005,None,1303.2556666870005,None,1303.2556666870005,None,None,None,None,None,1305.4781889320002,None,1305.4781889320002,None,left,1305.4781889320002,None,1307.0322834489998,None,None,None,2.053139570001804,1.510625599999912,,,,,,,,,,,,,109,001,18,1,2019_Dec_06_1209,Test,3.2.4,59.84121695665333,
Pictures/IA25_G20.bmp,Pictures/IA25_G20.bmp,Pictures/IA25.bmp,"

"I wouldn't gamble for this one. "",0,safe,,,,,2,0,2,0,0,3,3,9,,,,,,,,,,,,,,,,,,,,,,,,,,,,,,,1307.4834662840003,None,1309.5054682910013,1311.026137142002,1311.0094171080018,None,1312.5635218099997,None,2,1314.5353825099992,None,1314.5353825099992,None,1314.5353825099992,None,None,None,None,None,1316.306706588999,None,1316.306706588999,None,right,1316.306706588999,None,None,None,1316.9417189390006,1318.311982493,1.5894220830014092,0.586106689999724,,,,,,,,,,,,,109,001,18,1,2019_Dec_06_1209,Test,3.2.4,59.84121695665333,
Pictures/IA110_55_L95p.bmp,Pictures/IA110_55_L95p.bmp,Pictures/IA110.bmp,"

"Trust me, gamble!"",1,risk,,,,,2,0,2,0,0,4,4,16,,,,,,,,,,,,,,,,,,,,,,,,,,,,,,,1318.328704530999,None,1320.3506983000007,1321.8713703829999,1321.8546531440006,None,1323.3586242419988,None,1,1325.3806077650006,None,1325.3806077650006,None,1325.3806077650006,None,1326.7675951650017,None,1326.7675951650017,1327.7702331450018,1328.8898557100001,None,1328.8898557100001,None,right,1328.8898557100001,None,None,None,1329.2073545790008,1330.878423129001,1.2722151470006793,0.28294263100178796,,,,,,,,,,,,,109,001,18,1,2019_Dec_06_1209,Test,3.2.4,59.84121695665333,
Pictures/IA75_L30.bmp,Pictures/IA75_L30.bmp,Pictures/IA75.bmp,"

"Hold back, stay with the safe choice."",0,safe,,,,,2,0,2,0,0,5,5,12,,,,,,,,,,,,,,,,,,,,,,,,,,,,,,,1330.8951438020013,None,1332.9171389219991,1334.4378084900018,1334.4210928920002,None,1335.925064125,None,1,1337.9470482770012,None,1337.9470482770012,None,1337.9470482770012,None,1338.6823185300018,None,1338.6823185300018,1339.6849564580007,1340.804575946,None,1340.804575946,None,left,1340.804575946,None,1341.2056433850012,1342.8098642639998,None,None,0.5697693759975664,0.3602299509984732,,,,,,,,,,,,,109,001,18,1,2019_Dec_06_1209,Test,3.2.4,59.84121695665333,
Pictures/IA50_G40.bmp,Pictures/IA50_G40.bmp,Pictures/IA50.bmp,"

"It would probably be best to play it safe."",0,safe,,,,,2,0,2,0,0,6,6,7,,,,,,,,,,,,,,,,,,,,,,,,,,,,,,,1342.8265659190001,None,1344.848565463999,1346.369232596,1346.3525425709995,None,1347.8899067040002,None,1,1349.878493504999,None,1349.878493504999,None,1349.878493504999,None,1350.329683431999,None,1350.329683431999,1351.332315181,1352.4519392270013,None,1352.4519392270013,None,left,1352.4519392270013,None,1353.655096407001,None,None,None,0.3103181440019398,1.16885786399871,,,,,,,,,,,,,109,001,18,1,2019_Dec_06_1209,Test,3.2.4,59.84121695665333,
Pictures/IA80_40_G95p.bmp,Pictures/IA80_40_G95p.bmp,Pictures/IA80.bmp,"

"Think of the payoff, gamble!"",1,risk,,,,,2,0,2,0,0,7,7,14,,,,,,,,,,,,,,,,,,,,,,,,,,,,,,,1354.4739271370017,None,1356.4959236190007,1358.016592639,1357.999878857001,None,1359.5205583450006,None,1,1361.525842678002,None,1361.525842678002,None,1361.525842678002,None,1362.3613785429989,None,1362.3613785429989,1363.364013243001,1364.4836375010018,None,1364.4836375010018,None,left,1364.4836375010018,None,1366.0544267030018,None,None,None,0.7029790679989674,1.5211694560020987,,,,,,,,,,,,,109,001,18,1,2019_Dec_06_1209,Test,3.2.4,59.84121695665333,
Pictures/IA25_G15.bmp,Pictures/IA25_G15.bmp,Pictures/IA25.bmp,"

"I think you should take a gamble."",1,risk,,,,,2,0,2,0,0,8,8,1,,,,,,,,,,,,,,,,,,,,,,,,,,,,,,,1366.505613772999,None,1368.5276081150005,1370.0482806159998,1370.0315858390022,None,1371.5355351530015,None,1,1373.557541459002,None,1373.557541459002,None,1373.557541459002,None,1374.7272879800003,None,1374.7272879800003,1375.7299233820013,1376.832835895002,None,1376.832835895002,None,right,1376.832835895002,None,None,None,1377.935731507001,None,1.0392752779989678,1.0679601400006504,,,,,,,,,,,,,109,001,18,1,2019_Dec_06_1209,Test,3.2.4,59.84121695665333,
Pictures/IA25_G5.bmp,Pictures/IA25_G5.bmp,Pictures/IA25.bmp,"

"Let's stay with the certain option."",0,safe,,,,,2,0,2,0,0,9,9,3,,,,,,,,,,,,,,,,,,,,,,,,,,,,,,,1378.8548129090013,None,1380.8768084559997,1382.3974805430007,1382.3807862880021,None,1383.9014443990018,None,1,1385.9067318929992,None,1385.9067318929992,None,1385.9067318929992,None,1388.5470278130015,None,1388.5470278130015,1389.5496677369993,1390.6525755370021,None,1390.6525755370021,None,left,1390.6525755370021,None,1391.6050828859989,1392.641131485001,None,None,2.5060737509993487,0.9042307909985539,,,,,,,,,,,,,109,001,18,1,2019_Dec_06_1209,Test,3.2.4,59.84121695665333,
Pictures/IA50_L10.bmp,Pictures/IA50_L10.bmp,Pictures/IA50.bmp,"

"Play it safe, don’t gamble!"",0,safe,,,,,2,0,2,0,0,10,10,11,,,,,,,,,,,,,,,,,,,,,,,,,,,,,,,1392.657853528999,None,1394.679847722,1396.2005212850017,1396.1838026980004,None,1397.7211955150015,None,2,1399.7097600750021,None,1399.7097600750021,None,1399.7097600750021,None,None,None,None,None,1401.3139842029996,None,1401.3139842029996,None,right,1401.3139842029996,None,None,None,1401.631484337002,1403.3025522909993,1.4470605099995737,0.27482659999805037,,,,,,,,,,,,,109,001,18,1,2019_Dec_06_1209,Test,3.2.4,59.84121695665333,
Pictures/IA100_L20.bmp,Pictures/IA100_L20.bmp,Pictures/IA100.bmp,"

"Try to win as much money as you can, gamble!"",1,risk,,,,,2,0,2,0,0,11,11,2,,,,,,,,,,,,,,,,,,,,,,,,,,,,,,,1403.3192741240018,None,1405.3412721210007,1406.8619425239995,1406.8452243840002,None,1408.3659052850016,None,1,1410.3711904949996,None,1410.3711904949996,None,1410.3711904949996,None,1411.106449965002,None,1411.106449965002,1412.1090846129991,1413.2119963139994,None,1413.2119963139994,None,right,1413.2119963139994,None,None,None,1414.2814884100007,None,0.5856197399989469,1.024807089001115,,,,,,,,,,,,,109,001,18,1,2019_Dec_06_1209,Test,3.2.4,59.84121695665333,
Pictures/IA100_G60.bmp,Pictures/IA100_G60.bmp,Pictures/IA100.bmp,"

"Be cautious, don't gamble for this one."",0,safe,,,,,2,0,2,0,0,12,12,8,,,,,,,,,,,,,,,,,,,,,,,,,,,,,,,1415.2339930689996,None,1417.2559813200023,1418.7766533169997,1418.7599563600015,None,1420.2639054579995,None,1,1422.2859124560018,None,1422.2859124560018,None,1422.2859124560018,None,1423.9569790120004,None,1423.9569790120004,1424.9596172829988,1426.062549467002,None,1426.062549467002,None,left,1426.062549467002,None,1426.597256560999,1428.0677944560011,None,None,1.550892950999696,0.4862489090010058,,,,,,,,,,,,,109,001,18,1,2019_Dec_06_1209,Test,3.2.4,59.84121695665333,
Pictures/IA110_55_G95p.bmp,Pictures/IA110_55_G95p.bmp,Pictures/IA110.bmp,"

"Take a chance!"",1,risk,,,,,2,0,2,0,0,13,13,10,,,,,,,,,,,,,,,,,,,,,,,,,,,,,,,1428.0845154039998,None,1430.1065118369988,1431.6271826090015,1431.6104681680008,None,1433.1311469700013,None,1,1435.1364337060004,None,1435.1364337060004,None,1435.1364337060004,None,1435.9719654399996,None,1435.9719654399996,1436.9746052869996,1438.0775159699988,None,1438.0775159699988,None,left,1438.0775159699988,None,1438.4618576829998,1440.0660828159998,None,None,0.7403809380011808,0.33528239599763765,,,,,,,,,,,,,109,001,18,1,2019_Dec_06_1209,Test,3.2.4,59.84121695665333,
Pictures/IA50_G20.bmp,Pictures/IA50_G20.bmp,Pictures/IA50.bmp,"

"Let's venture and take a risk!"",1,risk,,,,,2,0,2,0,0,14,14,0,,,,,,,,,,,,,,,,,,,,,,,,,,,,,,,1440.082782026002,None,1442.1047776939995,1443.6254486069993,1443.6087525459989,None,1445.162836255,None,1,1447.134698807,None,1447.134698807,None,1447.134698807,None,1447.7529919959998,None,1447.7529919959998,1448.755628318002,1449.8752501960007,None,1449.8752501960007,None,left,1449.8752501960007,None,1451.0617060209988,None,None,None,0.5101134110009298,1.1375673210022796,,,,,,,,,,,,,109,001,18,1,2019_Dec_06_1209,Test,3.2.4,59.84121695665333,
Pictures/IA40_20_G95p.bmp,Pictures/IA40_20_G95p.bmp,Pictures/IA40.bmp,"

"Hold back, stay with the safe choice."",0,safe,,,,,2,0,2,0,0,15,15,17,,,,,,,,,,,,,,,,,,,,,,,,,,,,,,,1451.880540555001,None,1453.9025402830011,1455.4232049570019,1455.406494455001,None,1456.9104643480023,None,1,1458.932447015999,None,1458.932447015999,None,1458.932447015999,None,1459.8181101910013,None,1459.8181101910013,1460.820745426001,1461.9236606070008,None,1461.9236606070008,None,left,1461.9236606070008,None,1462.2411963199993,1463.9122241549994,None,None,0.7443679089992656,0.28114534599808394,,,,,,,,,,,,,109,001,18,1,2019_Dec_06_1209,Test,3.2.4,59.84121695665333,
Pictures/IA100_G80.bmp,Pictures/IA100_G80.bmp,Pictures/IA100.bmp,"

"Why not gamble?"",1,risk,,,,,2,0,2,0,0,16,16,6,,,,,,,,,,,,,,,,,,,,,,,,,,,,,,,1463.9289466539994,None,1465.950944373999,1467.471615655999,1467.4548966340008,None,1469.009003002,None,1,1470.9808740480003,None,1470.9808740480003,None,1470.9808740480003,None,1471.6994224490008,None,1471.6994224490008,1472.702059096002,1473.8049695320005,None,1473.8049695320005,None,right,1473.8049695320005,None,None,None,1474.0890484779993,1475.810250417002,0.6159335110023676,0.2398516360008216,,,,,,,,,,,,,109,001,18,1,2019_Dec_06_1209,Test,3.2.4,59.84121695665333,
Pictures/IA20_10_L95p.bmp,Pictures/IA20_10_L95p.bmp,Pictures/IA20.bmp,"

"Don't be tempted to gamble."",0,safe,,,,,2,0,2,0,0,17,17,5,,,,,,,,,,,,,,,,,,,,,,,,,,,,,,,1475.8269481019997,None,1477.8489431019989,1479.369614580999,1479.352923311999,None,1480.8735769740015,None,2,1482.878863591999,None,1482.878863591999,None,1482.878863591999,None,None,None,None,None,1484.1321762080006,None,1484.1321762080006,None,right,1484.1321762080006,None,None,None,1484.3995336410007,1486.1207441730003,1.0619526429982216,0.23262995299955946,,,,,,,,,,,,,109,001,18,1,2019_Dec_06_1209,Test,3.2.4,59.84121695665333,
Pictures/IA75_G45.bmp,Pictures/IA75_G45.bmp,Pictures/IA75.bmp,"

"Don't gamble for this one."",0,safe,,,,,2,0,2,0,0,18,18,13,,,,,,,,,,,,,,,,,,,,,,,,,,,,,,,1486.1374441709995,None,1488.1594398119996,1489.6801143730008,1489.6634155220017,None,1491.217497122001,None,1,1493.1893620320006,None,1493.1893620320006,None,1493.1893620320006,None,1493.9079192930003,None,1493.9079192930003,1494.9105550640015,1496.0301782560018,None,1496.0301782560018,None,left,1496.0301782560018,None,1496.8323439060005,1498.018727794999,None,None,0.6074532040001941,0.7666191300013452,,,,,,,,,,,,,109,001,18,1,2019_Dec_06_1209,Test,3.2.4,59.84121695665333,
Pictures/IA50_G30.bmp,Pictures/IA50_G30.bmp,Pictures/IA50.bmp,"

"I think you should gamble."",1,risk,,,,,2,0,2,0,0,19,19,15,,,,,,,,,,,,,,,,,,,,,,,,,,,,,,,1498.0354533280006,None,1500.1243211280016,1501.628243706,1501.6115430850004,None,1503.1155034959993,None,2,1505.0873658439996,None,1505.0873658439996,None,1505.0873658439996,None,None,None,None,None,1506.2905449390018,None,1506.2905449390018,None,None,1506.2905449390018,None,None,None,None,None,1.0454467399977148,,,,,,,,,,,,,,109,001,18,1,2019_Dec_06_1209,Test,3.2.4,59.84121695665333,
,,,,,,,,,,2,0,2,0,,,,,,,,,,,,,,,,,,,,,,,,,,,,,,,,,,,,,,,,,,,,,,,,,,,,,,,,,,,,,,,,,,,,,,,,,1508.4462257800005,None,return,8.71058203100256,1508.4462257800005,None,109,001,18,1,2019_Dec_06_1209,Test,3.2.4,59.84121695665333,
Pictures/IA75_G60.bmp,Pictures/IA75_G60.bmp,Pictures/IA75.bmp,"

"Make it exciting, take a chance!"",1,risk,,,,,3,0,3,0,0,0,0,10,,,,,,,,,,,,,1517.3864449079992,None,1517.3864449079992,None,1517.3864449079992,None,right,1.1063621979992604,1517.3864449079992,None,1517.3864449079992,None,1517.3864449079992,None,return,2.2502589260002424,1517.3864449079992,None,1519.6758047010007,None,1521.714502114999,1523.2184592779995,1523.185033529,None,1524.7224361379995,None,1,1526.7110014259997,None,1526.7110014259997,None,1526.7110014259997,None,1527.3125818049994,None,1527.3125818049994,1528.3152112989992,1529.4181214540004,None,1529.4181214540004,None,right,1529.4181214540004,None,None,None,1530.7215641879993,None,0.47781399799714563,1.2586965050031722,,,,,,,,,,,,,109,001,18,1,2019_Dec_06_1209,Test,3.2.4,59.84121695665333,
Pictures/IA100_G80.bmp,Pictures/IA100_G80.bmp,Pictures/IA100.bmp,"

"Why not gamble?"",1,risk,,,,,3,0,3,0,0,1,1,6,,,,,,,,,,,,,,,,,,,,,,,,,,,,,,,1531.423421296,None,1533.4621387100015,1534.9662011580003,1534.949368259,None,1536.4867524799993,None,1,1538.4753361399999,None,1538.4753361399999,None,1538.4753361399999,None,1539.3275686960005,None,1539.3275686960005,1540.330204582002,1541.4331082870012,None,1541.4331082870012,None,right,1541.4331082870012,None,None,None,1541.8007583020008,1543.4384034680006,0.7614649490024021,0.3317002459989453,,,,,,,,,,,,,109,001,18,1,2019_Dec_06_1209,Test,3.2.4,59.84121695665333,
Pictures/IA25_G20.bmp,Pictures/IA25_G20.bmp,Pictures/IA25.bmp,"

"I wouldn't gamble for this one. "",0,safe,,,,,3,0,3,0,0,2,2,14,,,,,,,,,,,,,,,,,,,,,,,,,,,,,,,1543.4551224530005,None,1545.4938287709992,1546.9977731219988,1546.981054071999,None,1548.5017267570001,None,2,1550.5070330550006,None,1550.5070330550006,None,1550.5070330550006,None,None,None,None,None,1551.8271580319997,None,1551.8271580319997,None,right,1551.8271580319997,None,None,None,1552.0611328070008,1553.8157346469998,1.121796807001374,0.19365377099893522,,,,,,,,,,,,,109,001,18,1,2019_Dec_06_1209,Test,3.2.4,59.84121695665333,
Pictures/IA25_G5.bmp,Pictures/IA25_G5.bmp,Pictures/IA25.bmp,"

"Let's stay with the certain option."",0,safe,,,,,3,0,3,0,0,3,3,15,,,,,,,,,,,,,,,,,,,,,,,,,,,,,,,1553.8324550010002,None,1555.8544445299995,1557.3584281100011,1557.3416926319987,None,1558.9125321020001,None,1,1560.884367904,None,1560.884367904,None,1560.884367904,None,1561.4692579799994,None,1561.4692579799994,1562.471893971,1563.5915406370004,None,1563.5915406370004,None,left,1563.5915406370004,None,1563.9758798399998,1565.5800633460021,None,None,0.4564552609990642,0.3492525170004228,,,,,,,,,,,,,109,001,18,1,2019_Dec_06_1209,Test,3.2.4,59.84121695665333,
Pictures/IA40_20_G95p.bmp,Pictures/IA40_20_G95p.bmp,Pictures/IA40.bmp,"

"Hold back, stay with the safe choice."",0,safe,,,,,3,0,3,0,0,4,4,3,,,,,,,,,,,,,,,,,,,,,,,,,,,,,,,1565.596787819999,None,1567.6354851460019,1569.156155888002,1569.1394585859998,None,1570.660130018001,None,2,1572.6487032309997,None,1572.6487032309997,None,1572.6487032309997,None,None,None,None,None,1574.102531116001,None,1574.102531116001,None,left,1574.102531116001,None,1574.3866051080004,1576.0911329910014,None,None,1.2441077830007998,0.24628768700131332,,,,,,,,,,,,,109,001,18,1,2019_Dec_06_1209,Test,3.2.4,59.84121695665333,
Pictures/IA100_L40.bmp,Pictures/IA100_L40.bmp,Pictures/IA100.bmp,"

"Think of the payoff, gamble!"",1,risk,,,,,3,0,3,0,0,5,5,8,,,,,,,,,,,,,,,,,,,,,,,,,,,,,,,1576.1078068570023,None,1578.1465071499988,1579.6504910770018,1579.6337647159999,None,1581.1878763120003,None,1,1583.159746835001,None,1583.159746835001,None,1583.159746835001,None,1584.8475122179989,None,1584.8475122179989,1585.850188004999,1586.9697850439989,None,1586.9697850439989,None,None,1586.9697850439989,None,None,None,None,None,1.5570586590001767,,,,,,,,,,,,,,109,001,18,1,2019_Dec_06_1209,Test,3.2.4,59.84121695665333,
Pictures/IA50_G30.bmp,Pictures/IA50_G30.bmp,Pictures/IA50.bmp,"

"I think you should gamble."",1,risk,,,,,3,0,3,0,0,6,6,4,,,,,,,,,,,,,,,,,,,,,,,,,,,,,,,1588.9750332110016,None,1591.013739176,1592.534410946002,1592.5177180890023,None,1594.0383890760022,None,1,1596.0269495499997,None,1596.0269495499997,None,1596.0269495499997,None,1596.4614267430006,None,1596.4614267430006,1597.4640613880001,1598.566974761001,None,1598.566974761001,None,right,1598.566974761001,None,None,None,1600.1377857670013,None,0.30586840600153664,1.5338240040000528,,,,,,,,,,,,,109,001,18,1,2019_Dec_06_1209,Test,3.2.4,59.84121695665333,
Pictures/IA25_L10.bmp,Pictures/IA25_L10.bmp,Pictures/IA25.bmp,"

"Dont be afraid to take the risk!"",1,risk,,,,,3,0,3,0,0,7,7,18,,,,,,,,,,,,,,,,,,,,,,,,,,,,,,,1600.588976621002,None,1602.6109696210005,1604.1316406400001,1604.114924239002,None,1605.6690272100022,None,1,1607.640891430001,None,1607.640891430001,None,1607.640891430001,None,1608.2090549429995,None,1608.2090549429995,1609.2116900319998,1610.3146005000017,None,1610.3146005000017,None,left,1610.3146005000017,None,1611.4342171030003,None,None,None,0.43592409899792983,1.0822025820016279,,,,,,,,,,,,,109,001,18,1,2019_Dec_06_1209,Test,3.2.4,59.84121695665333,
Pictures/IA75_L15.bmp,Pictures/IA75_L15.bmp,Pictures/IA75.bmp,"

"Trust me, gamble!"",1,risk,,,,,3,0,3,0,0,8,8,7,,,,,,,,,,,,,,,,,,,,,,,,,,,,,,,1612.3198847450003,None,1614.358573624002,1615.8792453970018,1615.862549587,None,1617.3999331609994,None,2,1619.3717947379992,None,1619.3717947379992,None,1619.3717947379992,None,None,None,None,None,1619.923241157001,None,1619.923241157001,None,right,1619.923241157001,None,None,None,1620.3577237440004,1621.928514612002,0.38502393899761955,0.3855774740004563,,,,,,,,,,,,,109,001,18,1,2019_Dec_06_1209,Test,3.2.4,59.84121695665333,
Pictures/IA50_G20.bmp,Pictures/IA50_G20.bmp,Pictures/IA50.bmp,"

"Let's venture and take a risk!"",1,risk,,,,,3,0,3,0,0,9,9,11,,,,,,,,,,,,,,,,,,,,,,,,,,,,,,,1621.9452370709987,None,1623.9672344600003,1625.4879033040015,1625.4711878140006,None,1627.0085778950015,None,1,1628.9971432710008,None,1628.9971432710008,None,1628.9971432710008,None,1629.348066871,None,1629.348066871,1630.350704646,1631.4536131080022,None,1631.4536131080022,None,right,1631.4536131080022,None,None,None,1633.2917970730014,None,0.24766964900118182,1.7911922269995557,,,,,,,,,,,,,109,001,18,1,2019_Dec_06_1209,Test,3.2.4,59.84121695665333,
Pictures/IA50_G40.bmp,Pictures/IA50_G40.bmp,Pictures/IA50.bmp,"

"It would probably be best to play it safe."",0,safe,,,,,3,0,3,0,0,10,10,16,,,,,,,,,,,,,,,,,,,,,,,,,,,,,,,1633.4756189750005,None,1635.4976125620014,1637.0182827509998,1637.001562046,None,1638.5389546330007,None,1,1640.527517966002,None,1640.527517966002,None,1640.527517966002,None,1641.2627870600008,None,1641.2627870600008,1642.2654233739995,1643.368335948002,None,1643.368335948002,None,right,1643.368335948002,None,None,None,1644.0200505089997,1645.356920391001,0.573297809001815,0.6124688439995225,,,,,,,,,,,,,109,001,18,1,2019_Dec_06_1209,Test,3.2.4,59.84121695665333,
Pictures/IA100_G40.bmp,Pictures/IA100_G40.bmp,Pictures/IA100.bmp,"

"Try your luck and gamble!"",1,risk,,,,,3,0,3,0,0,11,11,13,,,,,,,,,,,,,,,,,,,,,,,,,,,,,,,1645.373613947002,None,1647.3956086860017,1648.91628193,1648.8995854310015,None,1650.4536701120014,None,1,1652.4255297339987,None,1652.4255297339987,None,1652.4255297339987,None,1652.9769842450005,None,1652.9769842450005,1653.9796195970011,1655.0992418259993,None,1655.0992418259993,None,left,1655.0992418259993,None,1656.101890902999,None,None,None,0.4352888499997789,0.9615633200010052,,,,,,,,,,,,,109,001,18,1,2019_Dec_06_1209,Test,3.2.4,59.84121695665333,
Pictures/IA75_G15.bmp,Pictures/IA75_G15.bmp,Pictures/IA75.bmp,"

"Take a chance!"",1,risk,,,,,3,0,3,0,0,12,12,17,,,,,,,,,,,,,,,,,,,,,,,,,,,,,,,1657.1212307179994,None,1659.1432239540009,1660.663896514001,1660.6472013240018,None,1662.2012861549993,None,1,1664.173147753001,None,1664.173147753001,None,1664.173147753001,None,1664.741309481,None,1664.741309481,1665.7439461380018,1666.8468633320008,None,1666.8468633320008,None,left,1666.8468633320008,None,1668.1837303950015,None,None,None,0.47966789999918547,1.3019381939993764,,,,,,,,,,,,,109,001,18,1,2019_Dec_06_1209,Test,3.2.4,59.84121695665333,
Pictures/IA20_10_G95p.bmp,Pictures/IA20_10_G95p.bmp,Pictures/IA20.bmp,"

"Take a leap, I think you should gamble."",1,risk,,,,,3,0,3,0,0,13,13,12,,,,,,,,,,,,,,,,,,,,,,,,,,,,,,,1668.8688467230022,None,1670.9075518600002,1672.4282241420005,1672.411528225999,None,1673.948912019001,None,1,1675.9207739660014,None,1675.9207739660014,None,1675.9207739660014,None,1678.009608280001,None,1678.009608280001,1679.0122460099992,1680.115158867,None,1680.115158867,None,left,1680.115158867,None,1681.8864768929998,None,None,None,1.94803712599969,1.721649259001424,,,,,,,,,,,,,109,001,18,1,2019_Dec_06_1209,Test,3.2.4,59.84121695665333,
Pictures/IA50_L40.bmp,Pictures/IA50_L40.bmp,Pictures/IA50.bmp,"

"That gamble doesn't sound too good, play it safe."",0,safe,,,,,3,0,3,0,0,14,14,1,,,,,,,,,,,,,,,,,,,,,,,,,,,,,,,1682.1371352690003,None,1684.1591337140017,1685.6798028129997,1685.6631064510002,None,1687.2171912150006,None,1,1689.1890522940012,None,1689.1890522940012,None,1689.1890522940012,None,1690.9436831989988,None,1690.9436831989988,1691.9463216510012,1693.0659420119991,None,1693.0659420119991,None,left,1693.0659420119991,None,1694.586573261,None,None,None,1.5997654279999551,1.474869072000729,,,,,,,,,,,,,109,001,18,1,2019_Dec_06_1209,Test,3.2.4,59.84121695665333,
Pictures/IA25_G15.bmp,Pictures/IA25_G15.bmp,Pictures/IA25.bmp,"

"I think you should take a gamble."",1,risk,,,,,3,0,3,0,0,15,15,5,,,,,,,,,,,,,,,,,,,,,,,,,,,,,,,1695.0712101380013,None,1697.093206376001,1698.613878401,1698.5971815529992,None,1700.1512629950012,None,1,1702.1231269679993,None,1702.1231269679993,None,1702.1231269679993,None,1703.5268237400014,None,1703.5268237400014,1704.5294602460017,1705.6323726110022,None,1705.6323726110022,None,right,1705.6323726110022,None,None,None,1706.0334353610015,1707.6376627070022,1.2736927380028646,0.356431413001701,,,,,,,,,,,,,109,001,18,1,2019_Dec_06_1209,Test,3.2.4,59.84121695665333,
Pictures/IA25_L5.bmp,Pictures/IA25_L5.bmp,Pictures/IA25.bmp,"

"It would be smarter to choose the safe option."",0,safe,,,,,3,0,3,0,0,16,16,0,,,,,,,,,,,,,,,,,,,,,,,,,,,,,,,1707.6543654740017,None,1709.6763556699989,1711.1970306760013,1711.1803413250018,None,1712.7344126290009,None,2,1714.7062827180016,None,1714.7062827180016,None,1714.7062827180016,None,None,None,None,None,1715.4248491850012,None,1715.4248491850012,None,right,1715.4248491850012,None,None,None,1715.742347763,1717.4134143390002,0.530544822999218,0.28395845200066105,,,,,,,,,,,,,109,001,18,1,2019_Dec_06_1209,Test,3.2.4,59.84121695665333,
Pictures/IA50_L30.bmp,Pictures/IA50_L30.bmp,Pictures/IA50.bmp,"

"Take a leap, I think you should gamble."",1,risk,,,,,3,0,3,0,0,17,17,19,,,,,,,,,,,,,,,,,,,,,,,,,,,,,,,1717.4301151479995,None,1719.4521152919988,1720.9727824260008,1720.9560892510017,None,1722.5101715829987,None,2,1724.4820352509996,None,1724.4820352509996,None,1724.4820352509996,None,None,None,None,None,1726.871695222002,None,1726.871695222002,None,left,1726.871695222002,None,1728.7766751870004,None,None,None,2.2027708889982023,1.869109817998833,,,,,,,,,,,,,109,001,18,1,2019_Dec_06_1209,Test,3.2.4,59.84121695665333,
Pictures/IA110_55_L95p.bmp,Pictures/IA110_55_L95p.bmp,Pictures/IA110.bmp,"

"Trust me, gamble!"",1,risk,,,,,3,0,3,0,0,18,18,9,,,,,,,,,,,,,,,,,,,,,,,,,,,,,,,1728.8936490230008,None,1730.9323551490015,1732.453026957999,1732.4363300149998,None,1733.9737136990007,None,1,1735.9455881009999,None,1735.9455881009999,None,1735.9455881009999,None,1738.0511130119994,None,1738.0511130119994,1739.0537499400016,1740.1566607749992,None,1740.1566607749992,None,right,1740.1566607749992,None,None,None,1741.2595732549999,None,2.0032186650023505,1.0641457319979963,,,,,,,,,,,,,109,001,18,1,2019_Dec_06_1209,Test,3.2.4,59.84121695665333,
Pictures/IA110_55_G95p.bmp,Pictures/IA110_55_G95p.bmp,Pictures/IA110.bmp,"

"Take a chance!"",1,risk,,,,,3,0,3,0,0,19,19,2,,,,,,,,,,,,,,,,,,,,,,,,,,,,,,,1742.1786785110016,None,1744.200657898,1745.704606752999,1745.6879113880022,None,1747.2587137600021,None,1,1749.2305787450023,None,1749.2305787450023,None,1749.2305787450023,None,1750.4170258250015,None,1750.4170258250015,1751.419673602999,1752.522584680999,None,1752.522584680999,None,left,1752.522584680999,None,1753.4917900280016,1754.527862015002,None,None,1.1022349640006723,0.9302196349999576,,,,,,,,,,,,,109,001,18,1,2019_Dec_06_1209,Test,3.2.4,59.84121695665333,
,,,,,,,,,,3,0,3,0,,,,,,,,,,,,,,,,,,,,,,,,,,,,,,,,,,,,,,,,,,,,,,,,,,,,,,,,,,,,,,,,,,,,,,,,,1754.6949644800006,None,return,5.269830584002193,1754.6949644800006,None,109,001,18,1,2019_Dec_06_1209,Test,3.2.4,59.84121695665333,
Pictures/IA25_G5.bmp,Pictures/IA25_G5.bmp,Pictures/IA25.bmp,"

"Let's stay with the certain option."",0,safe,,,,,4,0,4,0,0,0,0,18,,,,,,,,,,,,,1760.1593704570005,None,1760.1593704570005,None,1760.1593704570005,None,left,1.2134350870001072,1760.1593704570005,None,1760.1593704570005,None,1760.1593704570005,None,return,1.9812205319976783,1760.1593704570005,None,1762.181367860001,None,1764.2033559800002,1765.724026330001,1765.707309849,None,1767.2112713040005,None,1,1769.2165542020011,None,1769.2165542020011,None,1769.2165542020011,None,1770.0019565069997,None,1770.0019565069997,1771.0045919000004,1772.1242140540016,None,1772.1242140540016,None,left,1772.1242140540016,None,1772.4250128320018,1774.1294911639998,None,None,0.6442590879996715,0.2645894250017591,,,,,,,,,,,,,109,001,18,1,2019_Dec_06_1209,Test,3.2.4,59.84121695665333,
Pictures/IA25_L5.bmp,Pictures/IA25_L5.bmp,Pictures/IA25.bmp,"

"It would be smarter to choose the safe option."",0,safe,,,,,4,0,4,0,0,1,1,19,,,,,,,,,,,,,,,,,,,,,,,,,,,,,,,1774.1462137900016,None,1776.1682124979998,1777.688880531001,1777.6721636399998,None,1779.176282343,None,2,1781.198121469999,None,1781.198121469999,None,1781.198121469999,None,None,None,None,None,1782.2843142929996,None,1782.2843142929996,None,right,1782.2843142929996,None,None,None,1782.5182723469989,1784.2895933809996,0.9026968809994287,0.2004995190000045,,,,,,,,,,,,,109,001,18,1,2019_Dec_06_1209,Test,3.2.4,59.84121695665333,
Pictures/IA50_G20.bmp,Pictures/IA50_G20.bmp,Pictures/IA50.bmp,"

"Let's venture and take a risk!"",1,risk,,,,,4,0,4,0,0,2,2,3,,,,,,,,,,,,,,,,,,,,,,,,,,,,,,,1784.3063159250014,None,1786.328308991,1787.8489854559994,1787.8322661380007,None,1789.3529490940018,None,1,1791.3582462090017,None,1791.3582462090017,None,1791.3582462090017,None,1792.2438972130003,None,1792.2438972130003,1793.246534926002,1794.3494462890012,None,1794.3494462890012,None,left,1794.3494462890012,None,1795.9703834829998,None,None,None,0.7745620370005781,1.5753600040006859,,,,,,,,,,,,,109,001,18,1,2019_Dec_06_1209,Test,3.2.4,59.84121695665333,
Pictures/IA100_L20.bmp,Pictures/IA100_L20.bmp,Pictures/IA100.bmp,"

"Try to win as much money as you can, gamble!"",1,risk,,,,,4,0,4,0,0,3,3,1,,,,,,,,,,,,,,,,,,,,,,,,,,,,,,,1796.3547249219991,None,1798.3767253900005,1799.8806883409998,1799.8639298300004,None,1801.4347722029997,None,1,1803.406631613001,None,1803.406631613001,None,1803.406631613001,None,1803.7909741490002,None,1803.7909741490002,1804.7936119920014,1805.896524169002,None,1805.896524169002,None,right,1805.896524169002,None,None,None,1806.197339131999,1807.9018027300008,0.23818368700085557,0.25227843900211155,,,,,,,,,,,,,109,001,18,1,2019_Dec_06_1209,Test,3.2.4,59.84121695665333,
Pictures/IA100_G20.bmp,Pictures/IA100_G20.bmp,Pictures/IA100.bmp,"

"Go ahead and gamble!"",1,risk,,,,,4,0,4,0,0,4,4,2,,,,,,,,,,,,,,,,,,,,,,,,,,,,,,,1807.9185236580015,None,1809.9405202830021,1811.4611791850002,1811.4444869260005,None,1812.998568785999,None,1,1814.9704337270014,None,1814.9704337270014,None,1814.9704337270014,None,1817.243082437999,None,1817.243082437999,1818.2457198209995,1819.348631019002,None,1819.348631019002,None,left,1819.348631019002,None,1820.6019316070015,None,None,None,2.1783800209996116,1.2161680669996713,,,,,,,,,,,,,109,001,18,1,2019_Dec_06_1209,Test,3.2.4,59.84121695665333,
Pictures/IA75_L30.bmp,Pictures/IA75_L30.bmp,Pictures/IA75.bmp,"

"Hold back, stay with the safe choice."",0,safe,,,,,4,0,4,0,0,5,5,9,,,,,,,,,,,,,,,,,,,,,,,,,,,,,,,1821.3539197270002,None,1823.3759212490004,1824.8965845999992,1824.8798740570019,None,1826.4339770520019,None,1,1828.4058605880018,None,1828.4058605880018,None,1828.4058605880018,None,1829.308230142,None,1829.308230142,1830.3108375270021,1831.4304616890004,None,1831.4304616890004,None,left,1831.4304616890004,None,1832.0320521590002,1833.4357479249993,None,None,0.7669333140001982,0.5663429129999713,,,,,,,,,,,,,109,001,18,1,2019_Dec_06_1209,Test,3.2.4,59.84121695665333,
Pictures/IA25_L20.bmp,Pictures/IA25_L20.bmp,Pictures/IA25.bmp,"

"Don't be tempted to gamble."",0,safe,,,,,4,0,4,0,0,6,6,7,,,,,,,,,,,,,,,,,,,,,,,,,,,,,,,1833.452449075001,None,1835.4744448849997,1836.995116602,1836.9784275390011,None,1838.5325055559988,None,1,1840.5043661179989,None,1840.5043661179989,None,1840.5043661179989,None,1841.2229257280014,None,1841.2229257280014,1842.2255617260016,1843.3451852819999,None,1843.3451852819999,None,left,1843.3451852819999,None,1844.9661182010022,None,None,None,0.60444885600009,1.5796205639999243,,,,,,,,,,,,,109,001,18,1,2019_Dec_06_1209,Test,3.2.4,59.84121695665333,
Pictures/IA25_G10.bmp,Pictures/IA25_G10.bmp,Pictures/IA25.bmp,"

"What's life without a little risk?"",1,risk,,,,,4,0,4,0,0,7,7,6,,,,,,,,,,,,,,,,,,,,,,,,,,,,,,,1845.3504666150002,None,1847.3724561410017,1848.893129999,1848.8764326700002,None,1850.4305148439998,None,1,1852.4023830580009,None,1852.4023830580009,None,1852.4023830580009,None,1852.569491647002,None,1852.569491647002,1853.5721215209996,1854.675034019001,None,1854.675034019001,None,None,1854.675034019001,None,None,None,None,None,0.03441486600058852,,,,,,,,,,,,,,109,001,18,1,2019_Dec_06_1209,Test,3.2.4,59.84121695665333,
Pictures/IA75_G60.bmp,Pictures/IA75_G60.bmp,Pictures/IA75.bmp,"

"Make it exciting, take a chance!"",1,risk,,,,,4,0,4,0,0,8,8,13,,,,,,,,,,,,,,,,,,,,,,,,,,,,,,,1856.680313279001,None,1858.702307951,1860.2229958230018,1860.206285321001,None,1861.7603642270005,None,1,1863.7322356469995,None,1863.7322356469995,None,1863.7322356469995,None,1864.534340143,None,1864.534340143,1865.5369772900012,1866.639890298,None,1866.639890298,None,right,1866.639890298,None,None,None,1867.6759584200008,None,0.6805725150006765,0.9969125899988285,,,,,,,,,,,,,109,001,18,1,2019_Dec_06_1209,Test,3.2.4,59.84121695665333,
Pictures/IA25_G20.bmp,Pictures/IA25_G20.bmp,Pictures/IA25.bmp,"

"I wouldn't gamble for this one. "",0,safe,,,,,4,0,4,0,0,9,9,12,,,,,,,,,,,,,,,,,,,,,,,,,,,,,,,1868.661889283001,None,1870.6838837319992,1872.204545605,1872.1878625009995,None,1873.7586477990008,None,2,1875.7138080719997,None,1875.7138080719997,None,1875.7138080719997,None,None,None,None,None,1876.2986811849987,None,1876.2986811849987,None,right,1876.2986811849987,None,None,None,1876.5827580820005,1878.2872377130006,0.40300203199876705,0.24212718800117727,,,,,,,,,,,,,109,001,18,1,2019_Dec_06_1209,Test,3.2.4,59.84121695665333,
Pictures/IA75_G45.bmp,Pictures/IA75_G45.bmp,Pictures/IA75.bmp,"

"Don't gamble for this one."",0,safe,,,,,4,0,4,0,0,10,10,17,,,,,,,,,,,,,,,,,,,,,,,,,,,,,,,1878.3039585410006,None,1880.3259571950002,1881.8466260819987,1881.8299095280017,None,1883.400725399999,None,1,1885.3558653600012,None,1885.3558653600012,None,1885.3558653600012,None,1885.990881460999,None,1885.990881460999,1886.9935176750005,1888.0964310560012,None,1888.0964310560012,None,left,1888.0964310560012,None,1888.4139287969992,1890.084996395999,None,None,0.5289495480028563,0.2763762249996944,,,,,,,,,,,,,109,001,18,1,2019_Dec_06_1209,Test,3.2.4,59.84121695665333,
Pictures/IA25_L15.bmp,Pictures/IA25_L15.bmp,Pictures/IA25.bmp,"

"There's not much on the line here, gamble!"",1,risk,,,,,4,0,4,0,0,11,11,5,,,,,,,,,,,,,,,,,,,,,,,,,,,,,,,1890.101702,None,1892.1236925410012,1893.6443681279998,1893.627667017001,None,1895.1817591660001,None,1,1897.1536152890003,None,1897.1536152890003,None,1897.1536152890003,None,1897.6549446200006,None,1897.6549446200006,1898.6575811090006,1899.7604927600005,None,1899.7604927600005,None,right,1899.7604927600005,None,None,None,1901.7156413760022,None,0.35519942099926993,1.9163094340001408,,,,,,,,,,,,,109,001,18,1,2019_Dec_06_1209,Test,3.2.4,59.84121695665333,
Pictures/IA20_10_G95p.bmp,Pictures/IA20_10_G95p.bmp,Pictures/IA20.bmp,"

"Take a leap, I think you should gamble."",1,risk,,,,,4,0,4,0,0,12,12,4,,,,,,,,,,,,,,,,,,,,,,,,,,,,,,,1901.7657716380018,None,1903.8044762450008,1905.3251513930009,1905.3084371490004,None,1906.7956791540018,None,2,1908.817693167999,None,1908.817693167999,None,1908.817693167999,None,None,None,None,None,1909.9874269499996,None,1909.9874269499996,None,left,1909.9874269499996,None,1910.6892815030005,1911.9927047490019,None,None,0.9871221329995024,0.657381479999458,,,,,,,,,,,,,109,001,18,1,2019_Dec_06_1209,Test,3.2.4,59.84121695665333,
Pictures/IA50_G10.bmp,Pictures/IA50_G10.bmp,Pictures/IA50.bmp,"

"Go with the safe option here!"",0,safe,,,,,4,0,4,0,0,13,13,14,,,,,,,,,,,,,,,,,,,,,,,,,,,,,,,1912.009430328002,None,1914.0314215790022,1915.5520956680011,1915.5353764030006,None,1917.0894783920012,None,2,1919.0613447569995,None,1919.0613447569995,None,1919.0613447569995,None,None,None,None,None,1920.4650285259995,None,1920.4650285259995,None,left,1920.4650285259995,None,1920.7491080600012,1922.4536097570017,None,None,1.2234713409998221,0.24377107200052706,,,,,,,,,,,,,109,001,18,1,2019_Dec_06_1209,Test,3.2.4,59.84121695665333,
Pictures/IA20_10_L95p.bmp,Pictures/IA20_10_L95p.bmp,Pictures/IA20.bmp,"

"Don't be tempted to gamble."",0,safe,,,,,4,0,4,0,0,14,14,8,,,,,,,,,,,,,,,,,,,,,,,,,,,,,,,1922.4703082160013,None,1924.492273467,1926.0129789320017,1925.99627933,None,1927.5503614760019,None,1,1929.522226396999,None,1929.522226396999,None,1929.522226396999,None,1929.8898703550003,None,1929.8898703550003,1930.8925073680002,1932.012130965999,None,1932.012130965999,None,right,1932.012130965999,None,None,None,1933.1484416400017,None,0.25858981700002914,1.088677796000411,,,,,,,,,,,,,109,001,18,1,2019_Dec_06_1209,Test,3.2.4,59.84121695665333,
Pictures/IA50_L40.bmp,Pictures/IA50_L40.bmp,Pictures/IA50.bmp,"

"That gamble doesn't sound too good, play it safe."",0,safe,,,,,4,0,4,0,0,15,15,15,,,,,,,,,,,,,,,,,,,,,,,,,,,,,,,1934.0341192410015,None,1936.0561163250022,1937.5767875909987,1937.5600704850003,None,1939.0807551090002,None,1,1941.0860359420003,None,1941.0860359420003,None,1941.0860359420003,None,1942.2390625760017,None,1942.2390625760017,1943.241698965001,1944.344616033999,None,1944.344616033999,None,left,1944.344616033999,None,1944.9294798260016,1946.3331787019997,None,None,0.9987699199991766,0.5481804380033282,,,,,,,,,,,,,109,001,18,1,2019_Dec_06_1209,Test,3.2.4,59.84121695665333,
Pictures/IA25_G15.bmp,Pictures/IA25_G15.bmp,Pictures/IA25.bmp,"

"I think you should take a gamble."",1,risk,,,,,4,0,4,0,0,16,16,16,,,,,,,,,,,,,,,,,,,,,,,,,,,,,,,1946.3498987530002,None,1948.371892649,1949.8758456840005,1949.8591493989989,None,1951.3798207319996,None,1,1953.4018066200006,None,1953.4018066200006,None,1953.4018066200006,None,1954.0201100920021,None,1954.0201100920021,1955.0227478550005,1956.1256599410008,None,1956.1256599410008,None,right,1956.1256599410008,None,None,None,1956.3930161450007,1958.130927530001,0.49900503999742796,0.2311433360009687,,,,,,,,,,,,,109,001,18,1,2019_Dec_06_1209,Test,3.2.4,59.84121695665333,
Pictures/IA100_G40.bmp,Pictures/IA100_G40.bmp,Pictures/IA100.bmp,"

"Try your luck and gamble!"",1,risk,,,,,4,0,4,0,0,17,17,10,,,,,,,,,,,,,,,,,,,,,,,,,,,,,,,1958.1476498869997,None,1960.1696433319994,1961.6903166560005,1961.6735964050022,None,1963.1942997190017,None,1,1965.199566837,None,1965.199566837,None,1965.199566837,None,1967.2549804660011,None,1967.2549804660011,1968.257616158,1969.377237495999,None,1969.377237495999,None,left,1969.377237495999,None,1970.3631651799988,None,None,None,1.9492377700007637,0.9395698469998024,,,,,,,,,,,,,109,001,18,1,2019_Dec_06_1209,Test,3.2.4,59.84121695665333,
Pictures/IA50_L10.bmp,Pictures/IA50_L10.bmp,Pictures/IA50.bmp,"

"Play it safe, don’t gamble!"",0,safe,,,,,4,0,4,0,0,18,18,11,,,,,,,,,,,,,,,,,,,,,,,,,,,,,,,1971.3825057329996,None,1973.4045014490002,1974.925177432,1974.9084776259988,None,1976.4625597189988,None,1,1978.4344279300021,None,1978.4344279300021,None,1978.4344279300021,None,1979.6876871339991,None,1979.6876871339991,1980.6903607060012,1981.7932716870018,None,1981.7932716870018,None,right,1981.7932716870018,None,None,None,1983.0799932840018,None,1.1463923480005178,1.2435327080020215,,,,,,,,,,,,,109,001,18,1,2019_Dec_06_1209,Test,3.2.4,59.84121695665333,
Pictures/IA75_L60.bmp,Pictures/IA75_L60.bmp,Pictures/IA75.bmp,"

"Why not take the gamble?"",1,risk,,,,,4,0,4,0,0,19,19,0,,,,,,,,,,,,,,,,,,,,,,,,,,,,,,,1983.7985522390009,None,1985.820546594001,1987.341218169,1987.3245221610014,None,1988.8786030920019,None,1,1990.8504670129987,None,1990.8504670129987,None,1990.8504670129987,None,1991.919957143,None,1991.919957143,1992.9225987190002,1994.025509768002,None,1994.025509768002,None,left,1994.025509768002,None,1994.326292542999,1996.0307767890008,None,None,0.9623454770007811,0.2512995420001971,,,,,,,,,,,,,109,001,18,1,2019_Dec_06_1209,Test,3.2.4,59.84121695665333,
,,,,,,,,,,4,0,4,0,,,,,,,,,,,,,,,,,,,,,,,,,,,,,,,,,,,,,,,,,,,,,,,,,,,,,,,,,,,,,,,,,,,,,,,,,1996.1979083000006,None,return,2.7108901620013057,1996.1979083000006,None,109,001,18,1,2019_Dec_06_1209,Test,3.2.4,59.84121695665333,
Pictures/IA100_L60.bmp,Pictures/IA100_L60.bmp,Pictures/IA100.bmp,"

"You'd have a lot to lose, don't gamble."",0,safe,,,,,5,0,5,0,0,0,0,11,,,,,,,,,,,,,1999.088848219002,None,1999.088848219002,None,1999.088848219002,None,left,1.2439595910000207,1999.088848219002,None,1999.088848219002,None,1999.088848219002,None,return,2.1238262040023983,1999.088848219002,None,2001.2611914570007,None,2003.2832208440013,2004.8038908769995,2004.7871971120003,None,2006.307865062001,None,1,2008.2964322970001,None,2008.2964322970001,None,2008.2964322970001,None,2009.0651335910006,None,2009.0651335910006,2010.067770313999,2011.1706806049988,None,2011.1706806049988,None,left,2011.1706806049988,None,2011.688708304002,2013.159249968001,None,None,0.6283888099969772,0.48212290599985863,,,,,,,,,,,,,109,001,18,1,2019_Dec_06_1209,Test,3.2.4,59.84121695665333,
Pictures/IA100_G60.bmp,Pictures/IA100_G60.bmp,Pictures/IA100.bmp,"

"Be cautious, don't gamble for this one."",0,safe,,,,,5,0,5,0,0,1,1,9,,,,,,,,,,,,,,,,,,,,,,,,,,,,,,,2013.1759650130007,None,2015.1979487520002,2016.7186156690004,2016.7019252409991,None,2018.256001545,None,1,2020.2278669709995,None,2020.2278669709995,None,2020.2278669709995,None,2020.6790654249999,None,2020.6790654249999,2021.6817012130014,2022.7846117930021,None,2022.7846117930021,None,left,2022.7846117930021,None,2023.1021122860002,2024.7898813190004,None,None,0.32094988700191607,0.27619282199884765,,,,,,,,,,,,,109,001,18,1,2019_Dec_06_1209,Test,3.2.4,59.84121695665333,
Pictures/IA25_L5.bmp,Pictures/IA25_L5.bmp,Pictures/IA25.bmp,"

"It would be smarter to choose the safe option."",0,safe,,,,,5,0,5,0,0,2,2,16,,,,,,,,,,,,,,,,,,,,,,,,,,,,,,,2024.8066041759994,None,2026.8285975790022,2028.3492692309992,2028.3325530479997,None,2029.853233001002,None,1,2031.858521528,None,2031.858521528,None,2031.858521528,None,2032.6271997100012,None,2032.6271997100012,2033.6298373810023,2034.7327481370012,None,2034.7327481370012,None,left,2034.7327481370012,None,2036.270138857999,None,None,None,0.6342889500010642,1.5040401959995506,,,,,,,,,,,,,109,001,18,1,2019_Dec_06_1209,Test,3.2.4,59.84121695665333,
Pictures/IA25_L15.bmp,Pictures/IA25_L15.bmp,Pictures/IA25.bmp,"

"There's not much on the line here, gamble!"",1,risk,,,,,5,0,5,0,0,3,3,4,,,,,,,,,,,,,,,,,,,,,,,,,,,,,,,2036.754736720999,None,2038.7767307329996,2040.297404142002,2040.2807087309993,None,2041.7846609020016,None,1,2043.8066658630014,None,2043.8066658630014,None,2043.8066658630014,None,2044.658983477002,None,2044.658983477002,2045.661557481999,2046.7811797850009,None,2046.7811797850009,None,left,2046.7811797850009,None,2048.3018586750004,None,None,None,0.7181710919976467,1.4796463569982734,,,,,,,,,,,,,109,001,18,1,2019_Dec_06_1209,Test,3.2.4,59.84121695665333,
Pictures/IA75_L45.bmp,Pictures/IA75_L45.bmp,Pictures/IA75.bmp,"

"Don't gamble for this one, play it safe."",0,safe,,,,,5,0,5,0,0,4,4,14,,,,,,,,,,,,,,,,,,,,,,,,,,,,,,,2048.7864504810022,None,2050.808472337001,2052.3291137800006,2052.3123963100006,None,2053.8665123089995,None,2,2055.838366308999,None,2055.838366308999,None,2055.838366308999,None,None,None,None,None,2056.774157202999,None,2056.774157202999,None,left,2056.774157202999,None,2057.074951118,2058.7794306899996,None,None,0.7584484350009006,0.2546551779996662,,,,,,,,,,,,,109,001,18,1,2019_Dec_06_1209,Test,3.2.4,59.84121695665333,
Pictures/IA100_G40.bmp,Pictures/IA100_G40.bmp,Pictures/IA100.bmp,"

"Try your luck and gamble!"",1,risk,,,,,5,0,5,0,0,5,5,3,,,,,,,,,,,,,,,,,,,,,,,,,,,,,,,2058.7961530899993,None,2060.818156870999,2062.322097804001,2062.305406992,None,2063.8260738880017,None,1,2065.8480634410007,None,2065.8480634410007,None,2065.8480634410007,None,2067.1013645679996,None,2067.1013645679996,2068.1039963660005,2069.2069140429994,None,2069.2069140429994,None,left,2069.2069140429994,None,2069.8753420230023,2071.2122009119994,None,None,1.1487485910001851,0.621890684000391,,,,,,,,,,,,,109,001,18,1,2019_Dec_06_1209,Test,3.2.4,59.84121695665333,
Pictures/IA25_L20.bmp,Pictures/IA25_L20.bmp,Pictures/IA25.bmp,"

"Don't be tempted to gamble."",0,safe,,,,,5,0,5,0,0,6,6,15,,,,,,,,,,,,,,,,,,,,,,,,,,,,,,,2071.228903233001,None,2073.2508965390007,2074.7715643090014,2074.754873031001,None,2076.258821678999,None,2,2078.28084381,None,2078.28084381,None,2078.28084381,None,None,None,None,None,2078.96595401,None,2078.96595401,None,left,2078.96595401,None,2079.584246487,2080.954532994001,None,None,0.49197356600052444,0.5748637619981309,,,,,,,,,,,,,109,001,18,1,2019_Dec_06_1209,Test,3.2.4,59.84121695665333,
Pictures/IA80_40_L95p.bmp,Pictures/IA80_40_L95p.bmp,Pictures/IA80.bmp,"

"Let's stay with the certain option."",0,safe,,,,,5,0,5,0,0,7,7,13,,,,,,,,,,,,,,,,,,,,,,,,,,,,,,,2080.971237509999,None,2083.009939849999,2084.530608311001,2084.5139145950016,None,2086.017877459002,None,1,2088.023165822,None,2088.023165822,None,2088.023165822,None,2088.4074943839987,None,2088.4074943839987,2089.4101309630023,2090.513043725001,None,2090.513043725001,None,right,2090.513043725001,None,None,None,2090.947527261,2092.5183210210016,0.26164612600041437,0.3877606129972264,,,,,,,,,,,,,109,001,18,1,2019_Dec_06_1209,Test,3.2.4,59.84121695665333,
Pictures/IA75_L30.bmp,Pictures/IA75_L30.bmp,Pictures/IA75.bmp,"

"Hold back, stay with the safe choice."",0,safe,,,,,5,0,5,0,0,8,8,2,,,,,,,,,,,,,,,,,,,,,,,,,,,,,,,2092.535046216999,None,2094.5570420629992,2096.0777103319997,2096.0609956490007,None,2097.5816754570005,None,1,2099.5869600650003,None,2099.5869600650003,None,2099.5869600650003,None,2100.305519272999,None,2100.305519272999,2101.308155687999,2102.411067305002,None,2102.411067305002,None,left,2102.411067305002,None,2102.8956747800003,2104.3996239100015,None,None,0.5778624449994822,0.4417406739994476,,,,,,,,,,,,,109,001,18,1,2019_Dec_06_1209,Test,3.2.4,59.84121695665333,
Pictures/IA110_55_L95p.bmp,Pictures/IA110_55_L95p.bmp,Pictures/IA110.bmp,"

"Trust me, gamble!"",1,risk,,,,,5,0,5,0,0,9,9,17,,,,,,,,,,,,,,,,,,,,,,,,,,,,,,,2104.416346733,None,2106.438340007,2107.959013781001,2107.942295187,None,2109.4796878279994,None,1,2111.46825247,None,2111.46825247,None,2111.46825247,None,2111.785764447999,None,2111.785764447999,2112.788402135,2113.8913147759995,None,2113.8913147759995,None,right,2113.8913147759995,None,None,None,2114.3759195109997,2115.896594856,0.2245727169974998,0.44149467200259096,,,,,,,,,,,,,109,001,18,1,2019_Dec_06_1209,Test,3.2.4,59.84121695665333,
Pictures/IA50_G10.bmp,Pictures/IA50_G10.bmp,Pictures/IA50.bmp,"

"Go with the safe option here!"",0,safe,,,,,5,0,5,0,0,10,10,7,,,,,,,,,,,,,,,,,,,,,,,,,,,,,,,2115.9132927579994,None,2117.9352855899997,2119.4559608960008,2119.439263608001,None,2120.943213765,None,1,2122.9652213180016,None,2122.9652213180016,None,2122.9652213180016,None,2124.619570138999,None,2124.619570138999,2125.622204112002,2126.7251167700015,None,2126.7251167700015,None,left,2126.7251167700015,None,2127.577356611,2128.713684088001,None,None,1.527592367001489,0.8156864049997239,,,,,,,,,,,,,109,001,18,1,2019_Dec_06_1209,Test,3.2.4,59.84121695665333,
Pictures/IA75_G15.bmp,Pictures/IA75_G15.bmp,Pictures/IA75.bmp,"

"Take a chance!"",1,risk,,,,,5,0,5,0,0,11,11,19,,,,,,,,,,,,,,,,,,,,,,,,,,,,,,,2128.7304070089995,None,2130.7524010439993,2132.2730719280007,2132.256360211999,None,2133.777033893002,None,1,2135.782325217002,None,2135.782325217002,None,2135.782325217002,None,2136.1666747000017,None,2136.1666747000017,2137.169293760002,2138.272206971,None,2138.272206971,None,left,2138.272206971,None,2138.6565480550016,2140.260774696999,None,None,0.2944860309980868,0.34060227800000575,,,,,,,,,,,,,109,001,18,1,2019_Dec_06_1209,Test,3.2.4,59.84121695665333,
Pictures/IA25_G10.bmp,Pictures/IA25_G10.bmp,Pictures/IA25.bmp,"

"What's life without a little risk?"",1,risk,,,,,5,0,5,0,0,12,12,18,,,,,,,,,,,,,,,,,,,,,,,,,,,,,,,2140.277499742002,None,2142.299491275,2143.8201632029995,2143.8034447280006,None,2145.457812124001,None,1,2147.3294121559993,None,2147.3294121559993,None,2147.3294121559993,None,2148.8333763500013,None,2148.8333763500013,2149.8360107180015,2150.938927610001,None,2150.938927610001,None,left,2150.938927610001,None,2151.523792748001,2152.9274881160018,None,None,1.371411578002153,0.5378798940000706,,,,,,,,,,,,,109,001,18,1,2019_Dec_06_1209,Test,3.2.4,59.84121695665333,
Pictures/IA25_L10.bmp,Pictures/IA25_L10.bmp,Pictures/IA25.bmp,"

"Dont be afraid to take the risk!"",1,risk,,,,,5,0,5,0,0,13,13,10,,,,,,,,,,,,,,,,,,,,,,,,,,,,,,,2152.9441886890017,None,2154.966185841,2156.4868627760006,2156.4701609700023,None,2158.0075324989994,None,1,2159.996118686002,None,2159.996118686002,None,2159.996118686002,None,2160.3303213910003,None,2160.3303213910003,2161.3329582629995,2162.469291559002,None,2162.469291559002,None,right,2162.469291559002,None,None,None,2162.753368185,2164.4578667819987,0.22469588999956613,0.2395222980012477,,,,,,,,,,,,,109,001,18,1,2019_Dec_06_1209,Test,3.2.4,59.84121695665333,
Pictures/IA50_L20.bmp,Pictures/IA50_L20.bmp,Pictures/IA50.bmp,"

"Certainty is boring, take a risk!"",1,risk,,,,,5,0,5,0,0,14,14,5,,,,,,,,,,,,,,,,,,,,,,,,,,,,,,,2164.4745678500003,None,2166.496563839999,2168.0172383870013,2168.000541728001,None,2169.5546269469996,None,1,2171.526485688002,None,2171.526485688002,None,2171.526485688002,None,2172.278472004,None,2172.278472004,2173.281102629,2174.3840165010006,None,2174.3840165010006,None,right,2174.3840165010006,None,None,None,2176.355883434,None,0.6463277519978874,1.9247913569997763,,,,,,,,,,,,,109,001,18,1,2019_Dec_06_1209,Test,3.2.4,59.84121695665333,
Pictures/IA50_G30.bmp,Pictures/IA50_G30.bmp,Pictures/IA50.bmp,"

"I think you should gamble."",1,risk,,,,,5,0,5,0,0,15,15,0,,,,,,,,,,,,,,,,,,,,,,,,,,,,,,,2176.406015196,None,2178.4280129940016,2179.9486820580023,2179.931965322001,None,2181.4693586110006,None,1,2183.457924057002,None,2183.457924057002,None,2183.457924057002,None,2183.942530190001,None,2183.942530190001,2184.9451685390013,2186.048080372999,None,2186.048080372999,None,left,2186.048080372999,None,2186.4825662850017,2188.053357523,None,None,0.370904065999639,0.3887274590015295,,,,,,,,,,,,,109,001,18,1,2019_Dec_06_1209,Test,3.2.4,59.84121695665333,
Pictures/IA100_L80.bmp,Pictures/IA100_L80.bmp,Pictures/IA100.bmp,"

"Go all in!"",1,risk,,,,,5,0,5,0,0,16,16,1,,,,,,,,,,,,,,,,,,,,,,,,,,,,,,,2188.070081474001,None,2190.0920792450015,2191.6127476049987,2191.596032507001,None,2193.1668429929996,None,1,2195.1219875429997,None,2195.1219875429997,None,2195.1219875429997,None,2196.0076651630006,None,2196.0076651630006,2197.0102999230003,2198.1132117609995,None,2198.1132117609995,None,left,2198.1132117609995,None,2198.881889403001,2200.1184900629996,None,None,0.7948227259985288,0.7235919430022477,,,,,,,,,,,,,109,001,18,1,2019_Dec_06_1209,Test,3.2.4,59.84121695665333,
Pictures/IA40_20_L95p.bmp,Pictures/IA40_20_L95p.bmp,Pictures/IA40.bmp,"

"Trust me, gamble!"",1,risk,,,,,5,0,5,0,0,17,17,8,,,,,,,,,,,,,,,,,,,,,,,,,,,,,,,2200.135190426001,None,2202.1738979580005,2203.6778681799988,2203.661156143,None,2205.181844400002,None,1,2207.1871243259993,None,2207.1871243259993,None,2207.1871243259993,None,2207.521332247001,None,2207.521332247001,2208.5239668079994,2209.626880076001,None,2209.626880076001,None,right,2209.626880076001,None,None,None,2209.9276633209993,2211.632158610999,0.24168747099975008,0.25792427199849044,,,,,,,,,,,,,109,001,18,1,2019_Dec_06_1209,Test,3.2.4,59.84121695665333,
Pictures/IA75_L15.bmp,Pictures/IA75_L15.bmp,Pictures/IA75.bmp,"

"Trust me, gamble!"",1,risk,,,,,5,0,5,0,0,18,18,6,,,,,,,,,,,,,,,,,,,,,,,,,,,,,,,2211.648859855999,None,2213.670853415999,2215.1915392890005,2215.1748346390013,None,2216.695495554999,None,1,2218.7007852860006,None,2218.7007852860006,None,2218.7007852860006,None,2219.2856508330005,None,2219.2856508330005,2220.2882863080013,2221.391197535002,None,2221.391197535002,None,right,2221.391197535002,None,None,None,2221.742119630002,2223.3797758460023,0.5120203880032932,0.30160328300189576,,,,,,,,,,,,,109,001,18,1,2019_Dec_06_1209,Test,3.2.4,59.84121695665333,
Pictures/IA25_G5.bmp,Pictures/IA25_G5.bmp,Pictures/IA25.bmp,"

"Let's stay with the certain option."",0,safe,,,,,5,0,5,0,0,19,19,12,,,,,,,,,,,,,,,,,,,,,,,,,,,,,,,2223.396477440001,None,2225.418471219,2226.939143317002,2226.9224505349994,None,2228.4598235039994,None,1,2230.4484065210017,None,2230.4484065210017,None,2230.4484065210017,None,2231.049957520001,None,2231.049957520001,2232.0526261410014,2233.155538805,None,2233.155538805,None,left,2233.155538805,None,2233.556579379001,2235.160815097999,None,None,0.46840357499968377,0.36126299100214965,,,,,,,,,,,,,109,001,18,1,2019_Dec_06_1209,Test,3.2.4,59.84121695665333,
,,,,,,,,,,5,0,5,0,,,,,,,,,,,,,,,,,,,,,,,,,,,,,,,,,,,,,,,,,,,,,,,,,,,,,,,,,,,,,,,,,,,,,,,,,2235.327924287001,None,return,4.268873026998335,2235.327924287001,None,109,001,18,1,2019_Dec_06_1209,Test,3.2.4,59.84121695665333,
Pictures/IA75_G15.bmp,Pictures/IA75_G15.bmp,Pictures/IA75.bmp,"

"Take a chance!"",1,risk,,,,,6,0,6,0,0,0,0,14,,,,,,,,,,,,,2239.7562790730008,None,2239.7562790730008,None,2239.7562790730008,None,left,1.6405227020004531,2239.7562790730008,None,2239.7562790730008,None,2239.7562790730008,None,return,2.8243139420010266,2239.7562790730008,None,2242.647199941999,None,2244.6524923729994,2246.173164898999,2246.1564475640007,None,2247.6604062120023,None,1,2249.6656933740014,None,2249.6656933740014,None,2249.6656933740014,None,2251.904925196999,None,2251.904925196999,2252.907560904001,2254.0104746979996,None,2254.0104746979996,None,None,2254.0104746979996,None,None,None,None,None,2.155125015997328,,,,,,,,,,,,,,109,001,18,1,2019_Dec_06_1209,Test,3.2.4,59.84121695665333,
Pictures/IA100_G80.bmp,Pictures/IA100_G80.bmp,Pictures/IA100.bmp,"

"Why not gamble?"",1,risk,,,,,6,0,6,0,0,1,1,18,,,,,,,,,,,,,,,,,,,,,,,,,,,,,,,2256.0157510009994,None,2258.0377477,2259.5584250360007,2259.541725105002,None,2261.095805502002,None,1,2263.0676750890016,None,2263.0676750890016,None,2263.0676750890016,None,2263.452024415001,None,2263.452024415001,2264.4546622080015,2265.557580479999,None,2265.557580479999,None,right,2265.557580479999,None,None,None,2267.211928782999,None,0.29714009300005273,1.607224159000907,,,,,,,,,,,,,109,001,18,1,2019_Dec_06_1209,Test,3.2.4,59.84121695665333,
Pictures/IA25_L5.bmp,Pictures/IA25_L5.bmp,Pictures/IA25.bmp,"

"It would be smarter to choose the safe option."",0,safe,,,,,6,0,6,0,0,2,2,3,,,,,,,,,,,,,,,,,,,,,,,,,,,,,,,2267.562852522002,None,2269.584844637,2271.1055096240016,2271.0888196470005,None,2272.6094733930004,None,1,2274.6147616300004,None,2274.6147616300004,None,2274.6147616300004,None,2275.4335825160015,None,2275.4335825160015,2276.436222201999,2277.555842914,None,2277.555842914,None,left,2277.555842914,None,2279.193514456001,None,None,None,0.6780623449994891,1.6009644559999288,,,,,,,,,,,,,109,001,18,1,2019_Dec_06_1209,Test,3.2.4,59.84121695665333,
Pictures/IA25_G5.bmp,Pictures/IA25_G5.bmp,Pictures/IA25.bmp,"

"Let's stay with the certain option."",0,safe,,,,,6,0,6,0,0,3,3,4,,,,,,,,,,,,,,,,,,,,,,,,,,,,,,,2279.577842818002,None,2281.599837198999,2283.120515756,2283.1037920570016,None,2284.641184797001,None,1,2286.629756063001,None,2286.629756063001,None,2286.629756063001,None,2288.718594872,None,2288.718594872,2289.7212336400007,2290.840856029001,None,2290.840856029001,None,left,2290.840856029001,None,2291.1583557000013,2292.829423831001,None,None,1.9670576120006444,0.26794451500245486,,,,,,,,,,,,,109,001,18,1,2019_Dec_06_1209,Test,3.2.4,59.84121695665333,
Pictures/IA75_G45.bmp,Pictures/IA75_G45.bmp,Pictures/IA75.bmp,"

"Don't gamble for this one."",0,safe,,,,,6,0,6,0,0,4,4,13,,,,,,,,,,,,,,,,,,,,,,,,,,,,,,,2292.846122130999,None,2294.8681176659993,2296.372092243,2296.355379290999,None,2297.909467456,None,1,2299.898052089,None,2299.898052089,None,2299.898052089,None,2300.3659378209995,None,2300.3659378209995,2301.3685760139997,2302.488198035,None,2302.488198035,None,left,2302.488198035,None,2302.8056987279997,2304.476766306001,None,None,0.3547750370016729,0.26861908700084314,,,,,,,,,,,,,109,001,18,1,2019_Dec_06_1209,Test,3.2.4,59.84121695665333,
Pictures/IA50_G20.bmp,Pictures/IA50_G20.bmp,Pictures/IA50.bmp,"

"Let's venture and take a risk!"",1,risk,,,,,6,0,6,0,0,5,5,5,,,,,,,,,,,,,,,,,,,,,,,,,,,,,,,2304.493487210999,None,2306.515484374002,2308.0194334570006,2308.002738667001,None,2309.5401198340005,None,1,2311.5454111380022,None,2311.5454111380022,None,2311.5454111380022,None,2312.564760108002,None,2312.564760108002,2313.567394433001,2314.670306586002,None,2314.670306586002,None,left,2314.670306586002,None,2315.873461220999,None,None,None,0.907404380999651,1.166491653999401,,,,,,,,,,,,,109,001,18,1,2019_Dec_06_1209,Test,3.2.4,59.84121695665333,
Pictures/IA100_L60.bmp,Pictures/IA100_L60.bmp,Pictures/IA100.bmp,"

"You'd have a lot to lose, don't gamble."",0,safe,,,,,6,0,6,0,0,6,6,8,,,,,,,,,,,,,,,,,,,,,,,,,,,,,,,2316.692298402999,None,2318.714301505999,2320.234964075,2320.218253971001,None,2321.75563743,None,2,2323.7442041659997,None,2323.7442041659997,None,2323.7442041659997,None,None,None,None,None,2324.913960326001,None,2324.913960326001,None,left,2324.913960326001,None,2325.2314670119995,2326.902537899001,None,None,0.9646009509997384,0.27485772799991537,,,,,,,,,,,,,109,001,18,1,2019_Dec_06_1209,Test,3.2.4,59.84121695665333,
Pictures/IA25_G10.bmp,Pictures/IA25_G10.bmp,Pictures/IA25.bmp,"

"What's life without a little risk?"",1,risk,,,,,6,0,6,0,0,7,7,15,,,,,,,,,,,,,,,,,,,,,,,,,,,,,,,2326.919230083,None,2328.9412266010004,2330.4618972710014,2330.445203553001,None,2331.965863829002,None,1,2333.9711546300023,None,2333.9711546300023,None,2333.9711546300023,None,2335.625515707001,None,2335.625515707001,2336.628156772,2337.731066217002,None,2337.731066217002,None,left,2337.731066217002,None,2338.466321365002,2339.736332970999,None,None,1.529657678998774,0.6977394349996757,,,,,,,,,,,,,109,001,18,1,2019_Dec_06_1209,Test,3.2.4,59.84121695665333,
Pictures/IA80_40_G95p.bmp,Pictures/IA80_40_G95p.bmp,Pictures/IA80.bmp,"

"Think of the payoff, gamble!"",1,risk,,,,,6,0,6,0,0,8,8,10,,,,,,,,,,,,,,,,,,,,,,,,,,,,,,,2339.753055383,None,2341.775050745,2343.295720934002,2343.279005876,None,2344.8331085749996,None,2,2346.8049787599994,None,2346.8049787599994,None,2346.8049787599994,None,None,None,None,None,2347.4232562700017,None,2347.4232562700017,None,left,2347.4232562700017,None,2347.774179422002,2349.411834475999,None,None,0.4558411870020791,0.30955251500199665,,,,,,,,,,,,,109,001,18,1,2019_Dec_06_1209,Test,3.2.4,59.84121695665333,
Pictures/IA100_L20.bmp,Pictures/IA100_L20.bmp,Pictures/IA100.bmp,"

"Try to win as much money as you can, gamble!"",1,risk,,,,,6,0,6,0,0,9,9,19,,,,,,,,,,,,,,,,,,,,,,,,,,,,,,,2349.4285363279996,None,2351.4505311600005,2352.9712050060007,2352.9545127290003,None,2354.4918771209996,None,1,2356.4804655020016,None,2356.4804655020016,None,2356.4804655020016,None,2357.800608021,None,2357.800608021,2358.803245384999,2359.906157611,None,2359.906157611,None,right,2359.906157611,None,None,None,2361.0758967340007,None,1.172351264001918,1.1226481829980912,,,,,,,,,,,,,109,001,18,1,2019_Dec_06_1209,Test,3.2.4,59.84121695665333,
Pictures/IA100_L80.bmp,Pictures/IA100_L80.bmp,Pictures/IA100.bmp,"

"Go all in!"",1,risk,,,,,6,0,6,0,0,10,10,17,,,,,,,,,,,,,,,,,,,,,,,,,,,,,,,2361.928136118,None,2363.9501310220003,2365.4708046490014,2365.4541090150014,None,2366.958060330002,None,1,2368.980064386,None,2368.980064386,None,2368.980064386,None,2369.7654677480023,None,2369.7654677480023,2370.768102749,2371.8710163370015,None,2371.8710163370015,None,left,2371.8710163370015,None,2372.405742952,2373.8762815359987,None,None,0.7047493089994532,0.48580093500277144,,,,,,,,,,,,,109,001,18,1,2019_Dec_06_1209,Test,3.2.4,59.84121695665333,
Pictures/IA110_55_G95p.bmp,Pictures/IA110_55_G95p.bmp,Pictures/IA110.bmp,"

"Take a chance!"",1,risk,,,,,6,0,6,0,0,11,11,9,,,,,,,,,,,,,,,,,,,,,,,,,,,,,,,2373.893004589001,None,2375.9150017050015,2377.4356712750014,2377.418957394002,None,2378.939607970002,None,1,2380.944922619001,None,2380.944922619001,None,2380.944922619001,None,2382.131375195,None,2382.131375195,2383.134012008002,2384.2369210550023,None,2384.2369210550023,None,left,2384.2369210550023,None,2385.557061923002,None,None,None,1.0918917290000536,1.279882577000535,,,,,,,,,,,,,109,001,18,1,2019_Dec_06_1209,Test,3.2.4,59.84121695665333,
Pictures/IA50_L20.bmp,Pictures/IA50_L20.bmp,Pictures/IA50.bmp,"

"Certainty is boring, take a risk!"",1,risk,,,,,6,0,6,0,0,12,12,1,,,,,,,,,,,,,,,,,,,,,,,,,,,,,,,2386.2422077180017,None,2388.264203826002,2389.784875464,2389.768162165001,None,2391.2721328610023,None,1,2393.2941144530014,None,2393.2941144530014,None,2393.2941144530014,None,2393.8957083310015,None,2393.8957083310015,2394.898345974001,2396.0012609510013,None,2396.0012609510013,None,right,2396.0012609510013,None,None,None,2396.3187601300015,2397.989825921002,0.4866935560021375,0.26753610000014305,,,,,,,,,,,,,109,001,18,1,2019_Dec_06_1209,Test,3.2.4,59.84121695665333,
Pictures/IA75_L45.bmp,Pictures/IA75_L45.bmp,Pictures/IA75.bmp,"

"Don't gamble for this one, play it safe."",0,safe,,,,,6,0,6,0,0,13,13,2,,,,,,,,,,,,,,,,,,,,,,,,,,,,,,,2398.006527739002,None,2400.0285225549997,2401.549207013999,2401.5325005759987,None,2403.0531629510006,None,1,2405.058409977999,None,2405.058409977999,None,2405.058409977999,None,2406.361881173001,None,2406.361881173001,2407.3645145260016,2408.467429204,None,2408.467429204,None,left,2408.467429204,None,2409.0021761140015,2410.472715930002,None,None,1.1704134800020256,0.48938315600025817,,,,,,,,,,,,,109,001,18,1,2019_Dec_06_1209,Test,3.2.4,59.84121695665333,
Pictures/IA20_10_G95p.bmp,Pictures/IA20_10_G95p.bmp,Pictures/IA20.bmp,"

"Take a leap, I think you should gamble."",1,risk,,,,,6,0,6,0,0,14,14,16,,,,,,,,,,,,,,,,,,,,,,,,,,,,,,,2410.489418336001,None,2412.511411899999,2414.0320830870005,2414.015388177999,None,2415.536047395999,None,1,2417.5413352409996,None,2417.5413352409996,None,2417.5413352409996,None,2420.398861685,None,2420.398861685,2421.4015025420013,2422.5044130140013,None,2422.5044130140013,None,left,2422.5044130140013,None,2424.1921990170013,None,None,None,2.719482648997655,1.6443895660013368,,,,,,,,,,,,,109,001,18,1,2019_Dec_06_1209,Test,3.2.4,59.84121695665333,
Pictures/IA40_20_L95p.bmp,Pictures/IA40_20_L95p.bmp,Pictures/IA40.bmp,"

"Trust me, gamble!"",1,risk,,,,,6,0,6,0,0,15,15,6,,,,,,,,,,,,,,,,,,,,,,,,,,,,,,,2424.509690316001,None,2426.5316852700016,2428.052360062,2428.035663576,None,2429.5396115469994,None,1,2431.5616227220016,None,2431.5616227220016,None,2431.5616227220016,None,2432.3135877960012,None,2432.3135877960012,2433.3162246680004,2434.419137072,None,2434.419137072,None,right,2434.419137072,None,None,None,2435.0541504989997,2436.4244154000007,0.6592025799982366,0.5856627070024842,,,,,,,,,,,,,109,001,18,1,2019_Dec_06_1209,Test,3.2.4,59.84121695665333,
Pictures/IA25_G15.bmp,Pictures/IA25_G15.bmp,Pictures/IA25.bmp,"

"I think you should take a gamble."",1,risk,,,,,6,0,6,0,0,16,16,12,,,,,,,,,,,,,,,,,,,,,,,,,,,,,,,2436.4411371720016,None,2438.463130504999,2439.983804288,2439.9670917930016,None,2441.487770251002,None,1,2443.4930551809994,None,2443.4930551809994,None,2443.4930551809994,None,2444.997016961999,None,2444.997016961999,2445.999652933002,2447.1025656460006,None,2447.1025656460006,None,right,2447.1025656460006,None,None,None,2447.7876993579994,2449.091120969002,1.3757609970016347,0.6382419479996315,,,,,,,,,,,,,109,001,18,1,2019_Dec_06_1209,Test,3.2.4,59.84121695665333,
Pictures/IA100_L40.bmp,Pictures/IA100_L40.bmp,Pictures/IA100.bmp,"

"Think of the payoff, gamble!"",1,risk,,,,,6,0,6,0,0,17,17,11,,,,,,,,,,,,,,,,,,,,,,,,,,,,,,,2449.1078437809992,None,2451.1298401390013,2452.650513269,2452.6337947210013,None,2454.1711874499997,None,1,2456.1597553829997,None,2456.1597553829997,None,2456.1597553829997,None,2458.4658397860003,None,2458.4658397860003,2459.468478439001,2460.5713879780014,None,2460.5713879780014,None,left,2460.5713879780014,None,2461.490468952001,2462.559953224001,None,None,2.2050534179979877,0.8734206420012924,,,,,,,,,,,,,109,001,18,1,2019_Dec_06_1209,Test,3.2.4,59.84121695665333,
Pictures/IA25_L10.bmp,Pictures/IA25_L10.bmp,Pictures/IA25.bmp,"

"Dont be afraid to take the risk!"",1,risk,,,,,6,0,6,0,0,18,18,0,,,,,,,,,,,,,,,,,,,,,,,,,,,,,,,2462.5766538390017,None,2464.5986571920002,2466.1193207620017,2466.1026331079993,None,2467.623284325,None,1,2469.6285784790016,None,2469.6285784790016,None,2469.6285784790016,None,2470.347130918999,None,2470.347130918999,2471.349768338001,2472.4526822000007,None,2472.4526822000007,None,right,2472.4526822000007,None,None,None,2473.772827667999,None,0.6162269710002874,1.2721257630000764,,,,,,,,,,,,,109,001,18,1,2019_Dec_06_1209,Test,3.2.4,59.84121695665333,
Pictures/IA40_20_G95p.bmp,Pictures/IA40_20_G95p.bmp,Pictures/IA40.bmp,"

"Hold back, stay with the safe choice."",0,safe,,,,,6,0,6,0,0,19,19,7,,,,,,,,,,,,,,,,,,,,,,,,,,,,,,,2474.457969248,None,2476.4799664620004,2478.0006374799996,2477.9839181940006,None,2479.521313166999,None,1,2481.509877943001,None,2481.509877943001,None,2481.509877943001,None,2483.080698476002,None,2483.080698476002,2484.083328965,2485.202950947001,None,2485.202950947001,None,left,2485.202950947001,None,2485.4870331109996,2487.191519677999,None,None,1.4229360210010782,0.24185542900158907,,,,,,,,,,,,,109,001,18,1,2019_Dec_06_1209,Test,3.2.4,59.84121695665333,
,,,,,,,,,,6,0,6,0,,,,,,,,,,,,,,,,,,,,,,,,,,,,,,,,,,,,,,,,,,,,,,,,,,,,,,,,,,,,,,,,,,,,,,,,,2487.358633437001,None,return,2.150151535999612,2487.358633437001,None,109,001,18,1,2019_Dec_06_1209,Test,3.2.4,59.84121695665333,
Pictures/IA110_55_G95p.bmp,Pictures/IA110_55_G95p.bmp,Pictures/IA110.bmp,"

"Take a chance!"",1,risk,,,,,7,0,7,0,0,0,0,6,,,,,,,,,,,,,2489.664712804999,None,2489.664712804999,None,2489.664712804999,None,left,2.9560893870002474,2489.664712804999,None,2489.664712804999,None,2489.664712804999,None,return,4.019875153997418,2489.664712804999,None,2493.7421136939993,None,2495.747385384002,2497.2680599310006,2497.2513628660017,None,2498.738611039,None,1,2500.7605987749994,None,2500.7605987749994,None,2500.7605987749994,None,2501.562711270002,None,2501.562711270002,2502.5653519299995,2503.668261527,None,2503.668261527,None,left,2503.668261527,None,2504.871439556002,None,None,None,0.7082257630027016,1.1605446430003212,,,,,,,,,,,,,109,001,18,1,2019_Dec_06_1209,Test,3.2.4,59.84121695665333,
Pictures/IA75_G30.bmp,Pictures/IA75_G30.bmp,Pictures/IA75.bmp,"

"Be bold, gamble!"",1,risk,,,,,7,0,7,0,0,1,1,10,,,,,,,,,,,,,,,,,,,,,,,,,,,,,,,2505.673544671001,None,2507.6955371229997,2509.21621382,2509.199514759999,None,2510.7535931870007,None,1,2512.7254568509998,None,2512.7254568509998,None,2512.7254568509998,None,2513.4607292149994,None,2513.4607292149994,2514.463366471002,2515.566276636,None,2515.566276636,None,right,2515.566276636,None,None,None,2517.2540551790007,None,0.6393582719974802,1.6385292539998773,,,,,,,,,,,,,109,001,18,1,2019_Dec_06_1209,Test,3.2.4,59.84121695665333,
Pictures/IA100_L40.bmp,Pictures/IA100_L40.bmp,Pictures/IA100.bmp,"

"Think of the payoff, gamble!"",1,risk,,,,,7,0,7,0,0,2,2,12,,,,,,,,,,,,,,,,,,,,,,,,,,,,,,,2517.5715532159993,None,2519.5935532030016,2521.1142266960014,2521.0975271060015,None,2522.6014779510006,None,1,2524.6234857689997,None,2524.6234857689997,None,2524.6234857689997,None,2524.957650139,None,2524.957650139,2525.960327883,2527.0632369449995,None,2527.0632369449995,None,right,2527.0632369449995,None,None,None,2529.0685255089993,None,0.22933815600117669,1.9575771070012706,,,,,,,,,,,,,109,001,18,1,2019_Dec_06_1209,Test,3.2.4,59.84121695665333,
Pictures/IA25_L20.bmp,Pictures/IA25_L20.bmp,Pictures/IA25.bmp,"

"Don't be tempted to gamble."",0,safe,,,,,7,0,7,0,0,3,3,19,,,,,,,,,,,,,,,,,,,,,,,,,,,,,,,2529.0852270470023,None,2531.1072207479992,2532.6111830070004,2532.594492297001,None,2534.148580063,None,1,2536.1371435360015,None,2536.1371435360015,None,2536.1371435360015,None,2537.3236017929994,None,2537.3236017929994,2538.3262390029995,2539.4458634830007,None,2539.4458634830007,None,left,2539.4458634830007,None,2540.097575431002,2541.4344343560006,None,None,1.0836627389981004,0.6069554089990561,,,,,,,,,,,,,109,001,18,1,2019_Dec_06_1209,Test,3.2.4,59.84121695665333,
Pictures/IA40_20_L95p.bmp,Pictures/IA40_20_L95p.bmp,Pictures/IA40.bmp,"

"Trust me, gamble!"",1,risk,,,,,7,0,7,0,0,4,4,16,,,,,,,,,,,,,,,,,,,,,,,,,,,,,,,2541.4511525740018,None,2543.4731470000006,2544.993818281,2544.9771055870006,None,2546.514494449002,None,2,2548.503065031,None,2548.503065031,None,2548.503065031,None,None,None,None,None,2548.954257191999,None,2548.954257191999,None,right,2548.954257191999,None,None,None,2549.1380732569996,2550.9428268600022,0.2937458560008963,0.14654674299890758,,,,,,,,,,,,,109,001,18,1,2019_Dec_06_1209,Test,3.2.4,59.84121695665333,
Pictures/IA80_40_G95p.bmp,Pictures/IA80_40_G95p.bmp,Pictures/IA80.bmp,"

"Think of the payoff, gamble!"",1,risk,,,,,7,0,7,0,0,5,5,15,,,,,,,,,,,,,,,,,,,,,,,,,,,,,,,2550.959526972001,None,2552.9815227440013,2554.502197820002,2554.4855003740013,None,2556.0061273909996,None,1,2558.0114497920003,None,2558.0114497920003,None,2558.0114497920003,None,2558.6798824020007,None,2558.6798824020007,2559.682519337999,2560.8188534,None,2560.8188534,None,left,2560.8188534,None,2562.0387295010005,None,None,None,0.5533697309983836,1.1779413149997708,,,,,,,,,,,,,109,001,18,1,2019_Dec_06_1209,Test,3.2.4,59.84121695665333,
Pictures/IA50_G40.bmp,Pictures/IA50_G40.bmp,Pictures/IA50.bmp,"

"It would probably be best to play it safe."",0,safe,,,,,7,0,7,0,0,6,6,13,,,,,,,,,,,,,,,,,,,,,,,,,,,,,,,2562.8241354890015,None,2564.8461291679996,2566.366799806001,2566.350084460002,None,2567.8874743490014,None,1,2569.8760412090014,None,2569.8760412090014,None,2569.8760412090014,None,2570.176844894002,None,2570.176844894002,2571.179494611999,2572.2823913030006,None,2572.2823913030006,None,left,2572.2823913030006,None,2572.817118676001,2574.2876591249988,None,None,0.16076714299924788,0.49840434299767367,,,,,,,,,,,,,109,001,18,1,2019_Dec_06_1209,Test,3.2.4,59.84121695665333,
Pictures/IA75_L60.bmp,Pictures/IA75_L60.bmp,Pictures/IA75.bmp,"

