Choice,Choice2,Amount,AdviceVar1,GambleAdviceNum,GambleAdviceType,practice.thisRepN,practice.thisTrialN,practice.thisN,practice.thisIndex,trials_2.thisRepN,trials_2.thisTrialN,trials_2.thisN,trials_2.thisIndex,trials.thisRepN,trials.thisTrialN,trials.thisN,trials.thisIndex,text.started,text.stopped,key_resp_4.keys,key_resp_4.rt,key_resp_4.started,key_resp_4.stopped,instructions.started,instructions.stopped,space.keys,space.rt,space.started,space.stopped,chooseInst.started,chooseInst.stopped,Ad1.started,Ad1.stopped,Ad2.started,Ad2.stopped,key_resp_3.keys,key_resp_3.rt,key_resp_3.started,key_resp_3.stopped,Ad1pic.started,Ad1pic.stopped,Ad2pic.started,Ad2pic.stopped,enter.keys,enter.rt,enter.started,enter.stopped,iSi.started,iSi.stopped,receiveMoneyPicture.started,receiveMoneyPicture.stopped,ISI2.started,ISI2.stopped,ChoicePic.started,ChoicePic.stopped,response.keys,response.started,response.stopped,yesNo.started,yesNo.stopped,ask.started,ask.stopped,getAdv.started,getAdv.stopped,textForCode.started,textForCode.stopped,blank.started,blank.stopped,ChoicePic2.started,ChoicePic2.stopped,resp.keys,resp.started,resp.stopped,checkL1.started,checkL1.stopped,checkR1.started,checkR1.stopped,response.rt,resp.rt,EndPrac.started,EndPrac.stopped,key_resp.keys,key_resp.rt,key_resp.started,key_resp.stopped,endText.started,endText.stopped,key_resp_2.keys,key_resp_2.rt,key_resp_2.started,key_resp_2.stopped,participant,session,age,gender (0=male, 1 = female, 2 = other),date,expName,psychopyVersion,frameRate,
,,,,,,,,,,,,,,,,,,224.7787879309908,None,space,617.6363592889975,224.7787879309908,None,,,,,,,,,,,,,,,,,,,,,,,,,,,,,,,,,,,,,,,,,,,,,,,,,,,,,,,,,,,,,,,,,,,,,114,001,18,0,2020_Feb_05_1300,Test,3.2.4,59.83743676420218,
,,,,,,,,,,,,,,,,,,,,,,,,842.4400527179823,None,space,3.8471162960049696,842.4400527179823,None,,,,,,,,,,,,,,,,,,,,,,,,,,,,,,,,,,,,,,,,,,,,,,,,,,,,,,,,,,,,,,,114,001,18,0,2020_Feb_05_1300,Test,3.2.4,59.83743676420218,
,,,,,,,,,,,,,,,,,,,,,,,,,,,,,,846.9018224549945,None,846.9018224549945,None,846.9018224549945,None,left,6.753323904995341,846.9018224549945,None,,,,,,,,,,,,,,,,,,,,,,,,,,,,,,,,,,,,,,,,,,,,,,,,,,,,,114,001,18,0,2020_Feb_05_1300,Test,3.2.4,59.83743676420218,
,,,,,,,,,,,,,,,,,,,,,,,,,,,,,,,,,,,,,,,,846.9018224549945,None,846.9018224549945,None,return,10.665183809993323,846.9018224549945,None,,,,,,,,,,,,,,,,,,,,,,,,,,,,,,,,,,,,,,,,,,,,,114,001,18,0,2020_Feb_05_1300,Test,3.2.4,59.83743676420218,
Pictures/IA100_G20.bmp,Pictures/IA100_G20.bmp,Pictures/IA100.bmp,"

"Go ahead and gamble!"",1,risk,0,0,0,4,,,,,,,,,,,,,,,,,,,,,,,,,,,,,,,,,,,,,,,857.6301226569922,None,859.6521270200028,861.1728017199785,861.1561045309936,None,862.6934879100008,None,None,864.7489079069928,None,864.7489079069928,None,864.7489079069928,None,None,None,None,None,867.8069873369823,None,867.8069873369823,None,None,867.8069873369823,None,None,None,None,None,,,,,,,,,,,,,,,114,001,18,0,2020_Feb_05_1300,Test,3.2.4,59.83743676420218,
Pictures/IA50_G10.bmp,Pictures/IA50_G10.bmp,Pictures/IA50.bmp,"

"Go with the safe option here!"",0,safe,0,1,1,0,,,,,,,,,,,,,,,,,,,,,,,,,,,,,,,,,,,,,,,869.8122713939811,None,871.8676985219936,873.371652722999,873.3549566739821,None,874.9257676989946,None,1,876.8642155669804,None,876.8642155669804,None,876.8642155669804,None,878.8360914739897,None,878.8360914739897,879.8387274300039,880.958361670986,None,880.958361670986,None,left,880.958361670986,None,882.3620418479841,None,None,None,1.8389529840205796,1.3607818850141484,,,,,,,,,,,,,114,001,18,0,2020_Feb_05_1300,Test,3.2.4,59.83743676420218,
Pictures/IA50_G20.bmp,Pictures/IA50_G20.bmp,Pictures/IA50.bmp,"

"Let's venture and take a risk!"",1,risk,0,2,2,1,,,,,,,,,,,,,,,,,,,,,,,,,,,,,,,,,,,,,,,882.9803512499784,None,885.0023565669835,886.5230311279884,886.5063158999837,None,888.0604225389834,None,1,890.0322977420001,None,890.0322977420001,None,890.0322977420001,None,891.0015231040015,None,891.0015231040015,892.0041566299915,893.1237882809946,None,893.1237882809946,None,right,893.1237882809946,None,None,None,893.8757654619985,895.1290590559947,0.8388643390208017,0.7153566070192028,,,,,,,,,,,,,114,001,18,0,2020_Feb_05_1300,Test,3.2.4,59.83743676420218,
Pictures/IA50_G30.bmp,Pictures/IA50_G30.bmp,Pictures/IA50.bmp,"

"I think you should gamble."",1,risk,0,3,3,2,,,,,,,,,,,,,,,,,,,,,,,,,,,,,,,,,,,,,,,895.1457803539815,None,897.1677844009828,898.6884620659985,898.6717441240035,None,900.2425631679944,None,1,902.197714023001,None,902.197714023001,None,902.197714023001,None,904.3701119689795,None,904.3701119689795,905.3727545230067,906.5090945039992,None,906.5090945039992,None,right,906.5090945039992,None,None,None,907.2777922109817,908.514376571984,2.0494396509893704,0.7220554090163205,,,,,,,,,,,,,114,001,18,0,2020_Feb_05_1300,Test,3.2.4,59.83743676420218,
Pictures/IA100_G40.bmp,Pictures/IA100_G40.bmp,Pictures/IA100.bmp,"

"Try your luck and gamble!"",1,risk,0,4,4,5,,,,,,,,,,,,,,,,,,,,,,,,,,,,,,,,,,,,,,,908.531096827006,None,910.5531024090014,912.0737785559904,912.0570628139831,None,913.6111733659927,None,1,915.5830414530064,None,915.5830414530064,None,915.5830414530064,None,916.6024047579849,None,916.6024047579849,917.6050395149796,918.7079538029793,None,918.7079538029793,None,left,918.7079538029793,None,919.5936220349977,920.6965196990059,None,None,0.9041170749987941,0.851192397007253,,,,,,,,,,,,,114,001,18,0,2020_Feb_05_1300,Test,3.2.4,59.83743676420218,
Pictures/IA50_G40.bmp,Pictures/IA50_G40.bmp,Pictures/IA50.bmp,"

"It would probably be best to play it safe."",0,safe,0,5,5,3,,,,,,,,,,,,,,,,,,,,,,,,,,,,,,,,,,,,,,,920.7132396060042,None,922.7352631590038,924.2559231990017,924.2392054319789,None,925.7933183480054,None,1,927.7651900969795,None,927.7651900969795,None,927.7651900969795,None,928.5338688349875,None,928.5338688349875,929.5365099759947,930.6394278429798,None,930.6394278429798,None,left,930.6394278429798,None,931.1407557079801,932.6447128370055,None,None,0.6259711330058053,0.45573448899085633,,,,,,,,,,,,,114,001,18,0,2020_Feb_05_1300,Test,3.2.4,59.83743676420218,
,,,,,,,,,,,,,,,,,,,,,,,,,,,,,,,,,,,,,,,,,,,,,,,,,,,,,,,,,,,,,,,,,,,,,,,,,,,,,,,,932.6614349260053,None,space,9.577719441993395,932.6614349260053,None,,,,,,,114,001,18,0,2020_Feb_05_1300,Test,3.2.4,59.83743676420218,
Pictures/IA75_L60.bmp,Pictures/IA75_L60.bmp,Pictures/IA75.bmp,"

"Why not take the gamble?"",1,risk,,,,,0,0,0,0,0,0,0,18,,,,,,,,,,,,,942.4037998339918,None,942.4037998339918,None,942.4037998339918,None,left,7.211351698002545,942.4037998339918,None,942.4037998339918,None,942.4037998339918,None,return,10.083147180004744,942.4037998339918,None,952.5472375889949,None,954.5692332749895,956.0732088999939,956.0564900969912,None,957.6273315909784,None,1,959.5657504950068,None,959.5657504950068,None,959.5657504950068,None,961.8217051219835,None,961.8217051219835,962.8243464709958,963.9272615249793,None,963.9272615249793,None,None,963.9272615249793,None,None,None,None,None,2.1534033830103,,,,,,,,,,,,,,114,001,18,0,2020_Feb_05_1300,Test,3.2.4,59.83743676420218,
Pictures/IA100_L80.bmp,Pictures/IA100_L80.bmp,Pictures/IA100.bmp,"

"Go all in!"",1,risk,,,,,0,0,0,0,0,1,1,6,,,,,,,,,,,,,,,,,,,,,,,,,,,,,,,965.9325515670062,None,967.9545642449812,969.4752295479993,969.4585343229992,None,971.0126207039866,None,1,972.9844912859844,None,972.9844912859844,None,972.9844912859844,None,973.8033169029804,None,973.8033169029804,974.8059603759903,975.9088779239974,None,975.9088779239974,None,right,975.9088779239974,None,None,None,976.2765208039782,977.914163710986,0.7426714540051762,0.33026374998735264,,,,,,,,,,,,,114,001,18,0,2020_Feb_05_1300,Test,3.2.4,59.83743676420218,
Pictures/IA50_G30.bmp,Pictures/IA50_G30.bmp,Pictures/IA50.bmp,"

"I think you should gamble."",1,risk,,,,,0,0,0,0,0,2,2,16,,,,,,,,,,,,,,,,,,,,,,,,,,,,,,,977.9308839229925,None,979.9529066349787,981.4735679999867,981.4568497129949,None,982.9608399569988,None,1,984.9828205469821,None,984.9828205469821,None,984.9828205469821,None,985.9019141699828,None,985.9019141699828,986.904551982996,988.0074673430063,None,988.0074673430063,None,left,988.0074673430063,None,988.4586546079954,989.9960457769921,None,None,0.8163368119858205,0.41568077899864875,,,,,,,,,,,,,114,001,18,0,2020_Feb_05_1300,Test,3.2.4,59.83743676420218,
Pictures/IA75_G45.bmp,Pictures/IA75_G45.bmp,Pictures/IA75.bmp,"

"Don't gamble for this one."",0,safe,,,,,0,0,0,0,0,3,3,15,,,,,,,,,,,,,,,,,,,,,,,,,,,,,,,990.01276486399,None,992.0347683949803,993.5554516739794,993.5387294099783,None,995.0928566249786,None,2,997.064718470996,None,997.064718470996,None,997.064718470996,None,None,None,None,None,997.7164221229905,None,997.7164221229905,None,right,997.7164221229905,None,None,None,998.5352447789919,999.7050083380018,0.4944413660268765,0.7707347020041198,,,,,,,,,,,,,114,001,18,0,2020_Feb_05_1300,Test,3.2.4,59.83743676420218,
Pictures/IA80_40_G95p.bmp,Pictures/IA80_40_G95p.bmp,Pictures/IA80.bmp,"

"Think of the payoff, gamble!"",1,risk,,,,,0,0,0,0,0,4,4,8,,,,,,,,,,,,,,,,,,,,,,,,,,,,,,,999.7217115459789,None,1001.7771379909827,1003.2811134239892,1003.2643946629832,None,1004.8017846599978,None,1,1006.7736564060033,None,1006.7736564060033,None,1006.7736564060033,None,1007.8598593229835,None,1007.8598593229835,1008.8624947319913,1009.9654207359999,None,1009.9654207359999,None,right,1009.9654207359999,None,None,None,1010.4834413649805,1011.9540037359984,0.9695023969979957,0.48171767697203904,,,,,,,,,,,,,114,001,18,0,2020_Feb_05_1300,Test,3.2.4,59.83743676420218,
Pictures/IA50_L30.bmp,Pictures/IA50_L30.bmp,Pictures/IA50.bmp,"

"Take a leap, I think you should gamble."",1,risk,,,,,0,0,0,0,0,5,5,0,,,,,,,,,,,,,,,,,,,,,,,,,,,,,,,1011.9707092909957,None,1013.9927143690002,1015.5133971699979,1015.4966740600066,None,1017.0507886190026,None,1,1019.0226582199975,None,1019.0226582199975,None,1019.0226582199975,None,1020.5934634800069,None,1020.5934634800069,1021.5961006139987,1022.6990155149833,None,1022.6990155149833,None,right,1022.6990155149833,None,None,None,1023.3674545579997,1024.704310525005,1.4324962960090488,0.6281324190204032,,,,,,,,,,,,,114,001,18,0,2020_Feb_05_1300,Test,3.2.4,59.83743676420218,
Pictures/IA40_20_G95p.bmp,Pictures/IA40_20_G95p.bmp,Pictures/IA40.bmp,"

"Hold back, stay with the safe choice."",0,safe,,,,,0,0,0,0,0,6,6,3,,,,,,,,,,,,,,,,,,,,,,,,,,,,,,,1024.7210241389985,None,1026.7597405260021,1028.280441838986,1028.2637138300051,None,1029.7676660660072,None,1,1031.7729877829843,None,1031.7729877829843,None,1031.7729877829843,None,1032.6419504350051,None,1032.6419504350051,1033.6445711510023,1034.7642148619925,None,1034.7642148619925,None,None,1034.7642148619925,None,None,None,None,None,0.7301597369951196,,,,,,,,,,,,,,114,001,18,0,2020_Feb_05_1300,Test,3.2.4,59.83743676420218,
Pictures/IA100_G40.bmp,Pictures/IA100_G40.bmp,Pictures/IA100.bmp,"

"Try your luck and gamble!"",1,risk,,,,,0,0,0,0,0,7,7,14,,,,,,,,,,,,,,,,,,,,,,,,,,,,,,,1036.7694739149883,None,1038.791482812987,1040.312159402005,1040.2954602119862,None,1041.816129298997,None,1,1043.82142366498,None,1043.82142366498,None,1043.82142366498,None,1046.0940857889946,None,1046.0940857889946,1047.0967293040012,1048.199644541979,None,1048.199644541979,None,right,1048.199644541979,None,None,None,1048.634130188002,1050.2049316889897,2.153747381991707,0.3995155769807752,,,,,,,,,,,,,114,001,18,0,2020_Feb_05_1300,Test,3.2.4,59.83743676420218,
Pictures/IA25_L10.bmp,Pictures/IA25_L10.bmp,Pictures/IA25.bmp,"

"Dont be afraid to take the risk!"",1,risk,,,,,0,0,0,0,0,8,8,12,,,,,,,,,,,,,,,,,,,,,,,,,,,,,,,1050.2216534519976,None,1052.2770793119853,1053.7810353819805,1053.76433975299,None,1055.301727801998,None,1,1057.2736011619854,None,1057.2736011619854,None,1057.2736011619854,None,1058.4433441889996,None,1058.4433441889996,1059.4459853659791,1060.5656125909882,None,1060.5656125909882,None,right,1060.5656125909882,None,None,None,1061.0836427279864,1062.5541884900013,1.053565306996461,0.4815351879806258,,,,,,,,,,,,,114,001,18,0,2020_Feb_05_1300,Test,3.2.4,59.83743676420218,
Pictures/IA20_10_L95p.bmp,Pictures/IA20_10_L95p.bmp,Pictures/IA20.bmp,"

"Don't be tempted to gamble."",0,safe,,,,,0,0,0,0,0,9,9,2,,,,,,,,,,,,,,,,,,,,,,,,,,,,,,,1062.5709091709869,None,1064.6096265389933,1066.1303051559953,1066.1135885679978,None,1067.6676880570012,None,2,1069.6228578829905,None,1069.6228578829905,None,1069.6228578829905,None,None,None,None,None,1070.7257681369956,None,1070.7257681369956,None,right,1070.7257681369956,None,None,None,1072.6642055909906,None,0.9523026880051475,1.8973853329953272,,,,,,,,,,,,,114,001,18,0,2020_Feb_05_1300,Test,3.2.4,59.83743676420218,
Pictures/IA50_L10.bmp,Pictures/IA50_L10.bmp,Pictures/IA50.bmp,"

"Play it safe, don’t gamble!"",0,safe,,,,,0,0,0,0,0,10,10,9,,,,,,,,,,,,,,,,,,,,,,,,,,,,,,,1072.7477760539914,None,1074.769773515989,1076.2904560219904,1076.273734967981,None,1077.8278434929962,None,2,1079.799717575981,None,1079.799717575981,None,1079.799717575981,None,None,None,None,None,1081.2702692729945,None,1081.2702692729945,None,right,1081.2702692729945,None,None,None,1081.470781326003,1083.2755427350057,1.2714587490190752,0.16087484802119434,,,,,,,,,,,,,114,001,18,0,2020_Feb_05_1300,Test,3.2.4,59.83743676420218,
Pictures/IA80_40_L95p.bmp,Pictures/IA80_40_L95p.bmp,Pictures/IA80.bmp,"

"Let's stay with the certain option."",0,safe,,,,,0,0,0,0,0,11,11,1,,,,,,,,,,,,,,,,,,,,,,,,,,,,,,,1083.2922652139969,None,1085.3142697289877,1086.834947380994,1086.8182303670037,None,1088.3890519809793,None,1,1090.3442030099977,None,1090.3442030099977,None,1090.3442030099977,None,1091.3301504940027,None,1091.3301504940027,1092.332753531984,1093.435706305987,None,1093.435706305987,None,right,1093.435706305987,None,None,None,1093.9537490299845,1095.4242844129913,0.8549578179954551,0.4754463770077564,,,,,,,,,,,,,114,001,18,0,2020_Feb_05_1300,Test,3.2.4,59.83743676420218,
Pictures/IA110_55_G95p.bmp,Pictures/IA110_55_G95p.bmp,Pictures/IA110.bmp,"

"Take a chance!"",1,risk,,,,,0,0,0,0,0,12,12,11,,,,,,,,,,,,,,,,,,,,,,,,,,,,,,,1095.4409847199859,None,1097.4797010739858,1099.000379019999,1098.9836820680066,None,1100.5210721739859,None,1,1102.4929437929823,None,1102.4929437929823,None,1102.4929437929823,None,1103.244918057986,None,1103.244918057986,1104.2475592950068,1105.3504770949949,None,1105.3504770949949,None,left,1105.3504770949949,None,1105.7014013330045,1107.3390881469822,None,None,0.6582176740048453,0.3126701500150375,,,,,,,,,,,,,114,001,18,0,2020_Feb_05_1300,Test,3.2.4,59.83743676420218,
Pictures/IA50_L40.bmp,Pictures/IA50_L40.bmp,Pictures/IA50.bmp,"

"That gamble doesn't sound too good, play it safe."",0,safe,,,,,0,0,0,0,0,13,13,17,,,,,,,,,,,,,,,,,,,,,,,,,,,,,,,1107.3557653949829,None,1109.3777693510056,1110.8984484300017,1110.8817553099943,None,1112.4358461609809,None,1,1114.4077144280018,None,1114.4077144280018,None,1114.4077144280018,None,1115.5941913079878,None,1115.5941913079878,1116.596832826006,1117.6997480769933,None,1117.6997480769933,None,right,1117.6997480769933,None,None,None,1118.3514672339952,1119.6883260659815,1.0234476650075521,0.6034082759870216,,,,,,,,,,,,,114,001,18,0,2020_Feb_05_1300,Test,3.2.4,59.83743676420218,
Pictures/IA100_L20.bmp,Pictures/IA100_L20.bmp,Pictures/IA100.bmp,"

"Try to win as much money as you can, gamble!"",1,risk,,,,,0,0,0,0,0,14,14,5,,,,,,,,,,,,,,,,,,,,,,,,,,,,,,,1119.7050262400007,None,1121.7270316979848,1123.2477107959858,1123.2310135199805,None,1124.7851035359781,None,2,1126.7569759849866,None,1126.7569759849866,None,1126.7569759849866,None,None,None,None,None,1128.4781989329786,None,1128.4781989329786,None,right,1128.4781989329786,None,None,None,1128.5617471699952,1130.466763450997,1.5301986929844134,0.04095347400289029,,,,,,,,,,,,,114,001,18,0,2020_Feb_05_1300,Test,3.2.4,59.83743676420218,
Pictures/IA75_G30.bmp,Pictures/IA75_G30.bmp,Pictures/IA75.bmp,"

"Be bold, gamble!"",1,risk,,,,,0,0,0,0,0,15,15,13,,,,,,,,,,,,,,,,,,,,,,,,,,,,,,,1130.4834855399968,None,1132.505494129,1134.0261688619794,1134.0094552229857,None,1135.5635664899892,None,2,1137.5354806339892,None,1137.5354806339892,None,1137.5354806339892,None,None,None,None,None,1138.2874112589925,None,1138.2874112589925,None,left,1138.2874112589925,None,1138.5046495639835,1140.2759986839956,None,None,0.5916685209958814,0.1677455980097875,,,,,,,,,,,,,114,001,18,0,2020_Feb_05_1300,Test,3.2.4,59.83743676420218,
Pictures/IA110_55_L95p.bmp,Pictures/IA110_55_L95p.bmp,Pictures/IA110.bmp,"

"Trust me, gamble!"",1,risk,,,,,0,0,0,0,0,16,16,19,,,,,,,,,,,,,,,,,,,,,,,,,,,,,,,1140.292698382982,None,1142.3147059799812,1143.8353842950019,1143.8186861129943,None,1145.372778628982,None,2,1147.3446525739855,None,1147.3446525739855,None,1147.3446525739855,None,None,None,None,None,1148.3138734840031,None,1148.3138734840031,None,right,1148.3138734840031,None,None,None,1148.848627061001,1150.3191807479889,0.8145068680169061,0.5012829569750465,,,,,,,,,,,,,114,001,18,0,2020_Feb_05_1300,Test,3.2.4,59.83743676420218,
Pictures/IA40_20_L95p.bmp,Pictures/IA40_20_L95p.bmp,Pictures/IA40.bmp,"

"Trust me, gamble!"",1,risk,,,,,0,0,0,0,0,17,17,4,,,,,,,,,,,,,,,,,,,,,,,,,,,,,,,1150.3358742019918,None,1152.357881353004,1153.8785655509855,1153.8618639539927,None,1155.4326679289807,None,2,1157.3878005529987,None,1157.3878005529987,None,1157.3878005529987,None,None,None,None,None,1158.373773770989,None,1158.373773770989,None,right,1158.373773770989,None,None,None,1158.6745560699783,1160.3790622300003,0.77136153599713,0.25738149098469876,,,,,,,,,,,,,114,001,18,0,2020_Feb_05_1300,Test,3.2.4,59.83743676420218,
Pictures/IA25_G5.bmp,Pictures/IA25_G5.bmp,Pictures/IA25.bmp,"

"Let's stay with the certain option."",0,safe,,,,,0,0,0,0,0,18,18,7,,,,,,,,,,,,,,,,,,,,,,,,,,,,,,,1160.3957641930028,None,1162.4177687089832,1163.9384464369796,1163.9217503489926,None,1165.4758432050003,None,1,1167.447716487979,None,1167.447716487979,None,1167.447716487979,None,1169.3694626179931,None,1169.3694626179931,1170.372109235992,1171.4917333500052,None,1171.4917333500052,None,None,1171.4917333500052,None,None,None,None,None,1.7994371879904065,,,,,,,,,,,,,,114,001,18,0,2020_Feb_05_1300,Test,3.2.4,59.83743676420218,
Pictures/IA25_G20.bmp,Pictures/IA25_G20.bmp,Pictures/IA25.bmp,"

"I wouldn't gamble for this one. "",0,safe,,,,,0,0,0,0,0,19,19,10,,,,,,,,,,,,,,,,,,,,,,,,,,,,,,,1173.4970199319941,None,1175.519027679984,1177.0397103129944,1177.0229877620004,None,1178.560388951999,None,2,1180.5489663659828,None,1180.5489663659828,None,1180.5489663659828,None,None,None,None,None,1181.1338412089972,None,1181.1338412089972,None,right,1181.1338412089972,None,None,None,1181.468065232999,1183.139138951985,0.37819879298331216,0.28931287900195457,,,,,,,,,,,,,114,001,18,0,2020_Feb_05_1300,Test,3.2.4,59.83743676420218,
,,,,,,,,,,0,0,0,0,,,,,,,,,,,,,,,,,,,,,,,,,,,,,,,,,,,,,,,,,,,,,,,,,,,,,,,,,,,,,,,,,,,,,,,,,1183.3730828599946,None,return,12.570059679972474,1183.3730828599946,None,114,001,18,0,2020_Feb_05_1300,Test,3.2.4,59.83743676420218,
Pictures/IA100_L40.bmp,Pictures/IA100_L40.bmp,Pictures/IA100.bmp,"

"Think of the payoff, gamble!"",1,risk,,,,,1,0,1,0,0,0,0,8,,,,,,,,,,,,,1196.1067045889795,None,1196.1067045889795,None,1196.1067045889795,None,right,3.276452195015736,1196.1067045889795,None,1196.1067045889795,None,1196.1067045889795,None,return,4.860350661008852,1196.1067045889795,None,1201.0196721380053,None,1203.0249557250063,1204.5456347599975,1204.5289439889893,None,1206.0663292589888,None,2,1208.0382036039955,None,1208.0382036039955,None,1208.0382036039955,None,None,None,None,None,1208.7400446899992,None,1208.7400446899992,None,right,1208.7400446899992,None,None,None,1209.1745341469941,1210.7453327989788,0.5209590170125011,0.39512023600400425,,,,,,,,,,,,,114,001,18,0,2020_Feb_05_1300,Test,3.2.4,59.83743676420218,
Pictures/IA100_G80.bmp,Pictures/IA100_G80.bmp,Pictures/IA100.bmp,"

"Why not gamble?"",1,risk,,,,,1,0,1,0,0,1,1,16,,,,,,,,,,,,,,,,,,,,,,,,,,,,,,,1210.7620569230057,None,1212.7840627130063,1214.3047434839827,1214.288024518988,None,1215.8421360219945,None,1,1217.8140076209966,None,1217.8140076209966,None,1217.8140076209966,None,1219.0506062069908,None,1219.0506062069908,1220.0532506209856,1221.1561573329964,None,1221.1561573329964,None,right,1221.1561573329964,None,None,None,1221.5070822270063,1223.1447435799928,1.1371489629964344,0.3149906719918363,,,,,,,,,,,,,114,001,18,0,2020_Feb_05_1300,Test,3.2.4,59.83743676420218,
Pictures/IA25_L5.bmp,Pictures/IA25_L5.bmp,Pictures/IA25.bmp,"

"It would be smarter to choose the safe option."",0,safe,,,,,1,0,1,0,0,2,2,17,,,,,,,,,,,,,,,,,,,,,,,,,,,,,,,1223.1614492569934,None,1225.183447635005,1226.7041305399907,1226.6874335769971,None,1228.2415245639859,None,1,1230.213398391992,None,1230.213398391992,None,1230.213398391992,None,1231.316309508984,None,1231.316309508984,1232.318954833987,1233.4218693449802,None,1233.4218693449802,None,right,1233.4218693449802,None,None,None,1233.973330214998,1235.410447222006,0.9377654579875525,0.5052817449904978,,,,,,,,,,,,,114,001,18,0,2020_Feb_05_1300,Test,3.2.4,59.83743676420218,
Pictures/IA75_G15.bmp,Pictures/IA75_G15.bmp,Pictures/IA75.bmp,"

"Take a chance!"",1,risk,,,,,1,0,1,0,0,3,3,0,,,,,,,,,,,,,,,,,,,,,,,,,,,,,,,1235.4271689720044,None,1237.449139297998,1238.9698540329991,1238.9531527310028,None,1240.507247298985,None,1,1242.4791271410068,None,1242.4791271410068,None,1242.4791271410068,None,1243.5653169750003,None,1243.5653169750003,1244.567955203005,1245.6708722159965,None,1245.6708722159965,None,right,1245.6708722159965,None,None,None,1246.339309781004,1247.6761727090052,1.0000303170236293,0.6322734860004857,,,,,,,,,,,,,114,001,18,0,2020_Feb_05_1300,Test,3.2.4,59.83743676420218,
Pictures/IA25_L15.bmp,Pictures/IA25_L15.bmp,Pictures/IA25.bmp,"

"There's not much on the line here, gamble!"",1,risk,,,,,1,0,1,0,0,4,4,12,,,,,,,,,,,,,,,,,,,,,,,,,,,,,,,1247.6928711530054,None,1249.7148766359896,1251.3023991429945,1251.2856756139954,None,1252.7729530259967,None,1,1254.7448220889783,None,1254.7448220889783,None,1254.7448220889783,None,1256.031569977,None,1256.031569977,1257.0342086709861,1258.1538380179845,None,1258.1538380179845,None,None,1258.1538380179845,None,None,None,None,None,1.1343354449782055,,,,,,,,,,,,,,114,001,18,0,2020_Feb_05_1300,Test,3.2.4,59.83743676420218,
Pictures/IA110_55_G95p.bmp,Pictures/IA110_55_G95p.bmp,Pictures/IA110.bmp,"

"Take a chance!"",1,risk,,,,,1,0,1,0,0,5,5,18,,,,,,,,,,,,,,,,,,,,,,,,,,,,,,,1260.15912591698,None,1262.181134119979,1263.7018102360016,1263.6850942790043,None,1265.205788363004,None,1,1267.21108478299,None,1267.21108478299,None,1267.21108478299,None,1268.1134662019904,None,1268.1134662019904,1269.116108657996,1270.2190223499783,None,1270.2190223499783,None,left,1270.2190223499783,None,1270.5866451899929,1272.2243102829962,None,None,0.8040709540073294,0.3321201229991857,,,,,,,,,,,,,114,001,18,0,2020_Feb_05_1300,Test,3.2.4,59.83743676420218,
Pictures/IA50_L10.bmp,Pictures/IA50_L10.bmp,Pictures/IA50.bmp,"

"Play it safe, don’t gamble!"",0,safe,,,,,1,0,1,0,0,6,6,5,,,,,,,,,,,,,,,,,,,,,,,,,,,,,,,1272.2410148269846,None,1274.2630190349882,1275.7836973799858,1275.7670024870022,None,1277.2709609750018,None,1,1279.292981126986,None,1279.292981126986,None,1279.292981126986,None,1280.5629998729855,None,1280.5629998729855,1281.5656406589842,1282.6685548709938,None,1282.6685548709938,None,left,1282.6685548709938,None,1283.0194802479818,1284.6571249899862,None,None,1.1381836840009782,0.3065961319953203,,,,,,,,,,,,,114,001,18,0,2020_Feb_05_1300,Test,3.2.4,59.83743676420218,
Pictures/IA50_L40.bmp,Pictures/IA50_L40.bmp,Pictures/IA50.bmp,"

"That gamble doesn't sound too good, play it safe."",0,safe,,,,,1,0,1,0,0,7,7,4,,,,,,,,,,,,,,,,,,,,,,,,,,,,,,,1284.6738466699899,None,1286.6958559049817,1288.2165332899895,1288.199815761007,None,1289.7539289289853,None,1,1291.7258053259866,None,1291.7258053259866,None,1291.7258053259866,None,1293.4637273899862,None,1293.4637273899862,1294.4663642029918,1295.569283824996,None,1295.569283824996,None,left,1295.569283824996,None,1296.6889027069847,None,None,None,1.5853533299814444,1.0698716580227483,,,,,,,,,,,,,114,001,18,0,2020_Feb_05_1300,Test,3.2.4,59.83743676420218,
Pictures/IA100_G20.bmp,Pictures/IA100_G20.bmp,Pictures/IA100.bmp,"

"Go ahead and gamble!"",1,risk,,,,,1,0,1,0,0,8,8,2,,,,,,,,,,,,,,,,,,,,,,,,,,,,,,,1297.5745663660055,None,1299.5965705569834,1301.1172493360064,1301.1005532399868,None,1302.6379338779952,None,1,1304.6265304749832,None,1304.6265304749832,None,1304.6265304749832,None,1306.2975993709988,None,1306.2975993709988,1307.3002388869936,1308.403158237983,None,1308.403158237983,None,left,1308.403158237983,None,1309.2052802499966,1310.408456581994,None,None,1.5566316270269454,0.7559932460135315,,,,,,,,,,,,,114,001,18,0,2020_Feb_05_1300,Test,3.2.4,59.83743676420218,
Pictures/IA25_G15.bmp,Pictures/IA25_G15.bmp,Pictures/IA25.bmp,"

"I think you should take a gamble."",1,risk,,,,,1,0,1,0,0,9,9,14,,,,,,,,,,,,,,,,,,,,,,,,,,,,,,,1310.4251573929796,None,1312.4471646739985,1313.9678487030033,1313.9511560139945,None,1315.5052389839839,None,1,1317.4771152790054,None,1317.4771152790054,None,1317.4771152790054,None,1318.8808238219935,None,1318.8808238219935,1319.883463762002,1320.9863794929988,None,1320.9863794929988,None,right,1320.9863794929988,None,None,None,1322.4569359860034,None,1.2740490209835116,1.420767143019475,,,,,,,,,,,,,114,001,18,0,2020_Feb_05_1300,Test,3.2.4,59.83743676420218,
Pictures/IA100_G40.bmp,Pictures/IA100_G40.bmp,Pictures/IA100.bmp,"

"Try your luck and gamble!"",1,risk,,,,,1,0,1,0,0,10,10,9,,,,,,,,,,,,,,,,,,,,,,,,,,,,,,,1323.0083803619782,None,1325.030387442006,1326.551065192005,1326.5343721969984,None,1328.0717527139932,None,1,1330.0603486809996,None,1330.0603486809996,None,1330.0603486809996,None,1330.9627396040014,None,1330.9627396040014,1331.9653847919835,1333.1017115849827,None,1333.1017115849827,None,left,1333.1017115849827,None,1333.619742424984,1335.090295662987,None,None,0.7788209209975321,0.47344115501618944,,,,,,,,,,,,,114,001,18,0,2020_Feb_05_1300,Test,3.2.4,59.83743676420218,
Pictures/IA75_L60.bmp,Pictures/IA75_L60.bmp,Pictures/IA75.bmp,"

"Why not take the gamble?"",1,risk,,,,,1,0,1,0,0,11,11,3,,,,,,,,,,,,,,,,,,,,,,,,,,,,,,,1335.1069890919898,None,1337.1289967589837,1338.6496779370063,1338.632985292992,None,1340.1703639009793,None,1,1342.1589570489887,None,1342.1589570489887,None,1342.1589570489887,None,1343.027909692988,None,1343.027909692988,1344.0305528099998,1345.13346876399,None,1345.13346876399,None,right,1345.13346876399,None,None,None,1346.7711321219977,None,0.7522017289884388,1.5936790609848686,,,,,,,,,,,,,114,001,18,0,2020_Feb_05_1300,Test,3.2.4,59.83743676420218,
Pictures/IA100_L80.bmp,Pictures/IA100_L80.bmp,Pictures/IA100.bmp,"

"Go all in!"",1,risk,,,,,1,0,1,0,0,12,12,1,,,,,,,,,,,,,,,,,,,,,,,,,,,,,,,1347.155479395995,None,1349.1774897069845,1350.6981673050032,1350.681449280004,None,1352.2188510949782,None,1,1354.2074254369945,None,1354.2074254369945,None,1354.2074254369945,None,1355.0262609600031,None,1355.0262609600031,1356.0288968950044,1357.1318139990035,None,1357.1318139990035,None,right,1357.1318139990035,None,None,None,1357.5495805639948,1359.120406912989,0.7357390820106957,0.37133363500470296,,,,,,,,,,,,,114,001,18,0,2020_Feb_05_1300,Test,3.2.4,59.83743676420218,
Pictures/IA110_55_L95p.bmp,Pictures/IA110_55_L95p.bmp,Pictures/IA110.bmp,"

"Trust me, gamble!"",1,risk,,,,,1,0,1,0,0,13,13,7,,,,,,,,,,,,,,,,,,,,,,,,,,,,,,,1359.137105656002,None,1361.1591182929988,1362.679793746007,1362.663099731988,None,1364.1670600849902,None,2,1366.1890735460038,None,1366.1890735460038,None,1366.1890735460038,None,None,None,None,None,1367.8768535929848,None,1367.8768535929848,None,right,1367.8768535929848,None,None,None,1368.3280410529987,1369.865432585997,1.5220936789992265,0.410297777998494,,,,,,,,,,,,,114,001,18,0,2020_Feb_05_1300,Test,3.2.4,59.83743676420218,
Pictures/IA40_20_L95p.bmp,Pictures/IA40_20_L95p.bmp,Pictures/IA40.bmp,"

"Trust me, gamble!"",1,risk,,,,,1,0,1,0,0,14,14,15,,,,,,,,,,,,,,,,,,,,,,,,,,,,,,,1369.882152531005,None,1371.904161737999,1373.4081194539904,1373.3914230949886,None,1374.912103465991,None,2,1376.9341014259844,None,1376.9341014259844,None,1376.9341014259844,None,None,None,None,None,1377.8866258309863,None,1377.8866258309863,None,right,1377.8866258309863,None,None,None,1378.1372832880006,1379.8752066479938,0.8250643330102321,0.21651585199288093,,,,,,,,,,,,,114,001,18,0,2020_Feb_05_1300,Test,3.2.4,59.83743676420218,
Pictures/IA50_L30.bmp,Pictures/IA50_L30.bmp,Pictures/IA50.bmp,"

"Take a leap, I think you should gamble."",1,risk,,,,,1,0,1,0,0,15,15,10,,,,,,,,,,,,,,,,,,,,,,,,,,,,,,,1379.8919064119982,None,1381.9139171089919,1383.4345980039798,1383.4179005819897,None,1384.9385651040066,None,1,1386.943862960994,None,1386.943862960994,None,1386.943862960994,None,1387.7125693619892,None,1387.7125693619892,1388.7152147269808,1389.8181344819895,None,1389.8181344819895,None,left,1389.8181344819895,None,1391.0045931219938,None,None,None,0.6233091120084282,1.1410200299869757,,,,,,,,,,,,,114,001,18,0,2020_Feb_05_1300,Test,3.2.4,59.83743676420218,
Pictures/IA80_40_G95p.bmp,Pictures/IA80_40_G95p.bmp,Pictures/IA80.bmp,"

"Think of the payoff, gamble!"",1,risk,,,,,1,0,1,0,0,16,16,11,,,,,,,,,,,,,,,,,,,,,,,,,,,,,,,1391.8234110669873,None,1393.8454176099913,1395.3661024629837,1395.349402414984,None,1396.886784050992,None,1,1398.8753937889996,None,1398.8753937889996,None,1398.8753937889996,None,1399.9114037909894,None,1399.9114037909894,1400.9140899560007,1402.0170150579943,None,1402.0170150579943,None,left,1402.0170150579943,None,1402.3846341919852,1404.022299415985,None,None,0.8277644369809423,0.3181259680131916,,,,,,,,,,,,,114,001,18,0,2020_Feb_05_1300,Test,3.2.4,59.83743676420218,
Pictures/IA75_G60.bmp,Pictures/IA75_G60.bmp,Pictures/IA75.bmp,"

"Make it exciting, take a chance!"",1,risk,,,,,1,0,1,0,0,17,17,19,,,,,,,,,,,,,,,,,,,,,,,,,,,,,,,1404.0390043809894,None,1406.0610099099868,1407.5650520789786,1407.5482982319954,None,1409.1190857379988,None,1,1411.0909576010017,None,1411.0909576010017,None,1411.0909576010017,None,1412.1103157920006,None,1412.1103157920006,1413.112959725986,1414.2325874709932,None,1414.2325874709932,None,left,1414.2325874709932,None,1414.8676028519985,1416.2378776900005,None,None,0.8762077830033377,0.59056526698987,,,,,,,,,,,,,114,001,18,0,2020_Feb_05_1300,Test,3.2.4,59.83743676420218,
Pictures/IA75_G30.bmp,Pictures/IA75_G30.bmp,Pictures/IA75.bmp,"

"Be bold, gamble!"",1,risk,,,,,1,0,1,0,0,18,18,6,,,,,,,,,,,,,,,,,,,,,,,,,,,,,,,1416.254599418986,None,1418.2766059309943,1419.7972885479976,1419.7805687699874,None,1421.3179735459853,None,2,1423.3065464389801,None,1423.3065464389801,None,1423.3065464389801,None,None,None,None,None,1425.0946170039824,None,1425.0946170039824,None,left,1425.0946170039824,None,1426.1640889160044,None,None,None,1.636616136005614,1.032536765007535,,,,,,,,,,,,,114,001,18,0,2020_Feb_05_1300,Test,3.2.4,59.83743676420218,
Pictures/IA100_L20.bmp,Pictures/IA100_L20.bmp,Pictures/IA100.bmp,"

"Try to win as much money as you can, gamble!"",1,risk,,,,,1,0,1,0,0,19,19,13,,,,,,,,,,,,,,,,,,,,,,,,,,,,,,,1427.099906471005,None,1429.121908762987,1430.6425942049827,1430.6258729029796,None,1432.1465698399988,None,2,1434.1518659119902,None,1434.1518659119902,None,1434.1518659119902,None,None,None,None,None,1434.7534564879898,None,1434.7534564879898,None,right,1434.7534564879898,None,None,None,1435.0208189009863,1436.7587404880032,0.42329689700272866,0.2217004660051316,,,,,,,,,,,,,114,001,18,0,2020_Feb_05_1300,Test,3.2.4,59.83743676420218,
,,,,,,,,,,1,0,1,0,,,,,,,,,,,,,,,,,,,,,,,,,,,,,,,,,,,,,,,,,,,,,,,,,,,,,,,,,,,,,,,,,,,,,,,,,1436.925846758997,None,return,7.209312783001224,1436.925846758997,None,114,001,18,0,2020_Feb_05_1300,Test,3.2.4,59.83743676420218,
Pictures/IA25_L5.bmp,Pictures/IA25_L5.bmp,Pictures/IA25.bmp,"

"It would be smarter to choose the safe option."",0,safe,,,,,2,0,2,0,0,0,0,8,,,,,,,,,,,,,1444.2953124039923,None,1444.2953124039923,None,1444.2953124039923,None,left,1.2558357850066386,1444.2953124039923,None,1444.2953124039923,None,1444.2953124039923,None,return,5.015626148990123,1444.2953124039923,None,1449.3586827069812,None,1451.3806895939924,1452.901365163998,1452.8846496159968,None,1454.3719107669895,None,2,1456.393929391983,None,1456.393929391983,None,1456.393929391983,None,None,None,None,None,1458.4660671049787,None,1458.4660671049787,None,right,1458.4660671049787,None,None,None,1459.034220172005,1460.4713579769887,1.8772327179904096,0.5250855650228914,,,,,,,,,,,,,114,001,18,0,2020_Feb_05_1300,Test,3.2.4,59.83743676420218,
Pictures/IA75_G45.bmp,Pictures/IA75_G45.bmp,Pictures/IA75.bmp,"

"Don't gamble for this one."",0,safe,,,,,2,0,2,0,0,1,1,7,,,,,,,,,,,,,,,,,,,,,,,,,,,,,,,1460.4880585079954,None,1462.5100697909947,1464.030757578992,1464.0140508309996,None,1465.5514322639792,None,1,1467.540053742996,None,1467.540053742996,None,1467.540053742996,None,1468.1917644789792,None,1468.1917644789792,1469.1943936689931,1470.2973122599942,None,1470.2973122599942,None,left,1470.2973122599942,None,1470.8487617619976,1472.2858814130013,None,None,0.5470960779930465,0.5178322549909353,,,,,,,,,,,,,114,001,18,0,2020_Feb_05_1300,Test,3.2.4,59.83743676420218,
Pictures/IA25_G20.bmp,Pictures/IA25_G20.bmp,Pictures/IA25.bmp,"

"I wouldn't gamble for this one. "",0,safe,,,,,2,0,2,0,0,2,2,5,,,,,,,,,,,,,,,,,,,,,,,,,,,,,,,1472.302605104982,None,1474.324612565979,1475.8452910449996,1475.8285775809782,None,1477.3325535439944,None,1,1479.354550049,None,1479.354550049,None,1479.354550049,None,1480.240232687007,None,1480.240232687007,1481.2428771450068,1482.3792149799992,None,1482.3792149799992,None,left,1482.3792149799992,None,1482.7134192439844,1484.3677872469998,None,None,0.7646094759984408,0.2919322570087388,,,,,,,,,,,,,114,001,18,0,2020_Feb_05_1300,Test,3.2.4,59.83743676420218,
Pictures/IA25_L15.bmp,Pictures/IA25_L15.bmp,Pictures/IA25.bmp,"

"There's not much on the line here, gamble!"",1,risk,,,,,2,0,2,0,0,3,3,2,,,,,,,,,,,,,,,,,,,,,,,,,,,,,,,1484.3845127940003,None,1486.406512919988,1487.9271986350068,1487.9104814729944,None,1489.447880872991,None,1,1491.4364607780008,None,1491.4364607780008,None,1491.4364607780008,None,1492.8568755229935,None,1492.8568755229935,1493.8595205199963,1495.0460046149965,None,1495.0460046149965,None,right,1495.0460046149965,None,None,None,1496.2825947009842,None,1.2826990330067929,1.201133138005389,,,,,,,,,,,,,114,001,18,0,2020_Feb_05_1300,Test,3.2.4,59.83743676420218,
Pictures/IA50_L20.bmp,Pictures/IA50_L20.bmp,Pictures/IA50.bmp,"

"Certainty is boring, take a risk!"",1,risk,,,,,2,0,2,0,0,4,4,11,,,,,,,,,,,,,,,,,,,,,,,,,,,,,,,1497.0680009359785,None,1499.0900120979932,1500.6106919969898,1500.5939722420007,None,1502.148084577988,None,1,1504.1199656880053,None,1504.1199656880053,None,1504.1199656880053,None,1505.1393203529879,None,1505.1393203529879,1506.1419632330071,1507.261595066986,None,1507.261595066986,None,right,1507.261595066986,None,None,None,1508.4981764539843,None,0.9111947950150352,1.2015452299965546,,,,,,,,,,,,,114,001,18,0,2020_Feb_05_1300,Test,3.2.4,59.83743676420218,
Pictures/IA100_L60.bmp,Pictures/IA100_L60.bmp,Pictures/IA100.bmp,"

"You'd have a lot to lose, don't gamble."",0,safe,,,,,2,0,2,0,0,5,5,17,,,,,,,,,,,,,,,,,,,,,,,,,,,,,,,1509.2835821119952,None,1511.3055945599917,1512.8262729409907,1512.8095777329872,None,1514.3636715099856,None,1,1516.3355448769871,None,1516.3355448769871,None,1516.3355448769871,None,1518.6082202300022,None,1518.6082202300022,1519.6108667390072,1520.7137861269875,None,1520.7137861269875,None,right,1520.7137861269875,None,None,None,1522.6522229049879,None,2.1276238190184813,1.8933663399948273,,,,,,,,,,,,,114,001,18,0,2020_Feb_05_1300,Test,3.2.4,59.83743676420218,
Pictures/IA25_L20.bmp,Pictures/IA25_L20.bmp,Pictures/IA25.bmp,"

"Don't be tempted to gamble."",0,safe,,,,,2,0,2,0,0,6,6,14,,,,,,,,,,,,,,,,,,,,,,,,,,,,,,,1522.7357903429947,None,1524.7577988889825,1526.278475072002,1526.2617575049808,None,1527.8158712229924,None,1,1529.7877468049992,None,1529.7877468049992,None,1529.7877468049992,None,1530.372622719995,None,1530.372622719995,1531.3752639409795,1532.4781860169896,None,1532.4781860169896,None,left,1532.4781860169896,None,1532.8458094589878,1534.4834799529926,None,None,0.48341279398300685,0.3209659999993164,,,,,,,,,,,,,114,001,18,0,2020_Feb_05_1300,Test,3.2.4,59.83743676420218,
Pictures/IA100_G60.bmp,Pictures/IA100_G60.bmp,Pictures/IA100.bmp,"

"Be cautious, don't gamble for this one."",0,safe,,,,,2,0,2,0,0,7,7,15,,,,,,,,,,,,,,,,,,,,,,,,,,,,,,,1534.5001782249892,None,1536.5221862219914,1538.0428667749802,1538.0261711310013,None,1539.5802653619903,None,1,1541.5521389649948,None,1541.5521389649948,None,1541.5521389649948,None,1543.022689392994,None,1543.022689392994,1544.025342234003,1545.1282553639903,None,1545.1282553639903,None,left,1545.1282553639903,None,1545.7131278399902,1547.116831531981,None,None,1.343025292007951,0.5508906070026569,,,,,,,,,,,,,114,001,18,0,2020_Feb_05_1300,Test,3.2.4,59.83743676420218,
Pictures/IA25_G10.bmp,Pictures/IA25_G10.bmp,Pictures/IA25.bmp,"

"What's life without a little risk?"",1,risk,,,,,2,0,2,0,0,8,8,9,,,,,,,,,,,,,,,,,,,,,,,,,,,,,,,1547.1335532639932,None,1549.1555696789874,1550.6762404860056,1550.6595291679841,None,1552.2136359449942,None,1,1554.1855209629866,None,1554.1855209629866,None,1554.1855209629866,None,1555.5223798170045,None,1555.5223798170045,1556.5250154979876,1557.627938324993,None,1557.627938324993,None,right,1557.627938324993,None,None,None,1558.8478219560056,None,1.2056408189819194,1.1792086659988854,,,,,,,,,,,,,114,001,18,0,2020_Feb_05_1300,Test,3.2.4,59.83743676420218,
Pictures/IA40_20_G95p.bmp,Pictures/IA40_20_G95p.bmp,Pictures/IA40.bmp,"

"Hold back, stay with the safe choice."",0,safe,,,,,2,0,2,0,0,9,9,4,,,,,,,,,,,,,,,,,,,,,,,,,,,,,,,1559.633230292995,None,1561.6552335669985,1563.1759195379855,1563.1592015109782,None,1564.6966086860048,None,1,1566.6851816929993,None,1566.6851816929993,None,1566.6851816929993,None,1567.9886343010003,None,1567.9886343010003,1568.9912735729886,1570.0941949510016,None,1570.0941949510016,None,left,1570.0941949510016,None,1570.478539720003,1572.0827756740036,None,None,1.1539829969988205,0.3449600400053896,,,,,,,,,,,,,114,001,18,0,2020_Feb_05_1300,Test,3.2.4,59.83743676420218,
Pictures/IA50_G40.bmp,Pictures/IA50_G40.bmp,Pictures/IA50.bmp,"

"It would probably be best to play it safe."",0,safe,,,,,2,0,2,0,0,10,10,13,,,,,,,,,,,,,,,,,,,,,,,,,,,,,,,1572.0994791339908,None,1574.1214840269822,1575.6421662489884,1575.6254692630027,None,1577.1628532889881,None,1,1579.1514485729858,None,1579.1514485729858,None,1579.1514485729858,None,1581.073190169991,None,1581.073190169991,1582.0758334790007,1583.1787518369965,None,1583.1787518369965,None,left,1583.1787518369965,None,1583.8471685289987,1585.167323319998,None,None,1.7837115440052003,0.620400013984181,,,,,,,,,,,,,114,001,18,0,2020_Feb_05_1300,Test,3.2.4,59.83743676420218,
Pictures/IA80_40_L95p.bmp,Pictures/IA80_40_L95p.bmp,Pictures/IA80.bmp,"

"Let's stay with the certain option."",0,safe,,,,,2,0,2,0,0,11,11,3,,,,,,,,,,,,,,,,,,,,,,,,,,,,,,,1585.1840418390057,None,1587.2060548439913,1588.7267316959915,1588.7100164619915,None,1590.2474193819799,None,2,1592.2359953929845,None,1592.2359953929845,None,1592.2359953929845,None,None,None,None,None,1593.3890393809997,None,1593.3890393809997,None,right,1593.3890393809997,None,None,None,1593.7566832519951,1595.3943370409834,0.9791659330076072,0.32211240800097585,,,,,,,,,,,,,114,001,18,0,2020_Feb_05_1300,Test,3.2.4,59.83743676420218,
Pictures/IA20_10_L95p.bmp,Pictures/IA20_10_L95p.bmp,Pictures/IA20.bmp,"

"Don't be tempted to gamble."",0,safe,,,,,2,0,2,0,0,12,12,16,,,,,,,,,,,,,,,,,,,,,,,,,,,,,,,1595.411052587995,None,1597.4330598049855,1598.953761140001,1598.9370326449862,None,1600.45771998298,None,2,1602.4630174329795,None,1602.4630174329795,None,1602.4630174329795,None,None,None,None,None,1602.981051810988,None,1602.981051810988,None,right,1602.981051810988,None,None,None,1603.2985592049954,1604.969632399996,0.3361444480251521,0.274101338989567,,,,,,,,,,,,,114,001,18,0,2020_Feb_05_1300,Test,3.2.4,59.83743676420218,
Pictures/IA75_G30.bmp,Pictures/IA75_G30.bmp,Pictures/IA75.bmp,"

"Be bold, gamble!"",1,risk,,,,,2,0,2,0,0,13,13,10,,,,,,,,,,,,,,,,,,,,,,,,,,,,,,,1604.986344953999,None,1607.0083513099817,1608.5290326349786,1608.5123148349812,None,1610.0330062949797,None,1,1612.0383109569957,None,1612.0383109569957,None,1612.0383109569957,None,1612.8905565679888,None,1612.8905565679888,1613.893199593993,1614.9961184099957,None,1614.9961184099957,None,left,1614.9961184099957,None,1615.9486292429792,1616.9846873339848,None,None,0.7368532030086499,0.915021107008215,,,,,,,,,,,,,114,001,18,0,2020_Feb_05_1300,Test,3.2.4,59.83743676420218,
Pictures/IA100_G40.bmp,Pictures/IA100_G40.bmp,Pictures/IA100.bmp,"

"Try your luck and gamble!"",1,risk,,,,,2,0,2,0,0,14,14,12,,,,,,,,,,,,,,,,,,,,,,,,,,,,,,,1617.0014093029895,None,1619.0234218279948,1620.5440988619812,1620.5273810669896,None,1622.031363407994,None,1,1624.0533254899783,None,1624.0533254899783,None,1624.0533254899783,None,1625.172983322991,None,1625.172983322991,1626.1756285099837,1627.2952553799842,None,1627.2952553799842,None,left,1627.2952553799842,None,1628.1308046949853,1629.3005490359792,None,None,1.017834219004726,0.7919049200136214,,,,,,,,,,,,,114,001,18,0,2020_Feb_05_1300,Test,3.2.4,59.83743676420218,
Pictures/IA75_L60.bmp,Pictures/IA75_L60.bmp,Pictures/IA75.bmp,"

"Why not take the gamble?"",1,risk,,,,,2,0,2,0,0,15,15,6,,,,,,,,,,,,,,,,,,,,,,,,,,,,,,,1629.317265044985,None,1631.3392790409853,1632.8432393870025,1632.8265425830032,None,1634.34722379499,None,1,1636.3692230760062,None,1636.3692230760062,None,1636.3692230760062,None,1637.9734693329956,None,1637.9734693329956,1638.9761170469865,1640.0790327819996,None,1640.0790327819996,None,right,1640.0790327819996,None,None,None,1641.2654943209782,None,1.4939396420086268,1.1441324299958069,,,,,,,,,,,,,114,001,18,0,2020_Feb_05_1300,Test,3.2.4,59.83743676420218,
Pictures/IA110_55_G95p.bmp,Pictures/IA110_55_G95p.bmp,Pictures/IA110.bmp,"

"Take a chance!"",1,risk,,,,,2,0,2,0,0,16,16,18,,,,,,,,,,,,,,,,,,,,,,,,,,,,,,,1642.0843127520056,None,1644.1063231680018,1645.610303117981,1645.5935878019955,None,1647.147688876983,None,1,1649.1362874920014,None,1649.1362874920014,None,1649.1362874920014,None,1650.3227410609834,None,1650.3227410609834,1651.3253900749842,1652.428310201998,None,1652.428310201998,None,left,1652.428310201998,None,1652.9296375989798,1654.4336227249878,None,None,1.0948730510135647,0.46683185698930174,,,,,,,,,,,,,114,001,18,0,2020_Feb_05_1300,Test,3.2.4,59.83743676420218,
Pictures/IA100_L40.bmp,Pictures/IA100_L40.bmp,Pictures/IA100.bmp,"

"Think of the payoff, gamble!"",1,risk,,,,,2,0,2,0,0,17,17,0,,,,,,,,,,,,,,,,,,,,,,,,,,,,,,,1654.4503139040025,None,1656.4723162349837,1657.992998245987,1657.9763036739896,None,1659.5136840500054,None,1,1661.5022820809972,None,1661.5022820809972,None,1661.5022820809972,None,1662.5383494120033,None,1662.5383494120033,1663.5409942879924,1664.6439133370004,None,1664.6439133370004,None,right,1664.6439133370004,None,None,None,1665.2120724279957,1666.6492052469985,0.9128767469956074,0.5232426789880265,,,,,,,,,,,,,114,001,18,0,2020_Feb_05_1300,Test,3.2.4,59.83743676420218,
Pictures/IA25_L10.bmp,Pictures/IA25_L10.bmp,Pictures/IA25.bmp,"

"Dont be afraid to take the risk!"",1,risk,,,,,2,0,2,0,0,18,18,19,,,,,,,,,,,,,,,,,,,,,,,,,,,,,,,1666.6659066010034,None,1668.687917000003,1670.2085974589863,1670.1919006980024,None,1671.729286871996,None,2,1673.7178794999782,None,1673.7178794999782,None,1673.7178794999782,None,None,None,None,None,1675.639613509993,None,1675.639613509993,None,right,1675.639613509993,None,None,None,1675.8401510029798,1677.6449169009866,1.7692781490040943,0.15153276699129492,,,,,,,,,,,,,114,001,18,0,2020_Feb_05_1300,Test,3.2.4,59.83743676420218,
Pictures/IA75_L15.bmp,Pictures/IA75_L15.bmp,Pictures/IA75.bmp,"

"Trust me–gamble!"",1,risk,,,,,2,0,2,0,0,19,19,1,,,,,,,,,,,,,,,,,,,,,,,,,,,,,,,1677.6616154319781,None,1679.6836255239905,1681.2043061300064,1681.1876103359973,None,1682.7417022339941,None,2,1684.7135797280062,None,1684.7135797280062,None,1684.7135797280062,None,None,None,None,None,1685.2650514869893,None,1685.2650514869893,None,right,1685.2650514869893,None,None,None,1685.4989822559874,1687.2703425409854,0.38958339698729105,0.19809962599538267,,,,,,,,,,,,,114,001,18,0,2020_Feb_05_1300,Test,3.2.4,59.83743676420218,
,,,,,,,,,,2,0,2,0,,,,,,,,,,,,,,,,,,,,,,,,,,,,,,,,,,,,,,,,,,,,,,,,,,,,,,,,,,,,,,,,,,,,,,,,,1687.4374414159975,None,return,6.7057130269822665,1687.4374414159975,None,114,001,18,0,2020_Feb_05_1300,Test,3.2.4,59.83743676420218,
Pictures/IA110_55_L95p.bmp,Pictures/IA110_55_L95p.bmp,Pictures/IA110.bmp,"

"Trust me, gamble!"",1,risk,,,,,3,0,3,0,0,0,0,19,,,,,,,,,,,,,1694.305590567994,None,1694.305590567994,None,1694.305590567994,None,right,1.685554019000847,1694.305590567994,None,1694.305590567994,None,1694.305590567994,None,return,2.8613731660007033,1694.305590567994,None,1697.2299770509999,None,1699.2352831559838,1700.7559568499855,1700.739242412994,None,1702.2599239669798,None,2,1704.2485218390066,None,1704.2485218390066,None,1704.2485218390066,None,None,None,None,None,1705.3848551999836,None,1705.3848551999836,None,right,1705.3848551999836,None,None,None,1705.568672845984,1707.3734440520057,0.9826225979777519,0.14229751299717464,,,,,,,,,,,,,114,001,18,0,2020_Feb_05_1300,Test,3.2.4,59.83743676420218,
Pictures/IA75_L45.bmp,Pictures/IA75_L45.bmp,Pictures/IA75.bmp,"

"Don't gamble for this one, play it safe."",0,safe,,,,,3,0,3,0,0,1,1,7,,,,,,,,,,,,,,,,,,,,,,,,,,,,,,,1707.390138482995,None,1709.4121479250025,1710.9328338269843,1710.9161316749814,None,1712.5036493319785,None,1,1714.4421024110052,None,1714.4421024110052,None,1714.4421024110052,None,1716.1466192259977,None,1716.1466192259977,1717.1492579100013,1718.2521764230041,None,1718.2521764230041,None,left,1718.2521764230041,None,1718.6031077030057,1720.2407479649992,None,None,1.5650599079963285,0.3069765069813002,,,,,,,,,,,,,114,001,18,0,2020_Feb_05_1300,Test,3.2.4,59.83743676420218,
Pictures/IA100_L60.bmp,Pictures/IA100_L60.bmp,Pictures/IA100.bmp,"

"You'd have a lot to lose, don't gamble."",0,safe,,,,,3,0,3,0,0,2,2,11,,,,,,,,,,,,,,,,,,,,,,,,,,,,,,,1720.2574718800024,None,1722.27947963099,1723.800160504994,1723.7834452909883,None,1725.2874281159893,None,2,1727.3094510989904,None,1727.3094510989904,None,1727.3094510989904,None,None,None,None,None,1728.5460226789874,None,1728.5460226789874,None,right,1728.5460226789874,None,None,None,1728.7632593849848,1730.534618043981,1.0496963210171089,0.17313093598932028,,,,,,,,,,,,,114,001,18,0,2020_Feb_05_1300,Test,3.2.4,59.83743676420218,
Pictures/IA25_G20.bmp,Pictures/IA25_G20.bmp,Pictures/IA25.bmp,"

"I wouldn't gamble for this one. "",0,safe,,,,,3,0,3,0,0,3,3,9,,,,,,,,,,,,,,,,,,,,,,,,,,,,,,,1730.5513155529916,None,1732.5733249339974,1734.0940123529872,1734.0773098380014,None,1735.5812710689788,None,2,1737.6032928219938,None,1737.6032928219938,None,1737.6032928219938,None,None,None,None,None,1738.3218554189953,None,1738.3218554189953,None,right,1738.3218554189953,None,None,None,1738.4388271659845,1740.310442660004,0.5478653169993777,0.07728793399292044,,,,,,,,,,,,,114,001,18,0,2020_Feb_05_1300,Test,3.2.4,59.83743676420218,
Pictures/IA100_L80.bmp,Pictures/IA100_L80.bmp,Pictures/IA100.bmp,"

"Go all in!"",1,risk,,,,,3,0,3,0,0,4,4,4,,,,,,,,,,,,,,,,,,,,,,,,,,,,,,,1740.3271607169881,None,1742.349146506982,1743.8698304120044,1743.8531358680048,None,1745.3738046000071,None,2,1747.3791036529874,None,1747.3791036529874,None,1747.3791036529874,None,None,None,None,None,1748.08095576099,None,1748.08095576099,None,right,1748.08095576099,None,None,None,1748.8997832069872,1750.069547424995,0.5400598380074371,0.7821944960160181,,,,,,,,,,,,,114,001,18,0,2020_Feb_05_1300,Test,3.2.4,59.83743676420218,
Pictures/IA100_G40.bmp,Pictures/IA100_G40.bmp,Pictures/IA100.bmp,"

"Try your luck and gamble!"",1,risk,,,,,3,0,3,0,0,5,5,16,,,,,,,,,,,,,,,,,,,,,,,,,,,,,,,1750.0862514009932,None,1752.1082588759891,1753.6289400100068,1753.6122430480027,None,1755.1496252559882,None,2,1757.138221959991,None,1757.138221959991,None,1757.138221959991,None,None,None,None,None,1758.190998125996,None,1758.190998125996,None,left,1758.190998125996,None,1758.4583742049872,1760.1962979999953,None,None,0.8609385369927622,0.23214443598408252,,,,,,,,,,,,,114,001,18,0,2020_Feb_05_1300,Test,3.2.4,59.83743676420218,
Pictures/IA110_55_G95p.bmp,Pictures/IA110_55_G95p.bmp,Pictures/IA110.bmp,"

"Take a chance!"",1,risk,,,,,3,0,3,0,0,6,6,15,,,,,,,,,,,,,,,,,,,,,,,,,,,,,,,1760.2130024590006,None,1762.2350111409905,1763.7556898180046,1763.738995969994,None,1765.2429555330018,None,1,1767.264974343998,None,1767.264974343998,None,1767.264974343998,None,1768.6853809489985,None,1768.6853809489985,1769.6880258389865,1770.7909438719798,None,1770.7909438719798,None,left,1770.7909438719798,None,1771.4760827239952,1772.7795361619792,None,None,1.33417938099592,0.6482010999752674,,,,,,,,,,,,,114,001,18,0,2020_Feb_05_1300,Test,3.2.4,59.83743676420218,
Pictures/IA75_L15.bmp,Pictures/IA75_L15.bmp,Pictures/IA75.bmp,"

"Trust me–gamble!"",1,risk,,,,,3,0,3,0,0,7,7,14,,,,,,,,,,,,,,,,,,,,,,,,,,,,,,,1772.7962402609992,None,1774.8182485470024,1776.3389279149997,1776.3222324269882,None,1777.8261926019914,None,1,1779.8482110319892,None,1779.8482110319892,None,1779.8482110319892,None,1781.1015233479848,None,1781.1015233479848,1782.1041706789983,1783.2070849500014,None,1783.2070849500014,None,right,1783.2070849500014,None,None,None,1784.9449997739866,None,1.150948688009521,1.6880683049967047,,,,,,,,,,,,,114,001,18,0,2020_Feb_05_1300,Test,3.2.4,59.83743676420218,
Pictures/IA20_10_L95p.bmp,Pictures/IA20_10_L95p.bmp,Pictures/IA20.bmp,"

"Don't be tempted to gamble."",0,safe,,,,,3,0,3,0,0,8,8,5,,,,,,,,,,,,,,,,,,,,,,,,,,,,,,,1785.229089030996,None,1787.2511039139936,1788.7717796239886,1788.7550616659864,None,1790.2757541789906,None,2,1792.2810608299915,None,1792.2810608299915,None,1792.2810608299915,None,None,None,None,None,1794.7876755000034,None,1794.7876755000034,None,right,1794.7876755000034,None,None,None,1796.2749341589806,None,2.310099005000666,1.443476604996249,,,,,,,,,,,,,114,001,18,0,2020_Feb_05_1300,Test,3.2.4,59.83743676420218,
Pictures/IA75_G15.bmp,Pictures/IA75_G15.bmp,Pictures/IA75.bmp,"

"Take a chance!"",1,risk,,,,,3,0,3,0,0,9,9,8,,,,,,,,,,,,,,,,,,,,,,,,,,,,,,,1796.7929731269833,None,1798.814978557988,1800.3356653449882,1800.3189463960007,None,1801.8396363719949,None,1,1803.8449341449887,None,1803.8449341449887,None,1803.8449341449887,None,1805.4993176090065,None,1805.4993176090065,1806.501950004982,1807.6215753029974,None,1807.6215753029974,None,right,1807.6215753029974,None,None,None,1808.0059199990064,1809.6101587869925,1.5702356149849948,0.3375893790216651,,,,,,,,,,,,,114,001,18,0,2020_Feb_05_1300,Test,3.2.4,59.83743676420218,
Pictures/IA25_L10.bmp,Pictures/IA25_L10.bmp,Pictures/IA25.bmp,"

"Dont be afraid to take the risk!"",1,risk,,,,,3,0,3,0,0,10,10,2,,,,,,,,,,,,,,,,,,,,,,,,,,,,,,,1809.6268622429925,None,1811.6488687169913,1813.169551747007,1813.1528540489962,None,1814.656815484981,None,1,1816.6788352830044,None,1816.6788352830044,None,1816.6788352830044,None,1817.9154268149869,None,1817.9154268149869,1818.9180681519792,1820.0376994389808,None,1820.0376994389808,None,right,1820.0376994389808,None,None,None,1820.355200616992,1822.0262793230067,1.1203313949808944,0.2814693180262111,,,,,,,,,,,,,114,001,18,0,2020_Feb_05_1300,Test,3.2.4,59.83743676420218,
Pictures/IA50_L30.bmp,Pictures/IA50_L30.bmp,Pictures/IA50.bmp,"

"Take a leap, I think you should gamble."",1,risk,,,,,3,0,3,0,0,11,11,6,,,,,,,,,,,,,,,,,,,,,,,,,,,,,,,1822.043000790989,None,1824.0650107739784,1825.5856929399888,1825.5689763669798,None,1827.1063828159822,None,1,1829.0949554789986,None,1829.0949554789986,None,1829.0949554789986,None,1830.2647221359948,None,1830.2647221359948,1831.267370246991,1832.3702859859914,None,1832.3702859859914,None,right,1832.3702859859914,None,None,None,1832.8715949179896,1834.3755689709797,1.0242057559953537,0.4608399599965196,,,,,,,,,,,,,114,001,18,0,2020_Feb_05_1300,Test,3.2.4,59.83743676420218,
Pictures/IA100_L20.bmp,Pictures/IA100_L20.bmp,Pictures/IA100.bmp,"

"Try to win as much money as you can, gamble!"",1,risk,,,,,3,0,3,0,0,12,12,3,,,,,,,,,,,,,,,,,,,,,,,,,,,,,,,1834.392289335985,None,1836.4143277450057,1837.9349803609948,1837.9182702839898,None,1839.455667053,None,2,1841.4442444400047,None,1841.4442444400047,None,1841.4442444400047,None,None,None,None,None,1842.4301852390054,None,1842.4301852390054,None,right,1842.4301852390054,None,None,None,1843.2991525779944,1844.4354808479839,0.802917205990525,0.8329526350134984,,,,,,,,,,,,,114,001,18,0,2020_Feb_05_1300,Test,3.2.4,59.83743676420218,
Pictures/IA100_L40.bmp,Pictures/IA100_L40.bmp,Pictures/IA100.bmp,"

"Think of the payoff, gamble!"",1,risk,,,,,3,0,3,0,0,13,13,10,,,,,,,,,,,,,,,,,,,,,,,,,,,,,,,1844.4521980199788,None,1846.4742064599996,1847.9948920199822,1847.978134887002,None,1849.4988268929883,None,2,1851.5041695649852,None,1851.5041695649852,None,1851.5041695649852,None,None,None,None,None,1852.5903655949805,None,1852.5903655949805,None,right,1852.5903655949805,None,None,None,1852.790881798981,1854.5956501670007,0.9189901819918305,0.15278658899478614,,,,,,,,,,,,,114,001,18,0,2020_Feb_05_1300,Test,3.2.4,59.83743676420218,
Pictures/IA25_L5.bmp,Pictures/IA25_L5.bmp,Pictures/IA25.bmp,"

"It would be smarter to choose the safe option."",0,safe,,,,,3,0,3,0,0,14,14,1,,,,,,,,,,,,,,,,,,,,,,,,,,,,,,,1854.6123739350005,None,1856.634379606985,1858.1550640710047,1858.1383480209915,None,1859.675746947003,None,2,1861.6643315569963,None,1861.6643315569963,None,1861.6643315569963,None,None,None,None,None,1863.0179123949783,None,1863.0179123949783,None,left,1863.0179123949783,None,1863.4523790139938,1865.0232001959812,None,None,1.1588190670008771,0.3972567729942966,,,,,,,,,,,,,114,001,18,0,2020_Feb_05_1300,Test,3.2.4,59.83743676420218,
Pictures/IA100_G60.bmp,Pictures/IA100_G60.bmp,Pictures/IA100.bmp,"

"Be cautious, don't gamble for this one."",0,safe,,,,,3,0,3,0,0,15,15,18,,,,,,,,,,,,,,,,,,,,,,,,,,,,,,,1865.0399143270042,None,1867.0619257759827,1868.5826118809928,1868.5658913259977,None,1870.103295718989,None,2,1872.0918759169872,None,1872.0918759169872,None,1872.0918759169872,None,None,None,None,None,1874.7990322900005,None,1874.7990322900005,None,left,1874.7990322900005,None,1875.166655923007,1876.8043258310063,None,None,2.5312882059952244,0.32811986800516024,,,,,,,,,,,,,114,001,18,0,2020_Feb_05_1300,Test,3.2.4,59.83743676420218,
Pictures/IA40_20_G95p.bmp,Pictures/IA40_20_G95p.bmp,Pictures/IA40.bmp,"

"Hold back, stay with the safe choice."",0,safe,,,,,3,0,3,0,0,16,16,12,,,,,,,,,,,,,,,,,,,,,,,,,,,,,,,1876.8210263029905,None,1878.8430364980013,1880.3637198059878,1880.3470245210046,None,1881.8844117169792,None,2,1883.8730041229865,None,1883.8730041229865,None,1883.8730041229865,None,None,None,None,None,1884.9592353139888,None,1884.9592353139888,None,left,1884.9592353139888,None,1885.8782997119997,1886.9477882419887,None,None,0.9101569710182957,0.8798775750037748,,,,,,,,,,,,,114,001,18,0,2020_Feb_05_1300,Test,3.2.4,59.83743676420218,
Pictures/IA50_G30.bmp,Pictures/IA50_G30.bmp,Pictures/IA50.bmp,"

"I think you should gamble."",1,risk,,,,,3,0,3,0,0,17,17,0,,,,,,,,,,,,,,,,,,,,,,,,,,,,,,,1886.9644918179838,None,1888.9864987339824,1890.5071809630026,1890.490488067997,None,1892.0278674589936,None,2,1894.0164662669995,None,1894.0164662669995,None,1894.0164662669995,None,None,None,None,None,1896.8405928949942,None,1896.8405928949942,None,right,1896.8405928949942,None,None,None,1897.1413697249955,1898.8458843620028,2.6546836190100294,0.2625589430099353,,,,,,,,,,,,,114,001,18,0,2020_Feb_05_1300,Test,3.2.4,59.83743676420218,
Pictures/IA75_L60.bmp,Pictures/IA75_L60.bmp,Pictures/IA75.bmp,"

"Why not take the gamble?"",1,risk,,,,,3,0,3,0,0,18,18,13,,,,,,,,,,,,,,,,,,,,,,,,,,,,,,,1898.8625879719912,None,1900.884596450982,1902.3885793460067,1902.3718628560018,None,1903.925966409006,None,1,1905.9145645709941,None,1905.9145645709941,None,1905.9145645709941,None,1906.633121013001,None,1906.633121013001,1907.6357605810044,1908.7386849850009,None,1908.7386849850009,None,right,1908.7386849850009,None,None,None,1910.0254087699868,None,0.5965947500080802,1.2444675579899922,,,,,,,,,,,,,114,001,18,0,2020_Feb_05_1300,Test,3.2.4,59.83743676420218,
Pictures/IA50_L10.bmp,Pictures/IA50_L10.bmp,Pictures/IA50.bmp,"

"Play it safe, don’t gamble!"",0,safe,,,,,3,0,3,0,0,19,19,17,,,,,,,,,,,,,,,,,,,,,,,,,,,,,,,1910.7439780099958,None,1912.7659831559868,1914.2699654729804,1914.2532518740045,None,1915.7906413780001,None,2,1917.7959405439906,None,1917.7959405439906,None,1917.7959405439906,None,None,None,None,None,1918.4643880979856,None,1918.4643880979856,None,right,1918.4643880979856,None,None,None,1918.5646345739951,1920.4696760450024,0.4912262999860104,0.0547760650224518,,,,,,,,,,,,,114,001,18,0,2020_Feb_05_1300,Test,3.2.4,59.83743676420218,
,,,,,,,,,,3,0,3,0,,,,,,,,,,,,,,,,,,,,,,,,,,,,,,,,,,,,,,,,,,,,,,,,,,,,,,,,,,,,,,,,,,,,,,,,,1920.6367835039855,None,return,9.554352267005015,1920.6367835039855,None,114,001,18,0,2020_Feb_05_1300,Test,3.2.4,59.83743676420218,
Pictures/IA100_G60.bmp,Pictures/IA100_G60.bmp,Pictures/IA100.bmp,"

"Be cautious, don't gamble for this one."",0,safe,,,,,4,0,4,0,0,0,0,14,,,,,,,,,,,,,1930.3457659010019,None,1930.3457659010019,None,1930.3457659010019,None,left,2.133377324003959,1930.3457659010019,None,1930.3457659010019,None,1930.3457659010019,None,return,3.205163231003098,1930.3457659010019,None,1933.604363024002,None,1935.6096736489853,1937.1303561999812,1937.1136428089812,None,1938.6009025319945,None,None,1940.6396307859977,None,1940.6396307859977,None,1940.6396307859977,None,None,None,None,None,1943.7311318279826,None,1943.7311318279826,None,right,1943.7311318279826,None,None,None,1945.636151675979,None,,1.8680137790215667,,,,,,,,,,,,,114,001,18,0,2020_Feb_05_1300,Test,3.2.4,59.83743676420218,
Pictures/IA75_G60.bmp,Pictures/IA75_G60.bmp,Pictures/IA75.bmp,"

"Make it exciting, take a chance!"",1,risk,,,,,4,0,4,0,0,1,1,16,,,,,,,,,,,,,,,,,,,,,,,,,,,,,,,1945.7531293889915,None,1947.7751340419927,1949.2958169909834,1949.2791209679854,None,1950.8165041949833,None,2,1952.8051021400024,None,1952.8051021400024,None,1952.8051021400024,None,None,None,None,None,1953.0891864720033,None,1953.0891864720033,None,right,1953.0891864720033,None,None,None,1953.6740614720038,1955.0777679489984,0.11405004400876351,0.5419671950221527,,,,,,,,,,,,,114,001,18,0,2020_Feb_05_1300,Test,3.2.4,59.83743676420218,
Pictures/IA25_G20.bmp,Pictures/IA25_G20.bmp,Pictures/IA25.bmp,"

"I wouldn't gamble for this one. "",0,safe,,,,,4,0,4,0,0,2,2,15,,,,,,,,,,,,,,,,,,,,,,,,,,,,,,,1955.0944695729995,None,1957.1164814119984,1958.6371618109988,1958.6204633739835,None,1960.157845299982,None,1,1962.1464467670012,None,1962.1464467670012,None,1962.1464467670012,None,1963.149096137,None,1963.149096137,1964.151738785993,1965.2546690430027,None,1965.2546690430027,None,right,1965.2546690430027,None,None,None,1966.4244007600064,None,0.8767329060065094,1.128476263023913,,,,,,,,,,,,,114,001,18,0,2020_Feb_05_1300,Test,3.2.4,59.83743676420218,
Pictures/IA75_L30.bmp,Pictures/IA75_L30.bmp,Pictures/IA75.bmp,"

"Hold back, stay with the safe choice."",0,safe,,,,,4,0,4,0,0,3,3,1,,,,,,,,,,,,,,,,,,,,,,,,,,,,,,,1967.276650950982,None,1969.2986607979983,1970.8193437620066,1970.8026469709876,None,1972.356746039004,None,2,1974.3286205549957,None,1974.3286205549957,None,1974.3286205549957,None,None,None,None,None,1975.4148234269815,None,1975.4148234269815,None,left,1975.4148234269815,None,1975.9161532029975,1977.4201127099805,None,None,0.9025464180158451,0.46432422098587267,,,,,,,,,,,,,114,001,18,0,2020_Feb_05_1300,Test,3.2.4,59.83743676420218,
Pictures/IA100_G20.bmp,Pictures/IA100_G20.bmp,Pictures/IA100.bmp,"

"Go ahead and gamble!"",1,risk,,,,,4,0,4,0,0,4,4,19,,,,,,,,,,,,,,,,,,,,,,,,,,,,,,,1977.4368373609905,None,1979.4588454369805,1980.9795307589811,1980.9628181649896,None,1982.500215342996,None,2,1984.4888085729908,None,1984.4888085729908,None,1984.4888085729908,None,None,None,None,None,1985.4580299920053,None,1985.4580299920053,None,right,1985.4580299920053,None,None,None,1985.8423813459813,1987.4466131539957,0.7903520399995614,0.34112236197688617,,,,,,,,,,,,,114,001,18,0,2020_Feb_05_1300,Test,3.2.4,59.83743676420218,
Pictures/IA20_10_L95p.bmp,Pictures/IA20_10_L95p.bmp,Pictures/IA20.bmp,"

"Don't be tempted to gamble."",0,safe,,,,,4,0,4,0,0,5,5,5,,,,,,,,,,,,,,,,,,,,,,,,,,,,,,,1987.463313966,None,1989.485324062989,1991.006004928,1990.9893104459916,None,1992.5266963350005,None,2,1994.5152918990061,None,1994.5152918990061,None,1994.5152918990061,None,None,None,None,None,1996.0861035480048,None,1996.0861035480048,None,left,1996.0861035480048,None,1996.437020140991,1998.0746906919812,None,None,1.3878690809942782,0.3050610550271813,,,,,,,,,,,,,114,001,18,0,2020_Feb_05_1300,Test,3.2.4,59.83743676420218,
Pictures/IA75_G45.bmp,Pictures/IA75_G45.bmp,Pictures/IA75.bmp,"

"Don't gamble for this one."",0,safe,,,,,4,0,4,0,0,6,6,12,,,,,,,,,,,,,,,,,,,,,,,,,,,,,,,1998.0913983139908,None,2000.113406689983,2001.6340837049938,2001.617387492006,None,2003.1547687819984,None,2,2005.143369731988,None,2005.143369731988,None,2005.143369731988,None,None,None,None,None,2005.7783817010059,None,2005.7783817010059,None,right,2005.7783817010059,None,None,None,2006.2295682669792,2007.7836611149833,0.4797905260056723,0.4127722239936702,,,,,,,,,,,,,114,001,18,0,2020_Feb_05_1300,Test,3.2.4,59.83743676420218,
Pictures/IA25_L10.bmp,Pictures/IA25_L10.bmp,Pictures/IA25.bmp,"

"Dont be afraid to take the risk!"",1,risk,,,,,4,0,4,0,0,7,7,6,,,,,,,,,,,,,,,,,,,,,,,,,,,,,,,2007.80038457099,None,2009.8223941659962,2011.343076094985,2011.3263591279974,None,2012.863766369992,None,1,2014.852340538986,None,2014.852340538986,None,2014.852340538986,None,2016.2059783180011,None,2016.2059783180011,2017.2086490140064,2018.32822923598,None,2018.32822923598,None,right,2018.32822923598,None,None,None,2019.013361825986,2020.333510394994,1.226830642001005,0.6389089229924139,,,,,,,,,,,,,114,001,18,0,2020_Feb_05_1300,Test,3.2.4,59.83743676420218,
Pictures/IA75_L60.bmp,Pictures/IA75_L60.bmp,Pictures/IA75.bmp,"

"Why not take the gamble?"",1,risk,,,,,4,0,4,0,0,8,8,0,,,,,,,,,,,,,,,,,,,,,,,,,,,,,,,2020.3502330589981,None,2022.3722162249906,2023.8761824959947,2023.8594823929889,None,2025.3968734020018,None,2,2027.4021793149877,None,2027.4021793149877,None,2027.4021793149877,None,None,None,None,None,2028.2711363330018,None,2028.2711363330018,None,right,2028.2711363330018,None,None,None,2028.6053386879794,2030.2764177350036,0.7169803179858718,0.29601115398691036,,,,,,,,,,,,,114,001,18,0,2020_Feb_05_1300,Test,3.2.4,59.83743676420218,
Pictures/IA20_10_G95p.bmp,Pictures/IA20_10_G95p.bmp,Pictures/IA20.bmp,"

"Take a leap, I think you should gamble."",1,risk,,,,,4,0,4,0,0,9,9,13,,,,,,,,,,,,,,,,,,,,,,,,,,,,,,,2030.2931376929919,None,2032.3151608709886,2033.8358298130042,2033.81911734998,None,2035.3731927849876,None,2,2037.345109204005,None,2037.345109204005,None,2037.345109204005,None,None,None,None,None,2038.8657947350002,None,2038.8657947350002,None,left,2038.8657947350002,None,2040.1692208829918,None,None,None,1.3420596710056998,1.2613577809825074,,,,,,,,,,,,,114,001,18,0,2020_Feb_05_1300,Test,3.2.4,59.83743676420218,
Pictures/IA50_G10.bmp,Pictures/IA50_G10.bmp,Pictures/IA50.bmp,"

"Go with the safe option here!"",0,safe,,,,,4,0,4,0,0,10,10,11,,,,,,,,,,,,,,,,,,,,,,,,,,,,,,,2040.88778597099,None,2042.9097962339874,2044.430476479989,2044.4137816870061,None,2045.9511725629854,None,1,2047.9397624720004,None,2047.9397624720004,None,2047.9397624720004,None,2048.808720091998,None,2048.808720091998,2049.8113581189828,2050.914279641991,None,2050.914279641991,None,left,2050.914279641991,None,2052.1007429779856,None,None,None,0.7554026390134823,1.1408711429976393,,,,,,,,,,,,,114,001,18,0,2020_Feb_05_1300,Test,3.2.4,59.83743676420218,
Pictures/IA50_L30.bmp,Pictures/IA50_L30.bmp,Pictures/IA50.bmp,"

"Take a leap, I think you should gamble."",1,risk,,,,,4,0,4,0,0,11,11,4,,,,,,,,,,,,,,,,,,,,,,,,,,,,,,,2052.9195809169905,None,2054.941590506991,2056.4622724799847,2056.4455610300065,None,2057.949539253983,None,1,2059.971539288992,None,2059.971539288992,None,2059.971539288992,None,2060.907353054994,None,2060.907353054994,2061.9099965799833,2063.029629313998,None,2063.029629313998,None,right,2063.029629313998,None,None,None,2063.597782097,2065.0182133409835,0.7956157459993847,0.5215244189894293,,,,,,,,,,,,,114,001,18,0,2020_Feb_05_1300,Test,3.2.4,59.83743676420218,
Pictures/IA40_20_L95p.bmp,Pictures/IA40_20_L95p.bmp,Pictures/IA40.bmp,"

"Trust me, gamble!"",1,risk,,,,,4,0,4,0,0,12,12,17,,,,,,,,,,,,,,,,,,,,,,,,,,,,,,,2065.034912481002,None,2067.0569213599956,2068.577609480999,2068.560907623003,None,2070.0982928089797,None,2,2072.0868950999866,None,2072.0868950999866,None,2072.0868950999866,None,None,None,None,None,2073.1229632750037,None,2073.1229632750037,None,right,2073.1229632750037,None,None,None,2073.4905855729885,2075.1115439199784,0.880274155002553,0.32418649600003846,,,,,,,,,,,,,114,001,18,0,2020_Feb_05_1300,Test,3.2.4,59.83743676420218,
Pictures/IA25_L15.bmp,Pictures/IA25_L15.bmp,Pictures/IA25.bmp,"

"There's not much on the line here, gamble!"",1,risk,,,,,4,0,4,0,0,13,13,10,,,,,,,,,,,,,,,,,,,,,,,,,,,,,,,2075.128245903994,None,2077.15025428799,2078.6709366079886,2078.6542416209995,None,2080.1916243919986,None,1,2082.1802203849948,None,2082.1802203849948,None,2082.1802203849948,None,2083.032471855986,None,2083.032471855986,2084.0351255610003,2085.1380374979926,None,2085.1380374979926,None,right,2085.1380374979926,None,None,None,2085.9401412769803,2087.143322996999,0.7069417180027813,0.7651076490001287,,,,,,,,,,,,,114,001,18,0,2020_Feb_05_1300,Test,3.2.4,59.83743676420218,
Pictures/IA80_40_L95p.bmp,Pictures/IA80_40_L95p.bmp,Pictures/IA80.bmp,"

"Let's stay with the certain option."",0,safe,,,,,4,0,4,0,0,14,14,7,,,,,,,,,,,,,,,,,,,,,,,,,,,,,,,2087.1600423599884,None,2089.18205028199,2090.7027336549945,2090.6860158490017,None,2092.223423474992,None,2,2094.211998165003,None,2094.211998165003,None,2094.211998165003,None,None,None,None,None,2095.298210857989,None,2095.298210857989,None,right,2095.298210857989,None,None,None,2095.431896605005,2097.303504481999,0.9071651330159511,0.0849469329987187,,,,,,,,,,,,,114,001,18,0,2020_Feb_05_1300,Test,3.2.4,59.83743676420218,
Pictures/IA25_G15.bmp,Pictures/IA25_G15.bmp,Pictures/IA25.bmp,"

"I think you should take a gamble."",1,risk,,,,,4,0,4,0,0,15,15,3,,,,,,,,,,,,,,,,,,,,,,,,,,,,,,,2097.320206304983,None,2099.3422166949895,2100.8628985359974,2100.846205904003,None,2102.3835870869807,None,1,2104.3721847409906,None,2104.3721847409906,None,2104.3721847409906,None,2105.5252203609853,None,2105.5252203609853,2106.527864030999,2107.647495577985,None,2107.647495577985,None,right,2107.647495577985,None,None,None,2108.249091495003,2109.6528029829788,1.0349681120133027,0.5516493869945407,,,,,,,,,,,,,114,001,18,0,2020_Feb_05_1300,Test,3.2.4,59.83743676420218,
Pictures/IA75_L45.bmp,Pictures/IA75_L45.bmp,Pictures/IA75.bmp,"

"Don't gamble for this one, play it safe."",0,safe,,,,,4,0,4,0,0,16,16,8,,,,,,,,,,,,,,,,,,,,,,,,,,,,,,,2109.6694993239944,None,2111.691510765988,2113.212192846986,2113.195457865979,None,2114.7328790969914,None,1,2116.7214667210064,None,2116.7214667210064,None,2116.7214667210064,None,2117.623862723005,None,2117.623862723005,2118.6264996539976,2119.76283594899,None,2119.76283594899,None,left,2119.76283594899,None,2120.9326001539885,None,None,None,0.7656922210007906,1.1243134280084632,,,,,,,,,,,,,114,001,18,0,2020_Feb_05_1300,Test,3.2.4,59.83743676420218,
Pictures/IA100_G40.bmp,Pictures/IA100_G40.bmp,Pictures/IA100.bmp,"

"Try your luck and gamble!"",1,risk,,,,,4,0,4,0,0,17,17,9,,,,,,,,,,,,,,,,,,,,,,,,,,,,,,,2121.784852433979,None,2123.806861377001,2125.3275430009817,2125.310830055998,None,2126.848231626005,None,1,2128.836809706001,None,2128.836809706001,None,2128.836809706001,None,2129.638937819982,None,2129.638937819982,2130.6415832009807,2131.7612144059967,None,2131.7612144059967,None,left,2131.7612144059967,None,2133.415580292989,None,None,None,0.6903499949839897,1.6139327569981106,,,,,,,,,,,,,114,001,18,0,2020_Feb_05_1300,Test,3.2.4,59.83743676420218,
Pictures/IA50_G40.bmp,Pictures/IA50_G40.bmp,Pictures/IA50.bmp,"

"It would probably be best to play it safe."",0,safe,,,,,4,0,4,0,0,18,18,18,,,,,,,,,,,,,,,,,,,,,,,,,,,,,,,2133.766495783988,None,2135.7885054869985,2137.309192004992,2137.292496214999,None,2138.829878218996,None,2,2140.8184784360055,None,2140.8184784360055,None,2140.8184784360055,None,None,None,None,None,2141.570460004994,None,2141.570460004994,None,right,2141.570460004994,None,None,None,2141.971516294987,2143.5757434979896,0.5406812250148505,0.3566920179873705,,,,,,,,,,,,,114,001,18,0,2020_Feb_05_1300,Test,3.2.4,59.83743676420218,
Pictures/IA50_G30.bmp,Pictures/IA50_G30.bmp,Pictures/IA50.bmp,"

"I think you should gamble."",1,risk,,,,,4,0,4,0,0,19,19,2,,,,,,,,,,,,,,,,,,,,,,,,,,,,,,,2143.5924699949974,None,2145.6144749119994,2147.135158585006,2147.118442448991,None,2148.622422119981,None,1,2150.6444247179898,None,2150.6444247179898,None,2150.6444247179898,None,2151.814178835979,None,2151.814178835979,2152.8168235189805,2153.9197427920008,None,2153.9197427920008,None,right,2153.9197427920008,None,None,None,2154.7051492729806,2155.9083253699937,1.0427346130018122,1.5033958980056923,,,,,,,,,,,,,114,001,18,0,2020_Feb_05_1300,Test,3.2.4,59.83743676420218,
,,,,,,,,,,4,0,4,0,,,,,,,,,,,,,,,,,,,,,,,,,,,,,,,,,,,,,,,,,,,,,,,,,,,,,,,,,,,,,,,,,,,,,,,,,2156.075449508993,None,return,14.963693491008598,2156.075449508993,None,114,001,18,0,2020_Feb_05_1300,Test,3.2.4,59.83743676420218,
Pictures/IA20_10_G95p.bmp,Pictures/IA20_10_G95p.bmp,Pictures/IA20.bmp,"

"Take a leap, I think you should gamble."",1,risk,,,,,5,0,5,0,0,0,0,19,,,,,,,,,,,,,2171.1987280650064,None,2171.1987280650064,None,2171.1987280650064,None,left,1.4004243359959219,2171.1987280650064,None,2171.1987280650064,None,2171.1987280650064,None,return,2.0481994209985714,2171.1987280650064,None,2173.30428902898,None,2175.309594680002,2176.8302794869815,2176.8135595579806,None,2178.3008212699788,None,1,2180.3228433589975,None,2180.3228433589975,None,2180.3228433589975,None,2181.0246857919847,None,2181.0246857919847,2182.027330448007,2183.130250713002,None,2183.130250713002,None,left,2183.130250713002,None,2184.717775328987,None,None,None,0.5643058830173686,1.548905396979535,,,,,,,,,,,,,114,001,18,0,2020_Feb_05_1300,Test,3.2.4,59.83743676420218,
Pictures/IA20_10_L95p.bmp,Pictures/IA20_10_L95p.bmp,Pictures/IA20.bmp,"

"Don't be tempted to gamble."",0,safe,,,,,5,0,5,0,0,1,1,7,,,,,,,,,,,,,,,,,,,,,,,,,,,,,,,2185.1355551999877,None,2187.157571513002,2188.678246836993,2188.661530045996,None,2190.1655132699816,None,2,2192.1875143529905,None,2192.1875143529905,None,2192.1875143529905,None,None,None,None,None,2192.839345160988,None,2192.839345160988,None,right,2192.839345160988,None,None,None,2192.906074454979,2194.844539179001,0.4996424959972501,0.02376947400625795,,,,,,,,,,,,,114,001,18,0,2020_Feb_05_1300,Test,3.2.4,59.83743676420218,
Pictures/IA25_L5.bmp,Pictures/IA25_L5.bmp,Pictures/IA25.bmp,"

"It would be smarter to choose the safe option."",0,safe,,,,,5,0,5,0,0,2,2,0,,,,,,,,,,,,,,,,,,,,,,,,,,,,,,,2194.861244500993,None,2196.8832490450004,2198.403932518995,2198.387237422983,None,2199.924617312994,None,2,2201.9132248410024,None,2201.9132248410024,None,2201.9132248410024,None,None,None,None,None,2202.5983633029973,None,2202.5983633029973,None,right,2202.5983633029973,None,None,None,2202.7153345859842,2204.6036456889997,0.5179323480115272,0.07278938198578544,,,,,,,,,,,,,114,001,18,0,2020_Feb_05_1300,Test,3.2.4,59.83743676420218,
Pictures/IA75_G45.bmp,Pictures/IA75_G45.bmp,Pictures/IA75.bmp,"

"Don't gamble for this one."",0,safe,,,,,5,0,5,0,0,3,3,1,,,,,,,,,,,,,,,,,,,,,,,,,,,,,,,2204.620367052994,None,2206.6423826559912,2208.163061250001,2208.1463420839864,None,2209.6503264399944,None,2,2211.672325397987,None,2211.672325397987,None,2211.672325397987,None,None,None,None,None,2212.2572132500063,None,2212.2572132500063,None,left,2212.2572132500063,None,2212.3407639279903,2214.2457893009996,None,None,0.43083703200682066,0.04593066399684176,,,,,,,,,,,,,114,001,18,0,2020_Feb_05_1300,Test,3.2.4,59.83743676420218,
Pictures/IA40_20_G95p.bmp,Pictures/IA40_20_G95p.bmp,Pictures/IA40.bmp,"

"Hold back, stay with the safe choice."",0,safe,,,,,5,0,5,0,0,4,4,2,,,,,,,,,,,,,,,,,,,,,,,,,,,,,,,2214.262507162988,None,2216.284520578978,2217.8052015889843,2217.788484981982,None,2219.309178155003,None,2,2221.3144794529944,None,2221.3144794529944,None,2221.3144794529944,None,None,None,None,None,2222.751611435,None,2222.751611435,None,left,2222.751611435,None,2224.6065251429973,None,None,None,1.2446900449867826,1.8155444329895545,,,,,,,,,,,,,114,001,18,0,2020_Feb_05_1300,Test,3.2.4,59.83743676420218,
Pictures/IA50_G10.bmp,Pictures/IA50_G10.bmp,Pictures/IA50.bmp,"

"Go with the safe option here!"",0,safe,,,,,5,0,5,0,0,5,5,16,,,,,,,,,,,,,,,,,,,,,,,,,,,,,,,2224.7568949879787,None,2226.778901960992,2228.2995845800033,2228.2828880549932,None,2229.820271929988,None,2,2231.8088719319785,None,2231.8088719319785,None,2231.8088719319785,None,None,None,None,None,2232.460592835996,None,2232.460592835996,None,right,2232.460592835996,None,None,None,2233.0120460589824,2234.4491771769826,0.4702913379878737,0.5065758860146161,,,,,,,,,,,,,114,001,18,0,2020_Feb_05_1300,Test,3.2.4,59.83743676420218,
Pictures/IA25_G15.bmp,Pictures/IA25_G15.bmp,Pictures/IA25.bmp,"

"I think you should take a gamble."",1,risk,,,,,5,0,5,0,0,6,6,8,,,,,,,,,,,,,,,,,,,,,,,,,,,,,,,2234.465875805996,None,2236.487888823991,2238.008569127007,2237.9918746009935,None,2239.4958363969927,None,2,2241.517845158989,None,2241.517845158989,None,2241.517845158989,None,None,None,None,None,2242.136144352,None,2242.136144352,None,right,2242.136144352,None,None,None,2242.403524662979,2244.1414413419843,0.44132748001720756,0.22299915700568818,,,,,,,,,,,,,114,001,18,0,2020_Feb_05_1300,Test,3.2.4,59.83743676420218,
Pictures/IA80_40_L95p.bmp,Pictures/IA80_40_L95p.bmp,Pictures/IA80.bmp,"

"Let's stay with the certain option."",0,safe,,,,,5,0,5,0,0,7,7,5,,,,,,,,,,,,,,,,,,,,,,,,,,,,,,,2244.158131506003,None,2246.1801709790016,2247.700853549002,2247.6841415749805,None,2249.188118431979,None,2,2251.210119475989,None,2251.210119475989,None,2251.210119475989,None,None,None,None,None,2251.644612104981,None,2251.644612104981,None,right,2251.644612104981,None,None,None,2251.744862599997,2253.649904621998,0.26103452799725346,0.06654292598250322,,,,,,,,,,,,,114,001,18,0,2020_Feb_05_1300,Test,3.2.4,59.83743676420218,
Pictures/IA75_L15.bmp,Pictures/IA75_L15.bmp,Pictures/IA75.bmp,"

"Trust me–gamble!"",1,risk,,,,,5,0,5,0,0,8,8,6,,,,,,,,,,,,,,,,,,,,,,,,,,,,,,,2253.6666059699783,None,2255.6886181439913,2257.2093032340053,2257.192601513001,None,2258.7299897249904,None,2,2260.718584905,None,2260.718584905,None,2260.718584905,None,None,None,None,None,2261.6878123019997,None,2261.6878123019997,None,right,2261.6878123019997,None,None,None,2262.239266960998,2263.6763847739785,0.7845663439948112,0.5113493989920244,,,,,,,,,,,,,114,001,18,0,2020_Feb_05_1300,Test,3.2.4,59.83743676420218,
Pictures/IA100_L20.bmp,Pictures/IA100_L20.bmp,Pictures/IA100.bmp,"

"Try to win as much money as you can, gamble!"",1,risk,,,,,5,0,5,0,0,9,9,13,,,,,,,,,,,,,,,,,,,,,,,,,,,,,,,2263.693105860002,None,2265.7151153479936,2267.219077549991,2267.202382914984,None,2268.7564886269975,None,2,2270.7450629700033,None,2270.7450629700033,None,2270.7450629700033,None,None,None,None,None,2271.2798261019925,None,2271.2798261019925,None,right,2271.2798261019925,None,None,None,2271.497058549983,2273.2683942120057,0.35810802900232375,0.1753252210037317,,,,,,,,,,,,,114,001,18,0,2020_Feb_05_1300,Test,3.2.4,59.83743676420218,
Pictures/IA25_L15.bmp,Pictures/IA25_L15.bmp,Pictures/IA25.bmp,"

"There's not much on the line here, gamble!"",1,risk,,,,,5,0,5,0,0,10,10,14,,,,,,,,,,,,,,,,,,,,,,,,,,,,,,,2273.285117175983,None,2275.3071239329875,2276.8278336929798,2276.811109664006,None,2278.3150749229826,None,1,2280.3370767830056,None,2280.3370767830056,None,2280.3370767830056,None,2282.843696505006,None,2282.843696505006,2283.8463407569798,2284.949262120994,None,2284.949262120994,None,right,2284.949262120994,None,None,None,2285.417169755994,2286.954579259007,2.3420839899918064,0.42588735901517794,,,,,,,,,,,,,114,001,18,0,2020_Feb_05_1300,Test,3.2.4,59.83743676420218,
Pictures/IA100_L40.bmp,Pictures/IA100_L40.bmp,Pictures/IA100.bmp,"

"Think of the payoff, gamble!"",1,risk,,,,,5,0,5,0,0,11,11,3,,,,,,,,,,,,,,,,,,,,,,,,,,,,,,,2286.971266028995,None,2288.993275201996,2290.5139599950053,2290.4972669309936,None,2292.0346485759947,None,2,2294.023244340002,None,2294.023244340002,None,2294.023244340002,None,None,None,None,None,2294.491145398002,None,2294.491145398002,None,right,2294.491145398002,None,None,None,2294.725087989995,2296.4964407279913,0.3119160420028493,0.19600258299033158,,,,,,,,,,,,,114,001,18,0,2020_Feb_05_1300,Test,3.2.4,59.83743676420218,
Pictures/IA80_40_G95p.bmp,Pictures/IA80_40_G95p.bmp,Pictures/IA80.bmp,"

"Think of the payoff, gamble!"",1,risk,,,,,5,0,5,0,0,12,12,18,,,,,,,,,,,,,,,,,,,,,,,,,,,,,,,2296.5131422450067,None,2298.535150737007,2300.055837130989,2300.039141471003,None,2301.5765185430064,None,2,2303.565122094995,None,2303.565122094995,None,2303.565122094995,None,None,None,None,None,2305.420009914,None,2305.420009914,None,left,2305.420009914,None,2305.7375144579855,2307.4085949419823,None,None,1.738026707986137,0.28314067801693454,,,,,,,,,,,,,114,001,18,0,2020_Feb_05_1300,Test,3.2.4,59.83743676420218,
Pictures/IA25_G10.bmp,Pictures/IA25_G10.bmp,Pictures/IA25.bmp,"

"What's life without a little risk?"",1,risk,,,,,5,0,5,0,0,13,13,9,,,,,,,,,,,,,,,,,,,,,,,,,,,,,,,2307.425314980006,None,2309.447327086993,2310.9680149789783,2310.9513091529952,None,2312.488714543986,None,1,2314.4772766550013,None,2314.4772766550013,None,2314.4772766550013,None,2316.432452274981,None,2316.432452274981,2317.435095135006,2318.538015138998,None,2318.538015138998,None,right,2318.538015138998,None,None,None,2319.9918530730065,None,1.8258849330013618,1.413142699020682,,,,,,,,,,,,,114,001,18,0,2020_Feb_05_1300,Test,3.2.4,59.83743676420218,
Pictures/IA50_L30.bmp,Pictures/IA50_L30.bmp,Pictures/IA50.bmp,"

"Take a leap, I think you should gamble."",1,risk,,,,,5,0,5,0,0,14,14,11,,,,,,,,,,,,,,,,,,,,,,,,,,,,,,,2320.5432966419903,None,2322.5653098420007,2324.0859923629905,2324.0692979909945,None,2325.6066811459896,None,2,2327.5952781359956,None,2327.5952781359956,None,2327.5952781359956,None,None,None,None,None,2328.581218253006,None,2328.581218253006,None,right,2328.581218253006,None,None,None,2328.698188923998,2330.569797246979,0.811880071007181,0.0739269720215816,,,,,,,,,,,,,114,001,18,0,2020_Feb_05_1300,Test,3.2.4,59.83743676420218,
Pictures/IA100_L80.bmp,Pictures/IA100_L80.bmp,Pictures/IA100.bmp,"

"Go all in!"",1,risk,,,,,5,0,5,0,0,15,15,4,,,,,,,,,,,,,,,,,,,,,,,,,,,,,,,2330.586499013996,None,2332.6085117959883,2334.129193867004,2334.1124994209968,None,2335.6331707679783,None,2,2337.6384701039933,None,2337.6384701039933,None,2337.6384701039933,None,None,None,None,None,2338.357032759988,None,2338.357032759988,None,right,2338.357032759988,None,None,None,2338.641115167993,2340.3456294469943,0.5846906819788273,0.2421244739962276,,,,,,,,,,,,,114,001,18,0,2020_Feb_05_1300,Test,3.2.4,59.83743676420218,
Pictures/IA50_L40.bmp,Pictures/IA50_L40.bmp,Pictures/IA50.bmp,"

"That gamble doesn't sound too good, play it safe."",0,safe,,,,,5,0,5,0,0,16,16,12,,,,,,,,,,,,,,,,,,,,,,,,,,,,,,,2340.3623286059883,None,2342.3843409319816,2343.905021277984,2343.8883248259954,None,2345.4090029569925,None,2,2347.4142961549805,None,2347.4142961549805,None,2347.4142961549805,None,None,None,None,None,2348.366830650979,None,2348.366830650979,None,right,2348.366830650979,None,None,None,2348.5339239669847,2350.372119078005,0.760862964001717,0.12831156598986126,,,,,,,,,,,,,114,001,18,0,2020_Feb_05_1300,Test,3.2.4,59.83743676420218,
Pictures/IA100_G40.bmp,Pictures/IA100_G40.bmp,Pictures/IA100.bmp,"

"Try your luck and gamble!"",1,risk,,,,,5,0,5,0,0,17,17,15,,,,,,,,,,,,,,,,,,,,,,,,,,,,,,,2350.3888231210003,None,2352.410828207998,2353.9315132430056,2353.914815430995,None,2355.418778966996,None,1,2357.4407995649963,None,2357.4407995649963,None,2357.4407995649963,None,2359.0450354089844,None,2359.0450354089844,2360.047681352007,2361.184023771988,None,2361.184023771988,None,right,2361.184023771988,None,None,None,2362.186658717983,None,1.4783575950132217,0.9591212869854644,,,,,,,,,,,,,114,001,18,0,2020_Feb_05_1300,Test,3.2.4,59.83743676420218,
Pictures/IA100_G60.bmp,Pictures/IA100_G60.bmp,Pictures/IA100.bmp,"

"Be cautious, don't gamble for this one."",0,safe,,,,,5,0,5,0,0,18,18,17,,,,,,,,,,,,,,,,,,,,,,,,,,,,,,,2363.206027787004,None,2365.2280410520034,2366.748720328993,2366.732003519981,None,2368.252697435004,None,2,2370.2579979029833,None,2370.2579979029833,None,2370.2579979029833,None,None,None,None,None,2371.1269623650005,None,2371.1269623650005,None,left,2371.1269623650005,None,2371.494583466003,2373.1322534909996,None,None,0.6691668179992121,0.32818265599780716,,,,,,,,,,,,,114,001,18,0,2020_Feb_05_1300,Test,3.2.4,59.83743676420218,
Pictures/IA110_55_L95p.bmp,Pictures/IA110_55_L95p.bmp,Pictures/IA110.bmp,"

"Trust me, gamble!"",1,risk,,,,,5,0,5,0,0,19,19,10,,,,,,,,,,,,,,,,,,,,,,,,,,,,,,,2373.148952958989,None,2375.1709639019973,2376.691646377003,2376.674951224006,None,2378.2123353899806,None,2,2380.200939250004,None,2380.200939250004,None,2380.200939250004,None,None,None,None,None,2380.869370917004,None,2380.869370917004,None,right,2380.869370917004,None,None,None,2381.4208205179893,2382.8579392179963,0.5022268510074355,0.5057829760189634,,,,,,,,,,,,,114,001,18,0,2020_Feb_05_1300,Test,3.2.4,59.83743676420218,
,,,,,,,,,,5,0,5,0,,,,,,,,,,,,,,,,,,,,,,,,,,,,,,,,,,,,,,,,,,,,,,,,,,,,,,,,,,,,,,,,,,,,,,,,,2383.0250621580053,None,return,6.6220690709888,2383.0250621580053,None,114,001,18,0,2020_Feb_05_1300,Test,3.2.4,59.83743676420218,
Pictures/IA100_G40.bmp,Pictures/IA100_G40.bmp,Pictures/IA100.bmp,"

"Try your luck and gamble!"",1,risk,,,,,6,0,6,0,0,0,0,15,,,,,,,,,,,,,2389.809657906997,None,2389.809657906997,None,2389.809657906997,None,right,2.861504412983777,2389.809657906997,None,2389.809657906997,None,2389.809657906997,None,return,3.9412690559984185,2389.809657906997,None,2393.803527267999,None,2395.8088357349916,2397.3295185049938,2397.312801438995,None,2398.800066642987,None,1,2400.8220830939827,None,2400.8220830939827,None,2400.8220830939827,None,2402.2759140749986,None,2402.2759140749986,2403.278558705002,2404.3814809790056,None,2404.3814809790056,None,right,2404.3814809790056,None,None,None,2404.698979029985,2406.3700730589917,1.3290878959815018,0.2736658210051246,,,,,,,,,,,,,114,001,18,0,2020_Feb_05_1300,Test,3.2.4,59.83743676420218,
Pictures/IA75_G60.bmp,Pictures/IA75_G60.bmp,Pictures/IA75.bmp,"

"Make it exciting, take a chance!"",1,risk,,,,,6,0,6,0,0,1,1,13,,,,,,,,,,,,,,,,,,,,,,,,,,,,,,,2406.3867826529895,None,2408.408793198003,2409.92947632898,2409.9127608989947,None,2411.4501606709964,None,2,2413.438746258995,None,2413.438746258995,None,2413.438746258995,None,None,None,None,None,2414.2575795750017,None,2414.2575795750017,None,left,2414.2575795750017,None,2414.491518794006,2416.2628770309966,None,None,0.632417938002618,0.18958638299955055,,,,,,,,,,,,,114,001,18,0,2020_Feb_05_1300,Test,3.2.4,59.83743676420218,
Pictures/IA25_G10.bmp,Pictures/IA25_G10.bmp,Pictures/IA25.bmp,"

"What's life without a little risk?"",1,risk,,,,,6,0,6,0,0,2,2,14,,,,,,,,,,,,,,,,,,,,,,,,,,,,,,,2416.27957562299,None,2418.301588304981,2419.822280889988,2419.8055659699894,None,2421.3262574679975,None,2,2423.3315566809906,None,2423.3315566809906,None,2423.3315566809906,None,None,None,None,None,2425.0026279559825,None,2425.0026279559825,None,right,2425.0026279559825,None,None,None,2425.303443107987,2426.9912249670015,1.4995996129873674,0.25252562601235695,,,,,,,,,,,,,114,001,18,0,2020_Feb_05_1300,Test,3.2.4,59.83743676420218,
Pictures/IA110_55_L95p.bmp,Pictures/IA110_55_L95p.bmp,Pictures/IA110.bmp,"

"Trust me, gamble!"",1,risk,,,,,6,0,6,0,0,3,3,1,,,,,,,,,,,,,,,,,,,,,,,,,,,,,,,2427.007922032004,None,2429.029933009995,2430.550616335997,2430.5339203869808,None,2432.0378782369953,None,2,2434.0599025730044,None,2434.0599025730044,None,2434.0599025730044,None,None,None,None,None,2434.4776618329925,None,2434.4776618329925,None,right,2434.4776618329925,None,None,None,2434.577934675006,2436.4829549549904,0.26724970899522305,0.05749255302362144,,,,,,,,,,,,,114,001,18,0,2020_Feb_05_1300,Test,3.2.4,59.83743676420218,
Pictures/IA25_G15.bmp,Pictures/IA25_G15.bmp,Pictures/IA25.bmp,"

"I think you should take a gamble."",1,risk,,,,,6,0,6,0,0,4,4,8,,,,,,,,,,,,,,,,,,,,,,,,,,,,,,,2436.4996758339985,None,2438.521686856984,2440.0423725289875,2440.025657866994,None,2441.5630584189785,None,2,2443.5516401579953,None,2443.5516401579953,None,2443.5516401579953,None,None,None,None,None,2444.855091792997,None,2444.855091792997,None,right,2444.855091792997,None,None,None,2445.924567434995,None,1.13551945600193,1.0240619230025914,,,,,,,,,,,,,114,001,18,0,2020_Feb_05_1300,Test,3.2.4,59.83743676420218,
Pictures/IA50_G30.bmp,Pictures/IA50_G30.bmp,Pictures/IA50.bmp,"

"I think you should gamble."",1,risk,,,,,6,0,6,0,0,5,5,3,,,,,,,,,,,,,,,,,,,,,,,,,,,,,,,2446.8770947849844,None,2448.899110597995,2450.419790454005,2450.4030720709998,None,2451.940476013988,None,2,2453.9290556479828,None,2453.9290556479828,None,2453.9290556479828,None,None,None,None,None,2454.5306436429964,None,2454.5306436429964,None,right,2454.5306436429964,None,None,None,2454.764604928001,2456.535939292982,0.4381078319856897,0.19650602398905903,,,,,,,,,,,,,114,001,18,0,2020_Feb_05_1300,Test,3.2.4,59.83743676420218,
Pictures/IA40_20_L95p.bmp,Pictures/IA40_20_L95p.bmp,Pictures/IA40.bmp,"

"Trust me, gamble!"",1,risk,,,,,6,0,6,0,0,6,6,0,,,,,,,,,,,,,,,,,,,,,,,,,,,,,,,2456.552659267996,None,2458.5746695099806,2460.0953546859964,2460.0786377079785,None,2461.632750713994,None,2,2463.6046302680043,None,2463.6046302680043,None,2463.6046302680043,None,None,None,None,None,2463.8720094809833,None,2463.8720094809833,None,right,2463.8720094809833,None,None,None,2464.189507500996,2465.860587014002,0.07452836600714363,0.2711383099958766,,,,,,,,,,,,,114,001,18,0,2020_Feb_05_1300,Test,3.2.4,59.83743676420218,
Pictures/IA75_L45.bmp,Pictures/IA75_L45.bmp,Pictures/IA75.bmp,"

"Don't gamble for this one, play it safe."",0,safe,,,,,6,0,6,0,0,7,7,6,,,,,,,,,,,,,,,,,,,,,,,,,,,,,,,2465.877287191979,None,2467.899298734992,2469.419983898988,2469.403284968983,None,2470.9406701629923,None,2,2472.9292691760056,None,2472.9292691760056,None,2472.9292691760056,None,None,None,None,None,2474.149157445994,None,2474.149157445994,None,right,2474.149157445994,None,None,None,2474.399814868986,2476.137745210988,1.0379032480122987,0.20199789400794543,,,,,,,,,,,,,114,001,18,0,2020_Feb_05_1300,Test,3.2.4,59.83743676420218,
Pictures/IA25_L20.bmp,Pictures/IA25_L20.bmp,Pictures/IA25.bmp,"

"Don't be tempted to gamble."",0,safe,,,,,6,0,6,0,0,8,8,17,,,,,,,,,,,,,,,,,,,,,,,,,,,,,,,2476.1544449710054,None,2478.1764549409854,2479.6971356809954,2479.680438409996,None,2481.2178210389975,None,2,2483.206418783986,None,2483.206418783986,None,2483.206418783986,None,None,None,None,None,2483.941705117002,None,2483.941705117002,None,right,2483.941705117002,None,None,None,2484.2424779459834,2485.9469902989804,0.568746317003388,0.25744557299185544,,,,,,,,,,,,,114,001,18,0,2020_Feb_05_1300,Test,3.2.4,59.83743676420218,
Pictures/IA100_G60.bmp,Pictures/IA100_G60.bmp,Pictures/IA100.bmp,"

"Be cautious, don't gamble for this one."",0,safe,,,,,6,0,6,0,0,9,9,5,,,,,,,,,,,,,,,,,,,,,,,,,,,,,,,2485.96369978899,None,2487.9857011119893,2489.5063859419897,2489.4896912520053,None,2490.993653084006,None,1,2493.01567053498,None,2493.01567053498,None,2493.01567053498,None,2493.684098230995,None,2493.684098230995,2494.686744331004,2495.789657318004,None,2495.789657318004,None,left,2495.789657318004,None,2496.073737097002,2497.7782497220032,None,None,0.527486585022416,0.249490059009986,,,,,,,,,,,,,114,001,18,0,2020_Feb_05_1300,Test,3.2.4,59.83743676420218,
Pictures/IA100_L40.bmp,Pictures/IA100_L40.bmp,Pictures/IA100.bmp,"

"Think of the payoff, gamble!"",1,risk,,,,,6,0,6,0,0,10,10,18,,,,,,,,,,,,,,,,,,,,,,,,,,,,,,,2497.794951499003,None,2499.8169649310003,2501.33764962398,2501.320948295004,None,2502.858332356991,None,1,2504.8469312999805,None,2504.8469312999805,None,2504.8469312999805,None,2505.2814176719985,None,2505.2814176719985,2506.284056771983,2507.3869773329934,None,2507.3869773329934,None,right,2507.3869773329934,None,None,None,2507.7211854939815,2509.3922633659968,0.3122220169752836,0.29217147699091583,,,,,,,,,,,,,114,001,18,0,2020_Feb_05_1300,Test,3.2.4,59.83743676420218,
Pictures/IA50_G20.bmp,Pictures/IA50_G20.bmp,Pictures/IA50.bmp,"

"Let's venture and take a risk!"",1,risk,,,,,6,0,6,0,0,11,11,2,,,,,,,,,,,,,,,,,,,,,,,,,,,,,,,2509.4089797149936,None,2511.4309990579786,2512.9517057850026,2512.9349558639806,None,2514.472363746987,None,1,2516.4609413729922,None,2516.4609413729922,None,2516.4609413729922,None,2516.9789836859854,None,2516.9789836859854,2517.981631298986,2519.0845507199992,None,2519.0845507199992,None,left,2519.0845507199992,None,2519.869953882997,2521.0731313870056,None,None,0.39422640300472267,0.7386011479829904,,,,,,,,,,,,,114,001,18,0,2020_Feb_05_1300,Test,3.2.4,59.83743676420218,
Pictures/IA25_G5.bmp,Pictures/IA25_G5.bmp,Pictures/IA25.bmp,"

"Let's stay with the certain option."",0,safe,,,,,6,0,6,0,0,12,12,4,,,,,,,,,,,,,,,,,,,,,,,,,,,,,,,2521.0898328750045,None,2523.111843683,2524.632526684989,2524.615833147982,None,2526.136503057991,None,2,2528.141803232982,None,2528.141803232982,None,2528.141803232982,None,None,None,None,None,2528.6932596359984,None,2528.6932596359984,None,right,2528.6932596359984,None,None,None,2529.51208825098,2530.681852084992,0.3693545369897038,0.7778999060101341,,,,,,,,,,,,,114,001,18,0,2020_Feb_05_1300,Test,3.2.4,59.83743676420218,
Pictures/IA80_40_G95p.bmp,Pictures/IA80_40_G95p.bmp,Pictures/IA80.bmp,"

"Think of the payoff, gamble!"",1,risk,,,,,6,0,6,0,0,13,13,12,,,,,,,,,,,,,,,,,,,,,,,,,,,,,,,2530.698553995986,None,2532.72056324,2534.2412486269895,2534.224552972999,None,2535.7285137480067,None,1,2537.750535608997,None,2537.750535608997,None,2537.750535608997,None,2538.435666239995,None,2538.435666239995,2539.4383131270006,2540.541233486001,None,2540.541233486001,None,left,2540.541233486001,None,2540.8921558209986,2542.529830287007,None,None,0.5606323789979797,1.249905159987975,,,,,,,,,,,,,114,001,18,0,2020_Feb_05_1300,Test,3.2.4,59.83743676420218,
Pictures/IA100_G20.bmp,Pictures/IA100_G20.bmp,Pictures/IA100.bmp,"

"Go ahead and gamble!"",1,risk,,,,,6,0,6,0,0,14,14,16,,,,,,,,,,,,,,,,,,,,,,,,,,,,,,,2542.546531309985,None,2544.5685416389897,2546.0892207879806,2546.0725295979937,None,2547.6099382519897,None,1,2549.598505342001,None,2549.598505342001,None,2549.598505342001,None,2551.102469398,None,2551.102469398,2552.105116114981,2553.208033464005,None,2553.208033464005,None,None,2553.208033464005,None,None,None,None,None,1.392655112023931,,,,,,,,,,,,,,114,001,18,0,2020_Feb_05_1300,Test,3.2.4,59.83743676420218,
Pictures/IA40_20_G95p.bmp,Pictures/IA40_20_G95p.bmp,Pictures/IA40.bmp,"

"Hold back, stay with the safe choice."",0,safe,,,,,6,0,6,0,0,15,15,19,,,,,,,,,,,,,,,,,,,,,,,,,,,,,,,2555.213327320991,None,2557.23533808699,2558.7560205209884,2558.7393246149877,None,2560.2767111819994,None,2,2562.265307766007,None,2562.265307766007,None,2562.265307766007,None,None,None,None,None,2563.6857279760006,None,2563.6857279760006,None,left,2563.6857279760006,None,2564.0366552030027,2565.674300474988,None,None,1.2458544080145657,0.31342058497830294,,,,,,,,,,,,,114,001,18,0,2020_Feb_05_1300,Test,3.2.4,59.83743676420218,
Pictures/IA75_G15.bmp,Pictures/IA75_G15.bmp,Pictures/IA75.bmp,"

"Take a chance!"",1,risk,,,,,6,0,6,0,0,16,16,10,,,,,,,,,,,,,,,,,,,,,,,,,,,,,,,2565.691020684986,None,2567.713032767002,2569.2337148889783,2569.21700117999,None,2570.7544013479783,None,1,2572.742979742994,None,2572.742979742994,None,2572.742979742994,None,2573.795760548004,None,2573.795760548004,2574.7984053239925,2575.9013303839893,None,2575.9013303839893,None,right,2575.9013303839893,None,None,None,2576.235549489007,2577.8899184349866,0.9521787720150314,0.29780786600895226,,,,,,,,,,,,,114,001,18,0,2020_Feb_05_1300,Test,3.2.4,59.83743676420218,
Pictures/IA100_L60.bmp,Pictures/IA100_L60.bmp,Pictures/IA100.bmp,"

"You'd have a lot to lose, don't gamble."",0,safe,,,,,6,0,6,0,0,17,17,9,,,,,,,,,,,,,,,,,,,,,,,,,,,,,,,2577.9066206789867,None,2579.9286305959977,2581.449312964978,2581.432618114981,None,2582.970012317004,None,2,2584.958605777996,None,2584.958605777996,None,2584.958605777996,None,None,None,None,None,2585.9445288629795,None,2585.9445288629795,None,right,2585.9445288629795,None,None,None,2586.345595981984,2587.9498352519877,0.8005409789911937,0.366618328000186,,,,,,,,,,,,,114,001,18,0,2020_Feb_05_1300,Test,3.2.4,59.83743676420218,
Pictures/IA50_L20.bmp,Pictures/IA50_L20.bmp,Pictures/IA50.bmp,"

"Certainty is boring, take a risk!"",1,risk,,,,,6,0,6,0,0,18,18,7,,,,,,,,,,,,,,,,,,,,,,,,,,,,,,,2587.9665345079848,None,2589.988543968997,2591.5092255839845,2591.492535239988,None,2593.0299175999826,None,2,2595.0185136809887,None,2595.0185136809887,None,2595.0185136809887,None,None,None,None,None,2595.4362857509986,None,2595.4362857509986,None,right,2595.4362857509986,None,None,None,2595.65352165699,2597.4248563550063,0.2446586909936741,0.17885979398852214,,,,,,,,,,,,,114,001,18,0,2020_Feb_05_1300,Test,3.2.4,59.83743676420218,
Pictures/IA25_G20.bmp,Pictures/IA25_G20.bmp,Pictures/IA25.bmp,"

"I wouldn't gamble for this one. "",0,safe,,,,,6,0,6,0,0,19,19,11,,,,,,,,,,,,,,,,,,,,,,,,,,,,,,,2597.441579823004,None,2599.4635902309965,2600.984280090983,2600.967570568988,None,2602.504959699989,None,1,2604.493538951996,None,2604.493538951996,None,2604.493538951996,None,2604.8277653330006,None,2604.8277653330006,2605.8304090409947,2606.9333278779814,None,2606.9333278779814,None,left,2606.9333278779814,None,2607.5683621279895,2608.9219154669845,None,None,0.19361693601240404,0.5858211110171396,,,,,,,,,,,,,114,001,18,0,2020_Feb_05_1300,Test,3.2.4,59.83743676420218,
,,,,,,,,,,6,0,6,0,,,,,,,,,,,,,,,,,,,,,,,,,,,,,,,,,,,,,,,,,,,,,,,,,,,,,,,,,,,,,,,,,,,,,,,,,2609.1057239729853,None,return,1.9414276769966818,2609.1057239729853,None,114,001,18,0,2020_Feb_05_1300,Test,3.2.4,59.83743676420218,
Pictures/IA25_G20.bmp,Pictures/IA25_G20.bmp,Pictures/IA25.bmp,"

"I wouldn't gamble for this one. "",0,safe,,,,,7,0,7,0,0,0,0,10,,,,,,,,,,,,,2611.211293280998,None,2611.211293280998,None,2611.211293280998,None,left,1.059856159001356,2611.211293280998,None,2611.211293280998,None,2611.211293280998,None,return,2.1076315499958582,2611.211293280998,None,2613.366946706985,None,2615.3889938719803,2616.909673696995,2616.8929766509973,None,2618.3802387469914,None,2,2620.4022388189915,None,2620.4022388189915,None,2620.4022388189915,None,None,None,None,None,2621.3380545709806,None,2621.3380545709806,None,left,2621.3380545709806,None,2621.6054141570057,2623.3433374250017,None,None,0.732910656981403,0.2290975349897053,,,,,,,,,,,,,114,001,18,0,2020_Feb_05_1300,Test,3.2.4,59.83743676420218,
Pictures/IA100_G20.bmp,Pictures/IA100_G20.bmp,Pictures/IA100.bmp,"

"Go ahead and gamble!"",1,risk,,,,,7,0,7,0,0,1,1,2,,,,,,,,,,,,,,,,,,,,,,,,,,,,,,,2623.360060815001,None,2625.3820768589794,2626.902753496979,2626.8860366919835,None,2628.3900222689845,None,2,2630.412019488984,None,2630.412019488984,None,2630.412019488984,None,None,None,None,None,2630.8799241840024,None,2630.8799241840024,None,right,2630.8799241840024,None,None,None,2630.9634835140023,2632.8685153459955,0.3071429870033171,0.04721893402165733,,,,,,,,,,,,,114,001,18,0,2020_Feb_05_1300,Test,3.2.4,59.83743676420218,
Pictures/IA75_G45.bmp,Pictures/IA75_G45.bmp,Pictures/IA75.bmp,"

"Don't gamble for this one."",0,safe,,,,,7,0,7,0,0,2,2,12,,,,,,,,,,,,,,,,,,,,,,,,,,,,,,,2632.8852164709824,None,2634.907227399992,2636.4279111450014,2636.411213799991,None,2637.931886741979,None,2,2639.937187989999,None,2639.937187989999,None,2639.937187989999,None,None,None,None,None,2641.02340025999,None,2641.02340025999,None,right,2641.02340025999,None,None,None,2642.2599887489923,None,0.9259696060034912,1.1997205129882786,,,,,,,,,,,,,114,001,18,0,2020_Feb_05_1300,Test,3.2.4,59.83743676420218,
Pictures/IA50_G20.bmp,Pictures/IA50_G20.bmp,Pictures/IA50.bmp,"

"Let's venture and take a risk!"",1,risk,,,,,7,0,7,0,0,3,3,19,,,,,,,,,,,,,,,,,,,,,,,,,,,,,,,2643.045400290983,None,2645.067406102986,2646.5880898549804,2646.5713923809817,None,2648.075355381996,None,2,2650.0973821560037,None,2650.0973821560037,None,2650.0973821560037,None,None,None,None,None,2650.882785024005,None,2650.882785024005,None,left,2650.882785024005,None,2651.0498777930043,2652.888078055985,None,None,0.6137772160000168,0.12437263800529763,,,,,,,,,,,,,114,001,18,0,2020_Feb_05_1300,Test,3.2.4,59.83743676420218,
Pictures/IA50_G10.bmp,Pictures/IA50_G10.bmp,Pictures/IA50.bmp,"

"Go with the safe option here!"",0,safe,,,,,7,0,7,0,0,4,4,13,,,,,,,,,,,,,,,,,,,,,,,,,,,,,,,2652.9047814829974,None,2654.9267947759945,2656.4474744259787,2656.43078028498,None,2657.9681722990063,None,2,2659.9567708749964,None,2659.9567708749964,None,2659.9567708749964,None,None,None,None,None,2660.742171263002,None,2660.742171263002,None,right,2660.742171263002,None,None,None,2660.992834937002,2662.7307572620048,0.6023782230040524,0.20898701800615527,,,,,,,,,,,,,114,001,18,0,2020_Feb_05_1300,Test,3.2.4,59.83743676420218,
Pictures/IA75_G15.bmp,Pictures/IA75_G15.bmp,Pictures/IA75.bmp,"

"Take a chance!"",1,risk,,,,,7,0,7,0,0,5,5,17,,,,,,,,,,,,,,,,,,,,,,,,,,,,,,,2662.7474524809804,None,2664.7694664569863,2666.2901461489964,2666.2734547529835,None,2667.7774167949974,None,2,2669.7994325769832,None,2669.7994325769832,None,2669.7994325769832,None,None,None,None,None,2670.217194302997,None,2670.217194302997,None,right,2670.217194302997,None,None,None,2670.334164489992,2672.2057760499883,0.2557297339953948,0.07795708900084719,,,,,,,,,,,,,114,001,18,0,2020_Feb_05_1300,Test,3.2.4,59.83743676420218,
Pictures/IA20_10_G95p.bmp,Pictures/IA20_10_G95p.bmp,Pictures/IA20.bmp,"

"Take a leap, I think you should gamble."",1,risk,,,,,7,0,7,0,0,6,6,15,,,,,,,,,,,,,,,,,,,,,,,,,,,,,,,2672.222497986979,None,2674.2445090219844,2675.7651925459795,2675.748479261005,None,2677.2858801039984,None,2,2679.2744602919847,None,2679.2744602919847,None,2679.2744602919847,None,None,None,None,None,2680.3940850799845,None,2680.3940850799845,None,left,2680.3940850799845,None,2680.561201304983,2682.3993787849904,None,None,0.9406876339926384,0.11706497799605131,,,,,,,,,,,,,114,001,18,0,2020_Feb_05_1300,Test,3.2.4,59.83743676420218,
Pictures/IA50_L40.bmp,Pictures/IA50_L40.bmp,Pictures/IA50.bmp,"

"That gamble doesn't sound too good, play it safe."",0,safe,,,,,7,0,7,0,0,7,7,6,,,,,,,,,,,,,,,,,,,,,,,,,,,,,,,2682.4160985769995,None,2684.438113737997,2685.9588084449933,2685.9420754409803,None,2687.47948002498,None,1,2689.4680632340023,None,2689.4680632340023,None,2689.4680632340023,None,2690.7213821759797,None,2690.7213821759797,2691.7240249419992,2692.8269476970017,None,2692.8269476970017,None,left,2692.8269476970017,None,2694.280781640002,None,None,None,1.0990939189796336,1.4121994089800864,,,,,,,,,,,,,114,001,18,0,2020_Feb_05_1300,Test,3.2.4,59.83743676420218,
Pictures/IA110_55_G95p.bmp,Pictures/IA110_55_G95p.bmp,Pictures/IA110.bmp,"

