Choice,Choice2,Amount,AdviceVar1,GambleAdviceNum,GambleAdviceType,practice.thisRepN,practice.thisTrialN,practice.thisN,practice.thisIndex,trials_2.thisRepN,trials_2.thisTrialN,trials_2.thisN,trials_2.thisIndex,trials.thisRepN,trials.thisTrialN,trials.thisN,trials.thisIndex,text.started,text.stopped,key_resp_4.keys,key_resp_4.rt,key_resp_4.started,key_resp_4.stopped,instructions.started,instructions.stopped,space.keys,space.rt,space.started,space.stopped,chooseInst.started,chooseInst.stopped,Ad1.started,Ad1.stopped,Ad2.started,Ad2.stopped,key_resp_3.keys,key_resp_3.rt,key_resp_3.started,key_resp_3.stopped,Ad1pic.started,Ad1pic.stopped,Ad2pic.started,Ad2pic.stopped,enter.keys,enter.rt,enter.started,enter.stopped,iSi.started,iSi.stopped,receiveMoneyPicture.started,receiveMoneyPicture.stopped,ISI2.started,ISI2.stopped,ChoicePic.started,ChoicePic.stopped,response.keys,response.rt,response.started,response.stopped,yesNo.started,yesNo.stopped,ask.started,ask.stopped,getAdv.started,getAdv.stopped,textForCode.started,textForCode.stopped,blank.started,blank.stopped,ChoicePic2.started,ChoicePic2.stopped,resp.keys,resp.rt,resp.started,resp.stopped,checkL1.started,checkL1.stopped,checkR1.started,checkR1.stopped,EndPrac.started,EndPrac.stopped,key_resp.keys,key_resp.rt,key_resp.started,key_resp.stopped,endText.started,endText.stopped,key_resp_2.keys,key_resp_2.rt,key_resp_2.started,key_resp_2.stopped,participant,session,age,gender (0=male, 1 = female, 2 = other),date,expName,psychopyVersion,frameRate
,,,,,,,,,,,,,,,,,,246.9664587,None,space,298.3223971,246.9664587,None,,,,,,,,,,,,,,,,,,,,,,,,,,,,,,,,,,,,,,,,,,,,,,,,,,,,,,,,,,,,,,,,,,,,,120,1,19,1,2020_Mar_09_1114,Test,3.2.4,59.8444927,,
,,,,,,,,,,,,,,,,,,,,,,,,545.3188614,None,space,4.098001139,545.3188614,None,,,,,,,,,,,,,,,,,,,,,,,,,,,,,,,,,,,,,,,,,,,,,,,,,,,,,,,,,,,,,,,120,1,19,1,2020_Mar_09_1114,Test,3.2.4,59.8444927,,
,,,,,,,,,,,,,,,,,,,,,,,,,,,,,,550.1315693,None,550.1315693,None,550.1315693,None,left,4.11728067,550.1315693,None,,,,,,,,,,,,,,,,,,,,,,,,,,,,,,,,,,,,,,,,,,,,,,,,,,,,,120,1,19,1,2020_Mar_09_1114,Test,3.2.4,59.8444927,,
,,,,,,,,,,,,,,,,,,,,,,,,,,,,,,,,,,,,,,,,550.1315693,None,550.1315693,None,return,7.637134708,550.1315693,None,,,,,,,,,,,,,,,,,,,,,,,,,,,,,,,,,,,,,,,,,,,,,120,1,19,1,2020_Mar_09_1114,Test,3.2.4,59.8444927,,
Pictures/IA50_G10.bmp,Pictures/IA50_G10.bmp,Pictures/IA50.bmp,"

Go with the safe option here!""""",0,safe,0,0,0,0,,,,,,,,,,,,,,,,,,,,,,,,,,,,,,,,,,,,,,,557.902059,None,559.8572086,561.3611598,561.3444635,None,562.8651455,None,1,1.694880038,564.9539829,None,564.9539829,None,564.9539829,None,566.7754503,None,566.7754503,567.7780781,568.9812581,None,568.9812581,None,left,1.315593413,568.9812581,None,570.3348219,None,None,None,,,,,,,,,,,,,120,1,19,1,2020_Mar_09_1114,Test,3.2.4,59.8444927,,
Pictures/IA50_G30.bmp,Pictures/IA50_G30.bmp,Pictures/IA50.bmp,"

I think you should gamble.""""",1,risk,0,1,1,2,,,,,,,,,,,,,,,,,,,,,,,,,,,,,,,,,,,,,,,570.9865545,None,573.008541,574.5292201,574.5125208,None,576.0666053,None,1,1.802386847,578.038474,None,578.038474,None,578.038474,None,579.9602176,None,579.9602176,580.9628586,582.0657725,None,582.0657725,None,right,0.847075959,582.0657725,None,None,None,582.9514422,584.0543323,,,,,,,,,,,,,120,1,19,1,2020_Mar_09_1114,Test,3.2.4,59.8444927,,
Pictures/IA100_G20.bmp,Pictures/IA100_G20.bmp,Pictures/IA100.bmp,"

Go ahead and gamble!""""",1,risk,0,2,2,4,,,,,,,,,,,,,,,,,,,,,,,,,,,,,,,,,,,,,,,584.0710599,None,586.1097652,587.6137177,587.597022,None,589.1176481,None,2,1.829889019,591.122975,None,591.122975,None,591.122975,None,None,None,None,None,593.1115677,None,593.1115677,None,left,0.961292969,593.1115677,None,594.1141973,None,None,None,,,,,,,,,,,,,120,1,19,1,2020_Mar_09_1114,Test,3.2.4,59.8444927,,
Pictures/IA50_G40.bmp,Pictures/IA50_G40.bmp,Pictures/IA50.bmp,"

It would probably be best to play it safe.""""",0,safe,0,3,3,3,,,,,,,,,,,,,,,,,,,,,,,,,,,,,,,,,,,,,,,595.1335512,None,597.1555471,598.6762223,598.6595267,None,600.2303265,None,2,0.975368051,602.1854937,None,602.1854937,None,602.1854937,None,None,None,None,None,603.3552477,None,603.3552477,None,left,0.749602973,603.3552477,None,604.1406503,605.3605179,None,None,,,,,,,,,,,,,120,1,19,1,2020_Mar_09_1114,Test,3.2.4,59.8444927,,
Pictures/IA50_G20.bmp,Pictures/IA50_G20.bmp,Pictures/IA50.bmp,"

Let's venture and take a risk!""""",1,risk,0,4,4,1,,,,,,,,,,,,,,,,,,,,,,,,,,,,,,,,,,,,,,,605.3772387,None,607.3992405,608.9199148,608.9031956,None,610.4740172,None,1,1.251705139,612.4291594,None,612.4291594,None,612.4291594,None,613.7826987,None,613.7826987,614.7853719,615.8882811,None,615.8882811,None,left,0.640578085,615.8882811,None,616.5734183,617.8768674,None,None,,,,,,,,,,,,,120,1,19,1,2020_Mar_09_1114,Test,3.2.4,59.8444927,,
Pictures/IA100_G40.bmp,Pictures/IA100_G40.bmp,Pictures/IA100.bmp,"

Try your luck and gamble!""""",1,risk,0,5,5,5,,,,,,,,,,,,,,,,,,,,,,,,,,,,,,,,,,,,,,,617.8935665,None,619.9155649,621.4362407,621.41955,None,622.9736317,None,2,1.183375021,624.9455,None,624.9455,None,624.9455,None,None,None,None,None,626.2823603,None,626.2823603,None,left,0.630499587,626.2823603,None,626.950798,628.2876531,None,None,,,,,,,,,,,,,120,1,19,1,2020_Mar_09_1114,Test,3.2.4,59.8444927,,
,,,,,,,,,,,,,,,,,,,,,,,,,,,,,,,,,,,,,,,,,,,,,,,,,,,,,,,,,,,,,,,,,,,,,,,,,,,,,,,,628.3043544,None,space,18.35250357,628.3043544,None,,,,,,,120,1,19,1,2020_Mar_09_1114,Test,3.2.4,59.8444927,,
Pictures/IA50_L30.bmp,Pictures/IA50_L30.bmp,Pictures/IA50.bmp,"

Take a leap"," I think you should gamble.""""",1,risk,,,,,0,0,0,0,0,0,0,5,,,,,,,,,,,,,646.8365592,None,646.8365592,None,646.8365592,None,left,3.700299693,646.8365592,None,646.8365592,None,646.8365592,None,return,5.516169047,646.8365592,None,652.4346607,None,654.4232375,655.9439065,655.927211,None,657.4813103,None,1,1.396414144,659.4364554,None,659.4364554,None,659.4364554,None,660.9738574,None,660.9738574,661.9764957,663.0794093,None,663.0794093,None,right,0.561455194,663.0794093,None,None,None,663.6809766,665.0679692,,,,,,,,,,,,,120,1,19,1,2020_Mar_09_1114,Test,3.2.4,59.8444927,
Pictures/IA50_G20.bmp,Pictures/IA50_G20.bmp,Pictures/IA50.bmp,"

Let's venture and take a risk!""""",1,risk,,,,,0,0,0,0,0,1,1,13,,,,,,,,,,,,,,,,,,,,,,,,,,,,,,,665.0846957,None,667.1066947,668.6273676,668.6106525,None,670.1313382,None,2,0.504240944,672.136627,None,672.136627,None,672.136627,None,None,None,None,None,672.805058,None,672.805058,None,right,0.819802679,672.805058,None,None,None,673.6740242,674.8103291,,,,,,,,,,,,,120,1,19,1,2020_Mar_09_1114,Test,3.2.4,59.8444927,,
Pictures/IA50_G30.bmp,Pictures/IA50_G30.bmp,Pictures/IA50.bmp,"

I think you should gamble.""""",1,risk,,,,,0,0,0,0,0,2,2,14,,,,,,,,,,,,,,,,,,,,,,,,,,,,,,,674.8270489,None,676.8490545,678.3697278,678.3530109,None,679.8736967,None,2,1.313877249,681.8789867,None,681.8789867,None,681.8789867,None,None,None,None,None,683.3662465,None,683.3662465,None,left,0.730625624,683.3662465,None,684.1349235,685.3548146,None,None,,,,,,,,,,,,,120,1,19,1,2020_Mar_09_1114,Test,3.2.4,59.8444927,,
Pictures/IA75_L60.bmp,Pictures/IA75_L60.bmp,Pictures/IA75.bmp,"

Why not take the gamble?""""",1,risk,,,,,0,0,0,0,0,3,3,8,,,,,,,,,,,,,,,,,,,,,,,,,,,,,,,685.3715122,None,687.4102285,688.9309013,688.9142055,None,690.4683024,None,1,1.409413821,692.4234494,None,692.4234494,None,692.4234494,None,693.9441214,None,693.9441214,694.9467647,696.0496801,None,696.0496801,None,left,1.215172774,696.0496801,None,697.3029793,None,None,None,,,,,,,,,,,,,120,1,19,1,2020_Mar_09_1114,Test,3.2.4,59.8444927,,
Pictures/IA25_L15.bmp,Pictures/IA25_L15.bmp,Pictures/IA25.bmp,"

There's not much on the line here"," gamble!""""",1,risk,,,,,0,0,0,0,0,4,4,16,,,,,,,,,,,,,,,,,,,,,,,,,,,,,,,698.0549767,None,700.0936873,701.5976402,701.5809441,None,703.1517444,None,1,2.181967588,705.1069108,None,705.1069108,None,705.1069108,None,707.4297015,None,707.4297015,708.4323461,709.5519662,None,709.5519662,None,left,1.38488687,709.5519662,None,710.9723766,None,None,None,,,,,,,,,,,,,120,1,19,1,2020_Mar_09_1114,Test,3.2.4,59.8444927,
Pictures/IA75_L30.bmp,Pictures/IA75_L30.bmp,Pictures/IA75.bmp,"

Hold back"," stay with the safe choice.""""",0,safe,,,,,0,0,0,0,0,5,5,17,,,,,,,,,,,,,,,,,,,,,,,,,,,,,,,711.5572483,None,713.5792536,715.0999298,715.0832074,None,716.6707401,None,2,1.319671884,718.6091863,None,718.6091863,None,718.6091863,None,None,None,None,None,720.0964388,None,720.0964388,None,left,0.584417593,720.0964388,None,720.7147368,722.0850033,None,None,,,,,,,,,,,,,120,1,19,1,2020_Mar_09_1114,Test,3.2.4,59.8444927,
Pictures/IA25_L20.bmp,Pictures/IA25_L20.bmp,Pictures/IA25.bmp,"

Don't be tempted to gamble.""""",0,safe,,,,,0,0,0,0,0,6,6,19,,,,,,,,,,,,,,,,,,,,,,,,,,,,,,,722.1017269,None,724.1237287,725.6444021,725.6276862,None,727.1985026,None,1,1.06321521,729.1536503,None,729.1536503,None,729.1536503,None,730.3234131,None,730.3234131,731.3260585,732.4456785,None,732.4456785,None,left,0.387180879,732.4456785,None,732.8801409,734.4509658,None,None,,,,,,,,,,,,,120,1,19,1,2020_Mar_09_1114,Test,3.2.4,59.8444927,,
Pictures/IA75_L15.bmp,Pictures/IA75_L15.bmp,Pictures/IA75.bmp,"

Trust me–gamble!""""",1,risk,,,,,0,0,0,0,0,7,7,9,,,,,,,,,,,,,,,,,,,,,,,,,,,,,,,734.4676617,None,736.4896634,738.0103378,737.9936539,None,739.5644376,None,1,1.345188409,741.519666,None,741.519666,None,741.519666,None,742.9901589,None,742.9901589,743.992801,745.1291287,None,745.1291287,None,right,0.527726359,745.1291287,None,None,None,745.6972768,747.1344132,,,,,,,,,,,,,120,1,19,1,2020_Mar_09_1114,Test,3.2.4,59.8444927,,
Pictures/IA50_G40.bmp,Pictures/IA50_G40.bmp,Pictures/IA50.bmp,"

It would probably be best to play it safe.""""",0,safe,,,,,0,0,0,0,0,8,8,0,,,,,,,,,,,,,,,,,,,,,,,,,,,,,,,747.1511124,None,749.1731179,750.6937895,750.6770934,None,752.1810496,None,1,0.853805996,754.203059,None,754.203059,None,754.203059,None,755.2056908,None,755.2056908,756.2083302,757.3112505,None,757.3112505,None,left,0.377603068,757.3112505,None,757.7290096,759.2998309,None,None,,,,,,,,,,,,,120,1,19,1,2020_Mar_09_1114,Test,3.2.4,59.8444927,,
Pictures/IA20_10_L95p.bmp,Pictures/IA20_10_L95p.bmp,Pictures/IA20.bmp,"

Don't be tempted to gamble.""""",0,safe,,,,,0,0,0,0,0,9,9,2,,,,,,,,,,,,,,,,,,,,,,,,,,,,,,,759.3165295,None,761.355244,762.859218,762.8424994,None,764.3966083,None,2,1.464384949,766.3684781,None,766.3684781,None,766.3684781,None,None,None,None,None,767.9894165,None,767.9894165,None,right,0.2754503,767.9894165,None,None,None,768.3069082,769.977982,,,,,,,,,,,,,120,1,19,1,2020_Mar_09_1114,Test,3.2.4,59.8444927,,
Pictures/IA75_L45.bmp,Pictures/IA75_L45.bmp,Pictures/IA75.bmp,"

Don't gamble for this one"," play it safe.""""",0,safe,,,,,0,0,0,0,0,10,10,11,,,,,,,,,,,,,,,,,,,,,,,,,,,,,,,769.9947144,None,772.0167057,773.5373832,773.5206567,None,775.0747723,None,1,0.946226588,777.0466405,None,777.0466405,None,777.0466405,None,778.1328371,None,778.1328371,779.1354779,780.2383983,None,780.2383983,None,left,0.50646869,780.2383983,None,780.789844,782.2269552,None,None,,,,,,,,,,,,,120,1,19,1,2020_Mar_09_1114,Test,3.2.4,59.8444927,
Pictures/IA50_G10.bmp,Pictures/IA50_G10.bmp,Pictures/IA50.bmp,"

Go with the safe option here!""""",0,safe,,,,,0,0,0,0,0,11,11,4,,,,,,,,,,,,,,,,,,,,,,,,,,,,,,,782.243677,None,784.2656794,785.7863415,785.7696453,None,787.2903124,None,2,0.785254284,789.2956021,None,789.2956021,None,789.2956021,None,None,None,None,None,790.2314,None,790.2314,None,right,0.313459995,790.2314,None,None,None,790.5823236,792.2199875,,,,,,,,,,,,,120,1,19,1,2020_Mar_09_1114,Test,3.2.4,59.8444927,,
Pictures/IA100_L20.bmp,Pictures/IA100_L20.bmp,Pictures/IA100.bmp,"

Try to win as much money as you can"," gamble!""""",1,risk,,,,,0,0,0,0,0,12,12,6,,,,,,,,,,,,,,,,,,,,,,,,,,,,,,,792.2366917,None,794.2586882,795.7793662,795.7626682,None,797.333464,None,2,0.904222605,799.2886388,None,799.2886388,None,799.2886388,None,None,None,None,None,800.3748345,None,800.3748345,None,right,0.274023758,800.3748345,None,None,None,800.6923372,802.3801076,,,,,,,,,,,,,120,1,19,1,2020_Mar_09_1114,Test,3.2.4,59.8444927,
Pictures/IA50_L10.bmp,Pictures/IA50_L10.bmp,Pictures/IA50.bmp,"

Play it safe"," don’t gamble!""""",0,safe,,,,,0,0,0,0,0,13,13,1,,,,,,,,,,,,,,,,,,,,,,,,,,,,,,,802.3968283,None,804.4188306,805.9227822,805.9060921,None,807.4768971,None,1,0.624103024,809.4487666,None,809.4487666,None,809.4487666,None,810.2007363,None,810.2007363,811.2033773,812.3062902,None,812.3062902,None,left,0.574568337,812.3062902,None,812.9245821,814.2948777,None,None,,,,,,,,,,,,,120,1,19,1,2020_Mar_09_1114,Test,3.2.4,59.8444927,
Pictures/IA25_L10.bmp,Pictures/IA25_L10.bmp,Pictures/IA25.bmp,"

Dont be afraid to take the risk!""""",1,risk,,,,,0,0,0,0,0,14,14,3,,,,,,,,,,,,,,,,,,,,,,,,,,,,,,,814.3115749,None,816.3335779,817.8542525,817.8375566,None,819.3916467,None,2,0.837349586,821.3635117,None,821.3635117,None,821.3635117,None,None,None,None,None,822.3661541,None,822.3661541,None,right,0.258716266,822.3661541,None,None,None,822.666958,824.3714398,,,,,,,,,,,,,120,1,19,1,2020_Mar_09_1114,Test,3.2.4,59.8444927,,
Pictures/IA100_G40.bmp,Pictures/IA100_G40.bmp,Pictures/IA100.bmp,"

Try your luck and gamble!""""",1,risk,,,,,0,0,0,0,0,15,15,7,,,,,,,,,,,,,,,,,,,,,,,,,,,,,,,824.3881652,None,826.410174,827.9141206,827.8974223,None,829.4348131,None,2,0.344765607,831.4401004,None,831.4401004,None,831.4401004,None,None,None,None,None,832.0249766,None,832.0249766,None,right,0.271882747,832.0249766,None,None,None,832.3424777,834.0135619,,,,,,,,,,,,,120,1,19,1,2020_Mar_09_1114,Test,3.2.4,59.8444927,,
Pictures/IA100_G20.bmp,Pictures/IA100_G20.bmp,Pictures/IA100.bmp,"

Go ahead and gamble!""""",1,risk,,,,,0,0,0,0,0,16,16,10,,,,,,,,,,,,,,,,,,,,,,,,,,,,,,,834.0302577,None,836.0522499,837.5729266,837.5562313,None,839.0601888,None,1,1.174667694,841.0821987,None,841.0821987,None,841.0821987,None,842.3522121,None,842.3522121,843.3548584,844.4577698,None,844.4577698,None,left,0.391084162,844.4577698,None,844.8922317,846.4630561,None,None,,,,,,,,,,,,,120,1,19,1,2020_Mar_09_1114,Test,3.2.4,59.8444927,,
Pictures/IA40_20_G95p.bmp,Pictures/IA40_20_G95p.bmp,Pictures/IA40.bmp,"

Hold back"," stay with the safe choice.""""",0,safe,,,,,0,0,0,0,0,17,17,12,,,,,,,,,,,,,,,,,,,,,,,,,,,,,,,846.4797539,None,848.5184656,850.0391402,850.0224478,None,851.5765492,None,1,1.573183741,853.5316895,None,853.5316895,None,853.5316895,None,855.2528943,None,855.2528943,856.2555353,857.3584493,None,857.3584493,None,left,0.354409916,857.3584493,None,857.7595143,859.3637469,None,None,,,,,,,,,,,,,120,1,19,1,2020_Mar_09_1114,Test,3.2.4,59.8444927,
Pictures/IA50_L40.bmp,Pictures/IA50_L40.bmp,Pictures/IA50.bmp,"

That gamble doesn't sound too good"," play it safe.""""",0,safe,,,,,0,0,0,0,0,18,18,18,,,,,,,,,,,,,,,,,,,,,,,,,,,,,,,859.3804446,None,861.4024487,862.923128,862.9064277,None,864.4605113,None,1,0.632483248,866.4323816,None,866.4323816,None,866.4323816,None,867.2177984,None,867.2177984,868.2204387,869.3233576,None,869.3233576,None,left,0.381508783,869.3233576,None,869.7411174,871.3119137,None,None,,,,,,,,,,,,,120,1,19,1,2020_Mar_09_1114,Test,3.2.4,59.8444927,
Pictures/IA80_40_L95p.bmp,Pictures/IA80_40_L95p.bmp,Pictures/IA80.bmp,"

Let's stay with the certain option.""""",0,safe,,,,,0,0,0,0,0,19,19,15,,,,,,,,,,,,,,,,,,,,,,,,,,,,,,,871.3286425,None,873.3673549,874.8713035,874.8546078,None,876.4254071,None,2,0.708286581,878.3805757,None,878.3805757,None,878.3805757,None,None,None,None,None,879.2662429,None,879.2662429,None,right,0.998613135,879.2662429,None,None,None,880.3022944,None,,,,,,,,,,,,,120,1,19,1,2020_Mar_09_1114,Test,3.2.4,59.8444927,,
,,,,,,,,,,0,0,0,0,,,,,,,,,,,,,,,,,,,,,,,,,,,,,,,,,,,,,,,,,,,,,,,,,,,,,,,,,,,,,,,,,,,,,,,,,881.5054741,None,return,7.36736953,881.5054741,None,120,1,19,1,2020_Mar_09_1114,Test,3.2.4,59.8444927,,
Pictures/IA100_G40.bmp,Pictures/IA100_G40.bmp,Pictures/IA100.bmp,"

Try your luck and gamble!""""",1,risk,,,,,1,0,1,0,0,0,0,13,,,,,,,,,,,,,889.0253036,None,889.0253036,None,889.0253036,None,right,3.607559944,889.0253036,None,889.0253036,None,889.0253036,None,return,6.071356441,889.0253036,None,895.158156,None,897.1634375,898.6841109,898.667418,None,900.1713833,None,1,1.080185917,902.1766742,None,902.1766742,None,902.1766742,None,903.3798488,None,903.3798488,904.3824821,905.5021119,None,905.5021119,None,right,0.402737809,905.5021119,None,None,None,905.9533233,907.4906865,,,,,,,,,,,,,120,1,19,1,2020_Mar_09_1114,Test,3.2.4,59.8444927,,
Pictures/IA50_G30.bmp,Pictures/IA50_G30.bmp,Pictures/IA50.bmp,"

I think you should gamble.""""",1,risk,,,,,1,0,1,0,0,1,1,11,,,,,,,,,,,,,,,,,,,,,,,,,,,,,,,907.5073868,None,909.529393,911.0500615,911.0333683,None,912.5540322,None,2,0.737541077,914.559322,None,914.559322,None,914.559322,None,None,None,None,None,915.4951312,None,915.4951312,None,left,0.273725225,915.4951312,None,915.8126241,917.4836982,None,None,,,,,,,,,,,,,120,1,19,1,2020_Mar_09_1114,Test,3.2.4,59.8444927,,
Pictures/IA75_G60.bmp,Pictures/IA75_G60.bmp,Pictures/IA75.bmp,"

Make it exciting"," take a chance!""""",1,risk,,,,,1,0,1,0,0,2,2,4,,,,,,,,,,,,,,,,,,,,,,,,,,,,,,,917.5004116,None,919.5224261,921.0430992,921.0263823,None,922.58049,None,1,0.384506214,924.5523601,None,924.5523601,None,924.5523601,None,925.0703822,None,925.0703822,926.0730196,927.1759359,None,927.1759359,None,left,0.320922749,927.1759359,None,927.5435831,929.1812202,None,None,,,,,,,,,,,,,120,1,19,1,2020_Mar_09_1114,Test,3.2.4,59.8444927,
Pictures/IA50_L30.bmp,Pictures/IA50_L30.bmp,Pictures/IA50.bmp,"

Take a leap"," I think you should gamble.""""",1,risk,,,,,1,0,1,0,0,3,3,9,,,,,,,,,,,,,,,,,,,,,,,,,,,,,,,929.1979467,None,931.2199467,932.7406222,932.7239018,None,934.2278785,None,1,1.150989028,936.2498712,None,936.2498712,None,936.2498712,None,937.5365955,None,937.5365955,938.5392371,939.6421534,None,939.6421534,None,right,0.574704477,939.6421534,None,None,None,940.2604441,941.6307376,,,,,,,,,,,,,120,1,19,1,2020_Mar_09_1114,Test,3.2.4,59.8444927,
Pictures/IA40_20_L95p.bmp,Pictures/IA40_20_L95p.bmp,Pictures/IA40.bmp,"

Trust me"," gamble!""""",1,risk,,,,,1,0,1,0,0,4,4,7,,,,,,,,,,,,,,,,,,,,,,,,,,,,,,,941.6474354,None,943.6694382,945.1901153,945.1734207,None,946.710794,None,1,0.309493342,948.6993877,None,948.6993877,None,948.6993877,None,949.21742,None,949.21742,950.22006,951.3396911,None,951.3396911,None,right,0.381159969,951.3396911,None,None,None,951.7574533,953.3282461,,,,,,,,,,,,,120,1,19,1,2020_Mar_09_1114,Test,3.2.4,59.8444927,
Pictures/IA25_G20.bmp,Pictures/IA25_G20.bmp,Pictures/IA25.bmp,"

I wouldn't gamble for this one. """"",0,safe,,,,,1,0,1,0,0,5,5,10,,,,,,,,,,,,,,,,,,,,,,,,,,,,,,,953.3449756,None,955.3669748,956.8876485,956.8709332,None,958.4417507,None,1,2.491959378,960.3968977,None,960.3968977,None,960.3968977,None,963.0205007,None,963.0205007,964.0231365,965.1260537,None,965.1260537,None,left,0.410815522,965.1260537,None,965.5772609,967.1146258,None,None,,,,,,,,,,,,,120,1,19,1,2020_Mar_09_1114,Test,3.2.4,59.8444927,,
Pictures/IA25_L15.bmp,Pictures/IA25_L15.bmp,Pictures/IA25.bmp,"

There's not much on the line here"," gamble!""""",1,risk,,,,,1,0,1,0,0,6,6,3,,,,,,,,,,,,,,,,,,,,,,,,,,,,,,,967.1313285,None,969.153327,970.6740008,970.6573079,None,972.1779707,None,2,2.401603116,974.1832621,None,974.1832621,None,974.1832621,None,None,None,None,None,976.7734386,None,976.7734386,None,right,0.451421574,976.7734386,None,None,None,977.2747485,978.7787257,,,,,,,,,,,,,120,1,19,1,2020_Mar_09_1114,Test,3.2.4,59.8444927,
Pictures/IA110_55_G95p.bmp,Pictures/IA110_55_G95p.bmp,Pictures/IA110.bmp,"

Take a chance!""""",1,risk,,,,,1,0,1,0,0,7,7,2,,,,,,,,,,,,,,,,,,,,,,,,,,,,,,,978.7954255,None,980.8341376,982.3381151,982.3213946,None,983.8922194,None,1,0.569500387,985.847365,None,985.847365,None,985.847365,None,986.5157928,None,986.5157928,987.5184337,988.6213466,None,988.6213466,None,None,,988.6213466,None,None,None,None,None,,,,,,,,,,,,,120,1,19,1,2020_Mar_09_1114,Test,3.2.4,59.8444927,,
Pictures/IA75_L45.bmp,Pictures/IA75_L45.bmp,Pictures/IA75.bmp,"

Don't gamble for this one"," play it safe.""""",0,safe,,,,,1,0,1,0,0,8,8,8,,,,,,,,,,,,,,,,,,,,,,,,,,,,,,,990.6266341,None,992.6486345,994.1693119,994.1526162,None,995.6565684,None,1,0.962323198,997.67857,None,997.67857,None,997.67857,None,998.7815034,None,998.7815034,999.7841326,1000.903756,None,1000.903756,None,left,0.361097133,1000.903756,None,1001.3048,1002.909032,None,None,,,,,,,,,,,,,120,1,19,1,2020_Mar_09_1114,Test,3.2.4,59.8444927,
Pictures/IA50_G10.bmp,Pictures/IA50_G10.bmp,Pictures/IA50.bmp,"

Go with the safe option here!""""",0,safe,,,,,1,0,1,0,0,9,9,19,,,,,,,,,,,,,,,,,,,,,,,,,,,,,,,1002.925756,None,1004.947756,1006.468432,1006.451714,None,1007.972401,None,2,1.42316508,1009.977701,None,1009.977701,None,1009.977701,None,None,None,None,None,1011.58194,None,1011.58194,None,left,0.682903947,1011.58194,None,1012.300471,1013.570489,None,None,,,,,,,,,,,,,120,1,19,1,2020_Mar_09_1114,Test,3.2.4,59.8444927,,
Pictures/IA75_L60.bmp,Pictures/IA75_L60.bmp,Pictures/IA75.bmp,"

Why not take the gamble?""""",1,risk,,,,,1,0,1,0,0,10,10,17,,,,,,,,,,,,,,,,,,,,,,,,,,,,,,,1013.587212,None,1015.609217,1017.129889,1017.113175,None,1018.633859,None,1,0.913706568,1020.639151,None,1020.639151,None,1020.639151,None,1021.675216,None,1021.675216,1022.677862,1023.780772,None,1023.780772,None,right,0.708087168,1023.780772,None,None,None,1024.532751,1025.786056,,,,,,,,,,,,,120,1,19,1,2020_Mar_09_1114,Test,3.2.4,59.8444927,,
Pictures/IA100_G60.bmp,Pictures/IA100_G60.bmp,Pictures/IA100.bmp,"

Be cautious"," don't gamble for this one.""""",0,safe,,,,,1,0,1,0,0,11,11,5,,,,,,,,,,,,,,,,,,,,,,,,,,,,,,,1025.802755,None,1027.8248,1029.345467,1029.32877,None,1030.899538,None,1,0.770135757,1032.854722,None,1032.854722,None,1032.854722,None,1033.790548,None,1033.790548,1034.793158,1035.946216,None,1035.946216,None,left,0.550631905,1035.946216,None,1036.531069,1037.934767,None,None,,,,,,,,,,,,,120,1,19,1,2020_Mar_09_1114,Test,3.2.4,59.8444927,
Pictures/IA75_L15.bmp,Pictures/IA75_L15.bmp,Pictures/IA75.bmp,"

Trust me–gamble!""""",1,risk,,,,,1,0,1,0,0,12,12,1,,,,,,,,,,,,,,,,,,,,,,,,,,,,,,,1037.95152,None,1039.973489,1041.494557,1041.477464,None,1043.59976,None,2,0.973404169,1045.003453,None,1045.003453,None,1045.003453,None,None,None,None,None,1046.559515,None,1046.559515,None,left,0.441340274,1046.559515,None,1047.042424,1048.562841,None,None,,,,,,,,,,,,,120,1,19,1,2020_Mar_09_1114,Test,3.2.4,59.8444927,,
Pictures/IA20_10_G95p.bmp,Pictures/IA20_10_G95p.bmp,Pictures/IA20.bmp,"

Take a leap"," I think you should gamble.""""",1,risk,,,,,1,0,1,0,0,13,13,18,,,,,,,,,,,,,,,,,,,,,,,,,,,,,,,1048.579882,None,1050.635242,1052.138937,1052.122238,None,1053.693028,None,2,1.025383361,1055.631483,None,1055.631483,None,1055.631483,None,None,None,None,None,1056.901497,None,1056.901497,None,right,0.259365655,1056.901497,None,None,None,1057.202279,1058.890044,,,,,,,,,,,,,120,1,19,1,2020_Mar_09_1114,Test,3.2.4,59.8444927,
Pictures/IA75_G15.bmp,Pictures/IA75_G15.bmp,Pictures/IA75.bmp,"

Take a chance!""""",1,risk,,,,,1,0,1,0,0,14,14,15,,,,,,,,,,,,,,,,,,,,,,,,,,,,,,,1058.906796,None,1060.945515,1062.449462,1062.432717,None,1063.95342,None,1,1.122160148,1065.958713,None,1065.958713,None,1065.958713,None,1067.178589,None,1067.178589,1068.181291,1069.334298,None,1069.334298,None,right,0.346547376,1069.334298,None,None,None,1069.718651,1071.322822,,,,,,,,,,,,,120,1,19,1,2020_Mar_09_1114,Test,3.2.4,59.8444927,,
Pictures/IA75_G45.bmp,Pictures/IA75_G45.bmp,Pictures/IA75.bmp,"

Don't gamble for this one.""""",0,safe,,,,,1,0,1,0,0,15,15,0,,,,,,,,,,,,,,,,,,,,,,,,,,,,,,,1071.339592,None,1073.378299,1074.882314,1074.848882,None,1076.436449,None,1,0.561367267,1078.391523,None,1078.391523,None,1078.391523,None,1079.076629,None,1079.076629,1080.079272,1081.265757,None,1081.265757,None,left,0.351096431,1081.265757,None,1081.666819,1083.254323,None,None,,,,,,,,,,,,,120,1,19,1,2020_Mar_09_1114,Test,3.2.4,59.8444927,,
Pictures/IA100_L60.bmp,Pictures/IA100_L60.bmp,Pictures/IA100.bmp,"

You'd have a lot to lose"," don't gamble.""""",0,safe,,,,,1,0,1,0,0,16,16,12,,,,,,,,,,,,,,,,,,,,,,,,,,,,,,,1083.271039,None,1085.326457,1086.830433,1086.813729,None,1088.367809,None,1,0.765884167,1090.322982,None,1090.322982,None,1090.322982,None,1091.225353,None,1091.225353,1092.227991,1093.330907,None,1093.330907,None,right,1.629956236,1093.330907,None,None,None,1095.002,None,,,,,,,,,,,,,120,1,19,1,2020_Mar_09_1114,Test,3.2.4,59.8444927,
Pictures/IA50_G20.bmp,Pictures/IA50_G20.bmp,Pictures/IA50.bmp,"

Let's venture and take a risk!""""",1,risk,,,,,1,0,1,0,0,17,17,14,,,,,,,,,,,,,,,,,,,,,,,,,,,,,,,1095.352905,None,1097.391624,1098.8956,1098.878878,None,1100.4497,None,2,0.388020946,1102.404848,None,1102.404848,None,1102.404848,None,None,None,None,None,1102.973024,None,1102.973024,None,right,0.259834265,1102.973024,None,None,None,1103.273803,1104.961603,,,,,,,,,,,,,120,1,19,1,2020_Mar_09_1114,Test,3.2.4,59.8444927,,
Pictures/IA25_L20.bmp,Pictures/IA25_L20.bmp,Pictures/IA25.bmp,"

Don't be tempted to gamble.""""",0,safe,,,,,1,0,1,0,0,18,18,16,,,,,,,,,,,,,,,,,,,,,,,,,,,,,,,1104.978301,None,1107.017016,1108.52099,1108.504276,None,1110.075097,None,1,0.410615067,1112.030246,None,1112.030246,None,1112.030246,None,1112.564987,None,1112.564987,1113.567629,1114.670546,None,1114.670546,None,left,0.834308738,1114.670546,None,1115.539512,1116.675849,None,None,,,,,,,,,,,,,120,1,19,1,2020_Mar_09_1114,Test,3.2.4,59.8444927,,
Pictures/IA25_G15.bmp,Pictures/IA25_G15.bmp,Pictures/IA25.bmp,"

I think you should take a gamble.""""",1,risk,,,,,1,0,1,0,0,19,19,6,,,,,,,,,,,,,,,,,,,,,,,,,,,,,,,1116.692544,None,1118.714546,1120.23523,1120.218528,None,1121.78933,None,2,0.480351306,1123.744506,None,1123.744506,None,1123.744506,None,None,None,None,None,1124.412931,None,1124.412931,None,left,0.299927223,1124.412931,None,1124.74709,1126.418207,None,None,,,,,,,,,,,,,120,1,19,1,2020_Mar_09_1114,Test,3.2.4,59.8444927,,
,,,,,,,,,,1,0,1,0,,,,,,,,,,,,,,,,,,,,,,,,,,,,,,,,,,,,,,,,,,,,,,,,,,,,,,,,,,,,,,,,,,,,,,,,,1126.585332,None,return,7.14351168,1126.585332,None,120,1,19,1,2020_Mar_09_1114,Test,3.2.4,59.8444927,,
Pictures/IA50_G40.bmp,Pictures/IA50_G40.bmp,Pictures/IA50.bmp,"

It would probably be best to play it safe.""""",0,safe,,,,,2,0,2,0,0,0,0,16,,,,,,,,,,,,,1133.921346,None,1133.921346,None,1133.921346,None,right,3.031500147,1133.921346,None,1133.921346,None,1133.921346,None,return,6.431378708,1133.921346,None,1140.38841,None,1142.410408,1143.931087,1143.914392,None,1145.451781,None,1,0.569232485,1147.423652,None,1147.423652,None,1147.423652,None,1148.158926,None,1148.158926,1149.161564,1150.264487,None,1150.264487,None,left,0.392368734,1150.264487,None,1150.69895,1152.269768,None,None,,,,,,,,,,,,,120,1,19,1,2020_Mar_09_1114,Test,3.2.4,59.8444927,,
Pictures/IA50_L10.bmp,Pictures/IA50_L10.bmp,Pictures/IA50.bmp,"

Play it safe"," don’t gamble!""""",0,safe,,,,,2,0,2,0,0,1,1,15,,,,,,,,,,,,,,,,,,,,,,,,,,,,,,,1152.286468,None,1154.308473,1155.829149,1155.812457,None,1157.366555,None,2,0.350432887,1159.338428,None,1159.338428,None,1159.338428,None,None,None,None,None,1159.873175,None,1159.873175,None,left,0.215678819,1159.873175,None,1160.123832,1161.861749,None,None,,,,,,,,,,,,,120,1,19,1,2020_Mar_09_1114,Test,3.2.4,59.8444927,
Pictures/IA100_L80.bmp,Pictures/IA100_L80.bmp,Pictures/IA100.bmp,"

Go all in!""""",1,risk,,,,,2,0,2,0,0,2,2,12,,,,,,,,,,,,,,,,,,,,,,,,,,,,,,,1161.878448,None,1163.900453,1165.42113,1165.404436,None,1166.975234,None,1,0.246454648,1168.930409,None,1168.930409,None,1168.930409,None,1169.264622,None,1169.264622,1170.267265,1171.37018,None,1171.37018,None,right,0.374671039,1171.37018,None,None,None,1171.787951,1173.358744,,,,,,,,,,,,,120,1,19,1,2020_Mar_09_1114,Test,3.2.4,59.8444927,,
Pictures/IA50_G30.bmp,Pictures/IA50_G30.bmp,Pictures/IA50.bmp,"

I think you should gamble.""""",1,risk,,,,,2,0,2,0,0,3,3,7,,,,,,,,,,,,,,,,,,,,,,,,,,,,,,,1173.375469,None,1175.397473,1176.918152,1176.901434,None,1178.438834,None,2,0.549448827,1180.427407,None,1180.427407,None,1180.427407,None,None,None,None,None,1181.162682,None,1181.162682,None,left,0.230169821,1181.162682,None,1181.430062,1183.167979,None,None,,,,,,,,,,,,,120,1,19,1,2020_Mar_09_1114,Test,3.2.4,59.8444927,,
Pictures/IA50_L30.bmp,Pictures/IA50_L30.bmp,Pictures/IA50.bmp,"

Take a leap"," I think you should gamble.""""",1,risk,,,,,2,0,2,0,0,4,4,17,,,,,,,,,,,,,,,,,,,,,,,,,,,,,,,1183.184677,None,1185.206684,1186.727361,1186.710668,None,1188.264754,None,1,0.868238362,1190.236629,None,1190.236629,None,1190.236629,None,1191.239284,None,1191.239284,1192.241925,1193.344842,None,1193.344842,None,right,0.264014436,1193.344842,None,None,None,1193.645618,1195.350136,,,,,,,,,,,,,120,1,19,1,2020_Mar_09_1114,Test,3.2.4,59.8444927,
Pictures/IA75_L15.bmp,Pictures/IA75_L15.bmp,Pictures/IA75.bmp,"

Trust me–gamble!""""",1,risk,,,,,2,0,2,0,0,5,5,1,,,,,,,,,,,,,,,,,,,,,,,,,,,,,,,1195.36684,None,1197.388846,1198.909523,1198.892805,None,1200.430206,None,2,0.318089972,1202.41878,None,1202.41878,None,1202.41878,None,None,None,None,None,1202.903404,None,1202.903404,None,left,0.177452156,1202.903404,None,1203.120638,1204.891979,None,None,,,,,,,,,,,,,120,1,19,1,2020_Mar_09_1114,Test,3.2.4,59.8444927,,
Pictures/IA100_G40.bmp,Pictures/IA100_G40.bmp,Pictures/IA100.bmp,"

Try your luck and gamble!""""",1,risk,,,,,2,0,2,0,0,6,6,19,,,,,,,,,,,,,,,,,,,,,,,,,,,,,,,1204.908679,None,1206.930684,1208.451362,1208.434668,None,1209.988764,None,1,0.232237192,1211.960627,None,1211.960627,None,1211.960627,None,1212.311563,None,1212.311563,1213.314207,1214.417124,None,1214.417124,None,right,0.231724378,1214.417124,None,None,None,1214.684479,1216.42241,,,,,,,,,,,,,120,1,19,1,2020_Mar_09_1114,Test,3.2.4,59.8444927,,
Pictures/IA25_G20.bmp,Pictures/IA25_G20.bmp,Pictures/IA25.bmp,"

I wouldn't gamble for this one. """"",0,safe,,,,,2,0,2,0,0,7,7,10,,,,,,,,,,,,,,,,,,,,,,,,,,,,,,,1216.439108,None,1218.461116,1219.965094,1219.948375,None,1221.502477,None,2,0.34178823,1223.491076,None,1223.491076,None,1223.491076,None,None,None,None,None,1224.009106,None,1224.009106,None,left,0.191752859,1224.009106,None,1224.24304,1225.997694,None,None,,,,,,,,,,,,,120,1,19,1,2020_Mar_09_1114,Test,3.2.4,59.8444927,,
Pictures/IA20_10_L95p.bmp,Pictures/IA20_10_L95p.bmp,Pictures/IA20.bmp,"

Don't be tempted to gamble.""""",0,safe,,,,,2,0,2,0,0,8,8,5,,,,,,,,,,,,,,,,,,,,,,,,,,,,,,,1226.014382,None,1228.053098,1229.557075,1229.540358,None,1231.111182,None,1,0.886541004,1233.066332,None,1233.066332,None,1233.066332,None,1234.06899,None,1234.06899,1235.071632,1236.174549,None,1236.174549,None,left,0.274303726,1236.174549,None,1236.492047,1238.163126,None,None,,,,,,,,,,,,,120,1,19,1,2020_Mar_09_1114,Test,3.2.4,59.8444927,,
Pictures/IA50_L20.bmp,Pictures/IA50_L20.bmp,Pictures/IA50.bmp,"

Certainty is boring"," take a risk!""""",1,risk,,,,,2,0,2,0,0,9,9,9,,,,,,,,,,,,,,,,,,,,,,,,,,,,,,,1238.179823,None,1240.20183,1241.722509,1241.705812,None,1243.276611,None,1,1.441080423,1245.231785,None,1245.231785,None,1245.231785,None,1246.802598,None,1246.802598,1247.805239,1248.908156,None,1248.908156,None,right,0.300689926,1248.908156,None,None,None,1249.242355,1250.913431,,,,,,,,,,,,,120,1,19,1,2020_Mar_09_1114,Test,3.2.4,59.8444927,
Pictures/IA80_40_G95p.bmp,Pictures/IA80_40_G95p.bmp,Pictures/IA80.bmp,"

Think of the payoff"," gamble!""""",1,risk,,,,,2,0,2,0,0,10,10,6,,,,,,,,,,,,,,,,,,,,,,,,,,,,,,,1250.930156,None,1252.96887,1254.489549,1254.472831,None,1256.043641,None,2,1.602767874,1257.982091,None,1257.982091,None,1257.982091,None,None,None,None,None,1259.770156,None,1259.770156,None,right,0.782695824,1259.770156,None,None,None,1260.588982,1261.758723,,,,,,,,,,,,,120,1,19,1,2020_Mar_09_1114,Test,3.2.4,59.8444927,
Pictures/IA75_G60.bmp,Pictures/IA75_G60.bmp,Pictures/IA75.bmp,"

Make it exciting"," take a chance!""""",1,risk,,,,,2,0,2,0,0,11,11,2,,,,,,,,,,,,,,,,,,,,,,,,,,,,,,,1261.77545,None,1263.79745,1265.31813,1265.30141,None,1266.855526,None,2,0.277465424,1268.827396,None,1268.827396,None,1268.827396,None,None,None,None,None,1269.278588,None,1269.278588,None,left,0.186271459,1269.278588,None,1269.512521,1271.283875,None,None,,,,,,,,,,,,,120,1,19,1,2020_Mar_09_1114,Test,3.2.4,59.8444927,
Pictures/IA75_L45.bmp,Pictures/IA75_L45.bmp,Pictures/IA75.bmp,"

Don't gamble for this one"," play it safe.""""",0,safe,,,,,2,0,2,0,0,12,12,0,,,,,,,,,,,,,,,,,,,,,,,,,,,,,,,1271.300574,None,1273.322582,1274.843259,1274.826563,None,1276.380652,None,1,0.256342606,1278.352525,None,1278.352525,None,1278.352525,None,1278.7536,None,1278.7536,1279.756238,1280.859155,None,1280.859155,None,None,,1280.859155,None,None,None,None,None,,,,,,,,,,,,,120,1,19,1,2020_Mar_09_1114,Test,3.2.4,59.8444927,
Pictures/IA25_L5.bmp,Pictures/IA25_L5.bmp,Pictures/IA25.bmp,"

It would be smarter to choose the safe option.""""",0,safe,,,,,2,0,2,0,0,13,13,4,,,,,,,,,,,,,,,,,,,,,,,,,,,,,,,1282.864441,None,1284.886448,1286.407127,1286.390407,None,1287.944524,None,2,0.844468988,1289.916396,None,1289.916396,None,1289.916396,None,None,None,None,None,1290.935749,None,1290.935749,None,left,0.201100692,1290.935749,None,1291.186412,1292.924328,None,None,,,,,,,,,,,,,120,1,19,1,2020_Mar_09_1114,Test,3.2.4,59.8444927,,
Pictures/IA100_L20.bmp,Pictures/IA100_L20.bmp,Pictures/IA100.bmp,"

Try to win as much money as you can"," gamble!""""",1,risk,,,,,2,0,2,0,0,14,14,14,,,,,,,,,,,,,,,,,,,,,,,,,,,,,,,1292.941028,None,1294.963033,1296.48371,1296.467019,None,1298.021105,None,2,0.287855583,1299.993003,None,1299.993003,None,1299.993003,None,None,None,None,None,1300.477603,None,1300.477603,None,left,0.243259633,1300.477603,None,1300.761681,1302.46617,None,None,,,,,,,,,,,,,120,1,19,1,2020_Mar_09_1114,Test,3.2.4,59.8444927,
Pictures/IA25_L15.bmp,Pictures/IA25_L15.bmp,Pictures/IA25.bmp,"

There's not much on the line here"," gamble!""""",1,risk,,,,,2,0,2,0,0,15,15,11,,,,,,,,,,,,,,,,,,,,,,,,,,,,,,,1302.48289,None,1304.504892,1306.008857,1305.992163,None,1307.562969,None,1,0.266020858,1309.534843,None,1309.534843,None,1309.534843,None,1309.935886,None,1309.935886,1310.938529,1312.041447,None,1312.041447,None,right,0.311406903,1312.041447,None,None,None,1312.392367,1314.030038,,,,,,,,,,,,,120,1,19,1,2020_Mar_09_1114,Test,3.2.4,59.8444927,
Pictures/IA75_L60.bmp,Pictures/IA75_L60.bmp,Pictures/IA75.bmp,"

Why not take the gamble?""""",1,risk,,,,,2,0,2,0,0,16,16,13,,,,,,,,,,,,,,,,,,,,,,,,,,,,,,,1314.046734,None,1316.068739,1317.589425,1317.572723,None,1319.126813,None,1,0.390177206,1321.098687,None,1321.098687,None,1321.098687,None,1321.616726,None,1321.616726,1322.619372,1323.722289,None,1323.722289,None,right,0.998577801,1323.722289,None,None,None,1324.758345,None,,,,,,,,,,,,,120,1,19,1,2020_Mar_09_1114,Test,3.2.4,59.8444927,,
Pictures/IA110_55_L95p.bmp,Pictures/IA110_55_L95p.bmp,Pictures/IA110.bmp,"

Trust me"," gamble!""""",1,risk,,,,,2,0,2,0,0,17,17,8,,,,,,,,,,,,,,,,,,,,,,,,,,,,,,,1325.744281,None,1327.782998,1329.30367,1329.286977,None,1330.841077,None,1,0.772638498,1332.796228,None,1332.796228,None,1332.796228,None,1333.681898,None,1333.681898,1334.68454,1335.787457,None,1335.787457,None,right,0.309410874,1335.787457,None,None,None,1336.13838,1337.77605,,,,,,,,,,,,,120,1,19,1,2020_Mar_09_1114,Test,3.2.4,59.8444927,
Pictures/IA75_G15.bmp,Pictures/IA75_G15.bmp,Pictures/IA75.bmp,"

Take a chance!""""",1,risk,,,,,2,0,2,0,0,18,18,18,,,,,,,,,,,,,,,,,,,,,,,,,,,,,,,1337.792745,None,1339.81475,1341.33543,1341.318736,None,1342.822697,None,2,1.308157526,1344.844707,None,1344.844707,None,1344.844707,None,None,None,None,None,1346.331966,None,1346.331966,None,right,0.196894612,1346.331966,None,None,None,1346.565902,1348.337256,,,,,,,,,,,,,120,1,19,1,2020_Mar_09_1114,Test,3.2.4,59.8444927,,
Pictures/IA100_G20.bmp,Pictures/IA100_G20.bmp,Pictures/IA100.bmp,"

Go ahead and gamble!""""",1,risk,,,,,2,0,2,0,0,19,19,3,,,,,,,,,,,,,,,,,,,,,,,,,,,,,,,1348.353959,None,1350.375968,1351.89664,1351.879944,None,1353.434033,None,1,0.346950686,1355.40591,None,1355.40591,None,1355.40591,None,1355.857095,None,1355.857095,1356.859741,1357.979367,None,1357.979367,None,right,0.197486764,1357.979367,None,None,None,1358.213324,1359.984653,,,,,,,,,,,,,120,1,19,1,2020_Mar_09_1114,Test,3.2.4,59.8444927,,
,,,,,,,,,,2,0,2,0,,,,,,,,,,,,,,,,,,,,,,,,,,,,,,,,,,,,,,,,,,,,,,,,,,,,,,,,,,,,,,,,,,,,,,,,,1360.151743,None,return,6.257102342,1360.151743,None,120,1,19,1,2020_Mar_09_1114,Test,3.2.4,59.8444927,,
Pictures/IA75_G60.bmp,Pictures/IA75_G60.bmp,Pictures/IA75.bmp,"

Make it exciting"," take a chance!""""",1,risk,,,,,3,0,3,0,0,0,0,8,,,,,,,,,,,,,1366.568713,None,1366.568713,None,1366.568713,None,left,0.968140954,1366.568713,None,1366.568713,None,1366.568713,None,return,2.127953659,1366.568713,None,1368.757812,None,1370.76312,1372.283798,1372.267077,None,1373.754336,None,2,0.32051897,1375.776356,None,1375.776356,None,1375.776356,None,None,None,None,None,1376.277663,None,1376.277663,None,left,0.227187001,1376.277663,None,1376.545045,1378.282966,None,None,,,,,,,,,,,,,120,1,19,1,2020_Mar_09_1114,Test,3.2.4,59.8444927,
Pictures/IA50_L40.bmp,Pictures/IA50_L40.bmp,Pictures/IA50.bmp,"

That gamble doesn't sound too good"," play it safe.""""",0,safe,,,,,3,0,3,0,0,1,1,18,,,,,,,,,,,,,,,,,,,,,,,,,,,,,,,1378.299663,None,1380.321669,1381.842349,1381.825656,None,1383.396452,None,1,0.521233462,1385.351633,None,1385.351633,None,1385.351633,None,1386.036756,None,1386.036756,1387.0394,1388.142315,None,1388.142315,None,left,0.282539309,1388.142315,None,1388.459816,1390.130894,None,None,,,,,,,,,,,,,120,1,19,1,2020_Mar_09_1114,Test,3.2.4,59.8444927,
Pictures/IA100_G60.bmp,Pictures/IA100_G60.bmp,Pictures/IA100.bmp,"

Be cautious"," don't gamble for this one.""""",0,safe,,,,,3,0,3,0,0,2,2,16,,,,,,,,,,,,,,,,,,,,,,,,,,,,,,,1390.14762,None,1392.169621,1393.690301,1393.673582,None,1395.227697,None,2,0.833296505,1397.199568,None,1397.199568,None,1397.199568,None,None,None,None,None,1398.202204,None,1398.202204,None,left,0.198649356,1398.202204,None,1398.436163,1400.207491,None,None,,,,,,,,,,,,,120,1,19,1,2020_Mar_09_1114,Test,3.2.4,59.8444927,
Pictures/IA100_G80.bmp,Pictures/IA100_G80.bmp,Pictures/IA100.bmp,"

Why not gamble?""""",1,risk,,,,,3,0,3,0,0,3,3,5,,,,,,,,,,,,,,,,,,,,,,,,,,,,,,,1400.224213,None,1402.246219,1403.766901,1403.750183,None,1405.321003,None,2,0.332712762,1407.276153,None,1407.276153,None,1407.276153,None,None,None,None,None,1407.760775,None,1407.760775,None,left,0.224094759,1407.760775,None,1408.028138,1409.766051,None,None,,,,,,,,,,,,,120,1,19,1,2020_Mar_09_1114,Test,3.2.4,59.8444927,,
Pictures/IA75_L15.bmp,Pictures/IA75_L15.bmp,Pictures/IA75.bmp,"

Trust me–gamble!""""",1,risk,,,,,3,0,3,0,0,4,4,7,,,,,,,,,,,,,,,,,,,,,,,,,,,,,,,1409.782777,None,1411.804782,1413.325462,1413.308742,None,1414.829435,None,2,0.286134083,1416.834731,None,1416.834731,None,1416.834731,None,None,None,None,None,1417.285908,None,1417.285908,None,left,0.218941665,1417.285908,None,1417.553293,1419.291208,None,None,,,,,,,,,,,,,120,1,19,1,2020_Mar_09_1114,Test,3.2.4,59.8444927,,
Pictures/IA100_L40.bmp,Pictures/IA100_L40.bmp,Pictures/IA100.bmp,"

Think of the payoff"," gamble!""""",1,risk,,,,,3,0,3,0,0,5,5,1,,,,,,,,,,,,,,,,,,,,,,,,,,,,,,,1419.307908,None,1421.329913,1422.850591,1422.833898,None,1424.4047,None,1,0.280989194,1426.359871,None,1426.359871,None,1426.359871,None,1426.744217,None,1426.744217,1427.74686,1428.866487,None,1428.866487,None,right,0.814366265,1428.866487,None,None,None,1429.718732,1430.855067,,,,,,,,,,,,,120,1,19,1,2020_Mar_09_1114,Test,3.2.4,59.8444927,
Pictures/IA100_L80.bmp,Pictures/IA100_L80.bmp,Pictures/IA100.bmp,"

Go all in!""""",1,risk,,,,,3,0,3,0,0,6,6,13,,,,,,,,,,,,,,,,,,,,,,,,,,,,,,,1430.871769,None,1432.893769,1434.414452,1434.397757,None,1435.901712,None,1,0.277127701,1437.923733,None,1437.923733,None,1437.923733,None,1438.274653,None,1438.274653,1439.277296,1440.380211,None,1440.380211,None,right,0.276644872,1440.380211,None,None,None,1440.697713,1442.36879,,,,,,,,,,,,,120,1,19,1,2020_Mar_09_1114,Test,3.2.4,59.8444927,,
Pictures/IA25_G10.bmp,Pictures/IA25_G10.bmp,Pictures/IA25.bmp,"

What's life without a little risk?""""",1,risk,,,,,3,0,3,0,0,7,7,11,,,,,,,,,,,,,,,,,,,,,,,,,,,,,,,1442.385488,None,1444.407495,1445.928174,1445.911478,None,1447.465567,None,1,0.779425484,1449.43744,None,1449.43744,None,1449.43744,None,1450.339819,None,1450.339819,1451.342475,1452.445381,None,1452.445381,None,right,0.331468851,1452.445381,None,None,None,1452.813025,1454.450669,,,,,,,,,,,,,120,1,19,1,2020_Mar_09_1114,Test,3.2.4,59.8444927,,
Pictures/IA80_40_G95p.bmp,Pictures/IA80_40_G95p.bmp,Pictures/IA80.bmp,"

Think of the payoff"," gamble!""""",1,risk,,,,,3,0,3,0,0,8,8,9,,,,,,,,,,,,,,,,,,,,,,,,,,,,,,,1454.46739,None,1456.489396,1458.010083,1457.993366,None,1459.497338,None,2,0.56146961,1461.519395,None,1461.519395,None,1461.519395,None,None,None,None,None,1462.237905,None,1462.237905,None,left,0.274953524,1462.237905,None,1462.555406,1464.226485,None,None,,,,,,,,,,,,,120,1,19,1,2020_Mar_09_1114,Test,3.2.4,59.8444927,
Pictures/IA50_G20.bmp,Pictures/IA50_G20.bmp,Pictures/IA50.bmp,"

Let's venture and take a risk!""""",1,risk,,,,,3,0,3,0,0,9,9,14,,,,,,,,,,,,,,,,,,,,,,,,,,,,,,,1464.243183,None,1466.265195,1467.785868,1467.769172,None,1469.306552,None,2,0.489717687,1471.295147,None,1471.295147,None,1471.295147,None,None,None,None,None,1471.946853,None,1471.946853,None,right,0.206004917,1471.946853,None,None,None,1472.197517,1473.935432,,,,,,,,,,,,,120,1,19,1,2020_Mar_09_1114,Test,3.2.4,59.8444927,,
Pictures/IA100_G40.bmp,Pictures/IA100_G40.bmp,Pictures/IA100.bmp,"

Try your luck and gamble!""""",1,risk,,,,,3,0,3,0,0,10,10,6,,,,,,,,,,,,,,,,,,,,,,,,,,,,,,,1473.952157,None,1475.974162,1477.494843,1477.478121,None,1478.982103,None,1,0.284761161,1481.004098,None,1481.004098,None,1481.004098,None,1481.40517,None,1481.40517,1482.40781,1483.544147,None,1483.544147,None,right,0.368713075,1483.544147,None,None,None,1483.961912,1485.532724,,,,,,,,,,,,,120,1,19,1,2020_Mar_09_1114,Test,3.2.4,59.8444927,,
Pictures/IA75_G15.bmp,Pictures/IA75_G15.bmp,Pictures/IA75.bmp,"

Take a chance!""""",1,risk,,,,,3,0,3,0,0,11,11,2,,,,,,,,,,,,,,,,,,,,,,,,,,,,,,,1485.549424,None,1487.571429,1489.092107,1489.075412,None,1490.61279,None,2,0.711486975,1492.601386,None,1492.601386,None,1492.601386,None,None,None,None,None,1493.470346,None,1493.470346,None,right,0.210522363,1493.470346,None,None,None,1493.721003,1495.45891,,,,,,,,,,,,,120,1,19,1,2020_Mar_09_1114,Test,3.2.4,59.8444927,,
Pictures/IA25_L5.bmp,Pictures/IA25_L5.bmp,Pictures/IA25.bmp,"

It would be smarter to choose the safe option.""""",0,safe,,,,,3,0,3,0,0,12,12,4,,,,,,,,,,,,,,,,,,,,,,,,,,,,,,,1495.475636,None,1497.497642,1499.018322,1499.001608,None,1500.505585,None,2,0.289301126,1502.527575,None,1502.527575,None,1502.527575,None,None,None,None,None,1502.995496,None,1502.995496,None,left,0.221368603,1502.995496,None,1503.262846,1505.000776,None,None,,,,,,,,,,,,,120,1,19,1,2020_Mar_09_1114,Test,3.2.4,59.8444927,,
Pictures/IA80_40_L95p.bmp,Pictures/IA80_40_L95p.bmp,Pictures/IA80.bmp,"

Let's stay with the certain option.""""",0,safe,,,,,3,0,3,0,0,13,13,10,,,,,,,,,,,,,,,,,,,,,,,,,,,,,,,1505.017492,None,1507.039494,1508.560172,1508.543458,None,1510.097568,None,2,0.547436523,1512.069441,None,1512.069441,None,1512.069441,None,None,None,None,None,1512.788004,None,1512.788004,None,right,0.156847667,1512.788004,None,None,None,1512.988529,1514.793248,,,,,,,,,,,,,120,1,19,1,2020_Mar_09_1114,Test,3.2.4,59.8444927,,
Pictures/IA50_L20.bmp,Pictures/IA50_L20.bmp,Pictures/IA50.bmp,"

Certainty is boring"," take a risk!""""",1,risk,,,,,3,0,3,0,0,14,14,0,,,,,,,,,,,,,,,,,,,,,,,,,,,,,,,1514.810005,None,1516.832009,1518.352687,1518.335971,None,1519.873372,None,1,0.234926214,1521.861943,None,1521.861943,None,1521.861943,None,1522.212869,None,1522.212869,1523.215511,1524.318428,None,1524.318428,None,right,0.418430273,1524.318428,None,None,None,1524.786342,1526.323729,,,,,,,,,,,,,120,1,19,1,2020_Mar_09_1114,Test,3.2.4,59.8444927,
Pictures/IA50_L30.bmp,Pictures/IA50_L30.bmp,Pictures/IA50.bmp,"

Take a leap"," I think you should gamble.""""",1,risk,,,,,3,0,3,0,0,15,15,17,,,,,,,,,,,,,,,,,,,,,,,,,,,,,,,1526.340427,None,1528.362435,1529.883113,1529.866418,None,1531.387086,None,1,0.744485438,1533.392378,None,1533.392378,None,1533.392378,None,1534.278049,None,1534.278049,1535.280691,1536.38361,None,1536.38361,None,right,0.313242621,1536.38361,None,None,None,1536.734535,1538.372198,,,,,,,,,,,,,120,1,19,1,2020_Mar_09_1114,Test,3.2.4,59.8444927,
Pictures/IA25_L10.bmp,Pictures/IA25_L10.bmp,Pictures/IA25.bmp,"

Dont be afraid to take the risk!""""",1,risk,,,,,3,0,3,0,0,16,16,15,,,,,,,,,,,,,,,,,,,,,,,,,,,,,,,1538.388896,None,1540.410903,1541.931581,1541.914887,None,1543.468979,None,2,0.56798049,1545.440863,None,1545.440863,None,1545.440863,None,None,None,None,None,1546.159422,None,1546.159422,None,left,0.209435571,1546.159422,None,1546.410082,1548.148004,None,None,,,,,,,,,,,,,120,1,19,1,2020_Mar_09_1114,Test,3.2.4,59.8444927,,
Pictures/IA20_10_L95p.bmp,Pictures/IA20_10_L95p.bmp,Pictures/IA20.bmp,"

Don't be tempted to gamble.""""",0,safe,,,,,3,0,3,0,0,17,17,12,,,,,,,,,,,,,,,,,,,,,,,,,,,,,,,1548.164742,None,1550.186706,1551.707391,1551.690691,None,1553.211358,None,1,0.904215388,1555.216654,None,1555.216654,None,1555.216654,None,1556.252723,None,1556.252723,1557.255365,1558.391705,None,1558.391705,None,right,0.273151872,1558.391705,None,None,None,1558.709202,1560.380279,,,,,,,,,,,,,120,1,19,1,2020_Mar_09_1114,Test,3.2.4,59.8444927,,
Pictures/IA25_G15.bmp,Pictures/IA25_G15.bmp,Pictures/IA25.bmp,"

I think you should take a gamble.""""",1,risk,,,,,3,0,3,0,0,18,18,3,,,,,,,,,,,,,,,,,,,,,,,,,,,,,,,1560.397002,None,1562.419017,1563.939688,1563.922974,None,1565.44366,None,1,0.975910861,1567.448954,None,1567.448954,None,1567.448954,None,1568.551868,None,1568.551868,1569.554508,1570.674136,None,1570.674136,None,right,0.55071343,1570.674136,None,None,None,1571.25901,1572.662713,,,,,,,,,,,,,120,1,19,1,2020_Mar_09_1114,Test,3.2.4,59.8444927,,
Pictures/IA75_G45.bmp,Pictures/IA75_G45.bmp,Pictures/IA75.bmp,"

Don't gamble for this one.""""",0,safe,,,,,3,0,3,0,0,19,19,19,,,,,,,,,,,,,,,,,,,,,,,,,,,,,,,1572.679412,None,1574.701423,1576.222095,1576.2054,None,1577.726071,None,2,1.053494971,1579.731367,None,1579.731367,None,1579.731367,None,None,None,None,None,1580.951263,None,1580.951263,None,left,0.777597256,1580.951263,None,1581.770087,1582.939832,None,None,,,,,,,,,,,,,120,1,19,1,2020_Mar_09_1114,Test,3.2.4,59.8444927,,
,,,,,,,,,,3,0,3,0,,,,,,,,,,,,,,,,,,,,,,,,,,,,,,,,,,,,,,,,,,,,,,,,,,,,,,,,,,,,,,,,,,,,,,,,,1583.106955,None,return,3.981892781,1583.106955,None,120,1,19,1,2020_Mar_09_1114,Test,3.2.4,59.8444927,,
Pictures/IA100_G80.bmp,Pictures/IA100_G80.bmp,Pictures/IA100.bmp,"

Why not gamble?""""",1,risk,,,,,4,0,4,0,0,0,0,1,,,,,,,,,,,,,1587.251227,None,1587.251227,None,1587.251227,None,left,1.069620132,1587.251227,None,1587.251227,None,1587.251227,None,return,2.629407798,1587.251227,None,1589.92494,None,1591.94694,1593.467621,1593.450924,None,1594.938184,None,2,0.360688564,1596.960175,None,1596.960175,None,1596.960175,None,None,None,None,None,1597.494922,None,1597.494922,None,left,0.19393468,1597.494922,None,1597.728881,1599.50021,None,None,,,,,,,,,,,,,120,1,19,1,2020_Mar_09_1114,Test,3.2.4,59.8444927,,
Pictures/IA50_G10.bmp,Pictures/IA50_G10.bmp,Pictures/IA50.bmp,"

Go with the safe option here!""""",0,safe,,,,,4,0,4,0,0,1,1,16,,,,,,,,,,,,,,,,,,,,,,,,,,,,,,,1599.516941,None,1601.538938,1603.059618,1603.042898,None,1604.597013,None,2,0.383968945,1606.568888,None,1606.568888,None,1606.568888,None,None,None,None,None,1607.120341,None,1607.120341,None,right,0.20852065,1607.120341,None,None,None,1607.370998,1609.108922,,,,,,,,,,,,,120,1,19,1,2020_Mar_09_1114,Test,3.2.4,59.8444927,,
Pictures/IA50_G30.bmp,Pictures/IA50_G30.bmp,Pictures/IA50.bmp,"

I think you should gamble.""""",1,risk,,,,,4,0,4,0,0,2,2,5,,,,,,,,,,,,,,,,,,,,,,,,,,,,,,,1609.125618,None,1611.147628,1612.668302,1612.651613,None,1614.188988,None,2,0.791291639,1616.177585,None,1616.177585,None,1616.177585,None,None,None,None,None,1617.146799,None,1617.146799,None,left,0.174065661,1617.146799,None,1617.364037,1619.135386,None,None,,,,,,,,,,,,,120,1,19,1,2020_Mar_09_1114,Test,3.2.4,59.8444927,,
Pictures/IA40_20_G95p.bmp,Pictures/IA40_20_G95p.bmp,Pictures/IA40.bmp,"

Hold back"," stay with the safe choice.""""",0,safe,,,,,4,0,4,0,0,3,3,2,,,,,,,,,,,,,,,,,,,,,,,,,,,,,,,1619.152084,None,1621.190803,1622.71148,1622.694787,None,1624.232175,None,1,1.244813611,1626.204051,None,1626.204051,None,1626.204051,None,1627.591053,None,1627.591053,1628.593693,1629.696607,None,1629.696607,None,left,0.256251981,1629.696607,None,1629.99739,1631.701892,None,None,,,,,,,,,,,,,120,1,19,1,2020_Mar_09_1114,Test,3.2.4,59.8444927,
Pictures/IA25_L15.bmp,Pictures/IA25_L15.bmp,Pictures/IA25.bmp,"

There's not much on the line here"," gamble!""""",1,risk,,,,,4,0,4,0,0,4,4,8,,,,,,,,,,,,,,,,,,,,,,,,,,,,,,,1631.71859,None,1633.740598,1635.261276,1635.244582,None,1636.781961,None,1,0.750298915,1638.770559,None,1638.770559,None,1638.770559,None,1639.67294,None,1639.67294,1640.675578,1641.928895,None,1641.928895,None,right,0.327960041,1641.928895,None,None,None,1642.296514,1643.934182,,,,,,,,,,,,,120,1,19,1,2020_Mar_09_1114,Test,3.2.4,59.8444927,
Pictures/IA50_G40.bmp,Pictures/IA50_G40.bmp,Pictures/IA50.bmp,"

It would probably be best to play it safe.""""",0,safe,,,,,4,0,4,0,0,5,5,14,,,,,,,,,,,,,,,,,,,,,,,,,,,,,,,1643.95088,None,1645.972886,1647.493564,1647.476875,None,1648.997548,None,2,0.326031371,1651.002833,None,1651.002833,None,1651.002833,None,None,None,None,None,1651.520879,None,1651.520879,None,left,0.191975135,1651.520879,None,1651.754818,1653.526166,None,None,,,,,,,,,,,,,120,1,19,1,2020_Mar_09_1114,Test,3.2.4,59.8444927,,
Pictures/IA110_55_G95p.bmp,Pictures/IA110_55_G95p.bmp,Pictures/IA110.bmp,"

Take a chance!""""",1,risk,,,,,4,0,4,0,0,6,6,9,,,,,,,,,,,,,,,,,,,,,,,,,,,,,,,1653.542868,None,1655.564874,1657.085553,1657.068858,None,1658.622952,None,2,1.246043107,1660.594821,None,1660.594821,None,1660.594821,None,None,None,None,None,1662.031947,None,1662.031947,None,left,0.200913819,1662.031947,None,1662.282611,1664.020555,None,None,,,,,,,,,,,,,120,1,19,1,2020_Mar_09_1114,Test,3.2.4,59.8444927,,
Pictures/IA25_G20.bmp,Pictures/IA25_G20.bmp,Pictures/IA25.bmp,"

I wouldn't gamble for this one. """"",0,safe,,,,,4,0,4,0,0,7,7,15,,,,,,,,,,,,,,,,,,,,,,,,,,,,,,,1664.037249,None,1666.059253,1667.563224,1667.546487,None,1669.083894,None,2,0.367676886,1671.089189,None,1671.089189,None,1671.089189,None,None,None,None,None,1671.640656,None,1671.640656,None,left,0.21619172,1671.640656,None,1671.891315,1673.629234,None,None,,,,,,,,,,,,,120,1,19,1,2020_Mar_09_1114,Test,3.2.4,59.8444927,,
Pictures/IA40_20_L95p.bmp,Pictures/IA40_20_L95p.bmp,Pictures/IA40.bmp,"

Trust me"," gamble!""""",1,risk,,,,,4,0,4,0,0,8,8,6,,,,,,,,,,,,,,,,,,,,,,,,,,,,,,,1673.645938,None,1675.667944,1677.188619,1677.171927,None,1678.726013,None,2,0.430975089,1680.697889,None,1680.697889,None,1680.697889,None,None,None,None,None,1681.282776,None,1681.282776,None,right,0.118083304,1681.282776,None,None,None,1681.449873,1683.288065,,,,,,,,,,,,,120,1,19,1,2020_Mar_09_1114,Test,3.2.4,59.8444927,
Pictures/IA100_G20.bmp,Pictures/IA100_G20.bmp,Pictures/IA100.bmp,"

Go ahead and gamble!""""",1,risk,,,,,4,0,4,0,0,9,9,3,,,,,,,,,,,,,,,,,,,,,,,,,,,,,,,1683.304764,None,1685.32677,1686.847453,1686.830756,None,1688.351422,None,1,0.780146311,1690.356718,None,1690.356718,None,1690.356718,None,1691.24239,None,1691.24239,1692.245033,1693.347949,None,1693.347949,None,right,0.24491003,1693.347949,None,None,None,1693.632027,1695.353238,,,,,,,,,,,,,120,1,19,1,2020_Mar_09_1114,Test,3.2.4,59.8444927,,
Pictures/IA100_L20.bmp,Pictures/IA100_L20.bmp,Pictures/IA100.bmp,"

Try to win as much money as you can"," gamble!""""",1,risk,,,,,4,0,4,0,0,10,10,0,,,,,,,,,,,,,,,,,,,,,,,,,,,,,,,1695.369959,None,1697.391966,1698.912645,1698.895925,None,1700.433332,None,2,0.330960602,1702.4219,None,1702.4219,None,1702.4219,None,None,None,None,None,1702.923236,None,1702.923236,None,left,0.445620001,1702.923236,None,1703.407844,1704.911816,None,None,,,,,,,,,,,,,120,1,19,1,2020_Mar_09_1114,Test,3.2.4,59.8444927,
Pictures/IA80_40_G95p.bmp,Pictures/IA80_40_G95p.bmp,Pictures/IA80.bmp,"

Think of the payoff"," gamble!""""",1,risk,,,,,4,0,4,0,0,11,11,17,,,,,,,,,,,,,,,,,,,,,,,,,,,,,,,1704.928514,None,1706.950519,1708.454501,1708.43778,None,1709.975175,None,2,1.044396152,1711.980472,None,1711.980472,None,1711.980472,None,None,None,None,None,1713.183646,None,1713.183646,None,left,0.265209225,1713.183646,None,1713.484444,1715.188931,None,None,,,,,,,,,,,,,120,1,19,1,2020_Mar_09_1114,Test,3.2.4,59.8444927,
Pictures/IA100_L60.bmp,Pictures/IA100_L60.bmp,Pictures/IA100.bmp,"

You'd have a lot to lose"," don't gamble.""""",0,safe,,,,,4,0,4,0,0,12,12,12,,,,,,,,,,,,,,,,,,,,,,,,,,,,,,,1715.205656,None,1717.227662,1718.748339,1718.731622,None,1720.252314,None,1,0.935255576,1722.257608,None,1722.257608,None,1722.257608,None,1723.327084,None,1723.327084,1724.329727,1725.466068,None,1725.466068,None,left,0.374787128,1725.466068,None,1725.883831,1727.454658,None,None,,,,,,,,,,,,,120,1,19,1,2020_Mar_09_1114,Test,3.2.4,59.8444927,
Pictures/IA25_L20.bmp,Pictures/IA25_L20.bmp,Pictures/IA25.bmp,"

Don't be tempted to gamble.""""",0,safe,,,,,4,0,4,0,0,13,13,18,,,,,,,,,,,,,,,,,,,,,,,,,,,,,,,1727.471356,None,1729.493367,1731.014042,1730.997356,None,1732.518013,None,1,0.525560208,1734.52331,None,1734.52331,None,1734.52331,None,1735.158296,None,1735.158296,1736.160973,1737.263889,None,1737.263889,None,left,0.61696318,1737.263889,None,1737.915608,1739.252467,None,None,,,,,,,,,,,,,120,1,19,1,2020_Mar_09_1114,Test,3.2.4,59.8444927,,
Pictures/IA20_10_G95p.bmp,Pictures/IA20_10_G95p.bmp,Pictures/IA20.bmp,"

Take a leap"," I think you should gamble.""""",1,risk,,,,,4,0,4,0,0,14,14,19,,,,,,,,,,,,,,,,,,,,,,,,,,,,,,,1739.269168,None,1741.291173,1742.811852,1742.795158,None,1744.34921,None,2,1.007747733,1746.321119,None,1746.321119,None,1746.321119,None,None,None,None,None,1747.524298,None,1747.524298,None,left,0.324557339,1747.524298,None,1747.89194,1749.529586,None,None,,,,,,,,,,,,,120,1,19,1,2020_Mar_09_1114,Test,3.2.4,59.8444927,
Pictures/IA75_L30.bmp,Pictures/IA75_L30.bmp,Pictures/IA75.bmp,"

Hold back"," stay with the safe choice.""""",0,safe,,,,,4,0,4,0,0,15,15,11,,,,,,,,,,,,,,,,,,,,,,,,,,,,,,,1749.546309,None,1751.568317,1753.088994,1753.072275,None,1754.65981,None,1,0.290606421,1756.598264,None,1756.598264,None,1756.598264,None,1757.032733,None,1757.032733,1758.035372,1759.138289,None,1759.138289,None,left,0.286569903,1759.138289,None,1759.472514,1761.143593,None,None,,,,,,,,,,,,,120,1,19,1,2020_Mar_09_1114,Test,3.2.4,59.8444927,
Pictures/IA50_L30.bmp,Pictures/IA50_L30.bmp,Pictures/IA50.bmp,"

Take a leap"," I think you should gamble.""""",1,risk,,,,,4,0,4,0,0,16,16,4,,,,,,,,,,,,,,,,,,,,,,,,,,,,,,,1761.160292,None,1763.182295,1764.702976,1764.68628,None,1766.190235,None,1,0.556606868,1768.212261,None,1768.212261,None,1768.212261,None,1768.914095,None,1768.914095,1769.916737,1771.019655,None,1771.019655,None,right,0.341201141,1771.019655,None,None,None,1771.403996,1773.008246,,,,,,,,,,,,,120,1,19,1,2020_Mar_09_1114,Test,3.2.4,59.8444927,
Pictures/IA100_L40.bmp,Pictures/IA100_L40.bmp,Pictures/IA100.bmp,"

Think of the payoff"," gamble!""""",1,risk,,,,,4,0,4,0,0,17,17,13,,,,,,,,,,,,,,,,,,,,,,,,,,,,,,,1773.024967,None,1775.063695,1776.56766,1776.534223,None,1778.105029,None,2,0.78797003,1780.076897,None,1780.076897,None,1780.076897,None,None,None,None,None,1781.046135,None,1781.046135,None,left,0.106723154,1781.046135,None,1781.19653,1783.034702,None,None,,,,,,,,,,,,,120,1,19,1,2020_Mar_09_1114,Test,3.2.4,59.8444927,
Pictures/IA25_G5.bmp,Pictures/IA25_G5.bmp,Pictures/IA25.bmp,"

Let's stay with the certain option.""""",0,safe,,,,,4,0,4,0,0,18,18,7,,,,,,,,,,,,,,,,,,,,,,,,,,,,,,,1783.051426,None,1785.090159,1786.5941,1786.577403,None,1788.148201,None,2,0.945488293,1790.103379,None,1790.103379,None,1790.103379,None,None,None,None,None,1791.273139,None,1791.273139,None,right,0.24775423,1791.273139,None,None,None,1791.557249,1793.261699,,,,,,,,,,,,,120,1,19,1,2020_Mar_09_1114,Test,3.2.4,59.8444927,,
Pictures/IA50_L20.bmp,Pictures/IA50_L20.bmp,Pictures/IA50.bmp,"

Certainty is boring"," take a risk!""""",1,risk,,,,,4,0,4,0,0,19,19,10,,,,,,,,,,,,,,,,,,,,,,,,,,,,,,,1793.278429,None,1795.317139,1796.821096,1796.804402,None,1798.35849,None,2,0.862495973,1800.330364,None,1800.330364,None,1800.330364,None,None,None,None,None,1801.399866,None,1801.399866,None,right,0.184989685,1801.399866,None,None,None,1801.633804,1803.405156,,,,,,,,,,,,,120,1,19,1,2020_Mar_09_1114,Test,3.2.4,59.8444927,
,,,,,,,,,,4,0,4,0,,,,,,,,,,,,,,,,,,,,,,,,,,,,,,,,,,,,,,,,,,,,,,,,,,,,,,,,,,,,,,,,,,,,,,,,,1803.572255,None,return,10.8685901,1803.572255,None,120,1,19,1,2020_Mar_09_1114,Test,3.2.4,59.8444927,,
Pictures/IA40_20_G95p.bmp,Pictures/IA40_20_G95p.bmp,Pictures/IA40.bmp,"

Hold back"," stay with the safe choice.""""",0,safe,,,,,5,0,5,0,0,0,0,19,,,,,,,,,,,,,1814.634807,None,1814.634807,None,1814.634807,None,right,1.166045496,1814.634807,None,1814.634807,None,1814.634807,None,return,3.141864312,1814.634807,None,1817.843275,None,1819.865267,1821.369248,1821.352529,None,1822.839785,None,2,1.003059458,1824.861811,None,1824.861811,None,1824.861811,None,None,None,None,None,1826.048235,None,1826.048235,None,left,0.224622686,1826.048235,None,1826.315625,1828.053547,None,None,,,,,,,,,,,,,120,1,19,1,2020_Mar_09_1114,Test,3.2.4,59.8444927,
Pictures/IA50_G40.bmp,Pictures/IA50_G40.bmp,Pictures/IA50.bmp,"

It would probably be best to play it safe.""""",0,safe,,,,,5,0,5,0,0,1,1,17,,,,,,,,,,,,,,,,,,,,,,,,,,,,,,,1828.070272,None,1830.09228,1831.612957,1831.596241,None,1833.133645,None,2,0.566653289,1835.122212,None,1835.122212,None,1835.122212,None,None,None,None,None,1835.857498,None,1835.857498,None,left,0.263352616,1835.857498,None,1836.158281,1837.86279,None,None,,,,,,,,,,,,,120,1,19,1,2020_Mar_09_1114,Test,3.2.4,59.8444927,,
Pictures/IA80_40_G95p.bmp,Pictures/IA80_40_G95p.bmp,Pictures/IA80.bmp,"

Think of the payoff"," gamble!""""",1,risk,,,,,5,0,5,0,0,2,2,10,,,,,,,,,,,,,,,,,,,,,,,,,,,,,,,1837.879488,None,1839.918207,1841.422187,1841.405473,None,1842.942871,None,2,0.709420923,1844.931448,None,1844.931448,None,1844.931448,None,None,None,None,None,1845.817115,None,1845.817115,None,left,0.271742699,1845.817115,None,1846.134616,1847.805693,None,None,,,,,,,,,,,,,120,1,19,1,2020_Mar_09_1114,Test,3.2.4,59.8444927,
Pictures/IA25_G15.bmp,Pictures/IA25_G15.bmp,Pictures/IA25.bmp,"

I think you should take a gamble.""""",1,risk,,,,,5,0,5,0,0,3,3,0,,,,,,,,,,,,,,,,,,,,,,,,,,,,,,,1847.822423,None,1849.844425,1851.365101,1851.348387,None,1852.885786,None,2,0.582506014,1854.874358,None,1854.874358,None,1854.874358,None,None,None,None,None,1855.626345,None,1855.626345,None,right,0.206508951,1855.626345,None,None,None,1855.877002,1857.614925,,,,,,,,,,,,,120,1,19,1,2020_Mar_09_1114,Test,3.2.4,59.8444927,,
Pictures/IA110_55_L95p.bmp,Pictures/IA110_55_L95p.bmp,Pictures/IA110.bmp,"

Trust me"," gamble!""""",1,risk,,,,,5,0,5,0,0,4,4,7,,,,,,,,,,,,,,,,,,,,,,,,,,,,,,,1857.631646,None,1859.687076,1861.191037,1861.174337,None,1862.71173,None,1,0.725257703,1864.683606,None,1864.683606,None,1864.683606,None,1865.519128,None,1865.519128,1866.521769,1867.624687,None,1867.624687,None,right,0.416169131,1867.624687,None,None,None,1868.075874,1869.613266,,,,,,,,,,,,,120,1,19,1,2020_Mar_09_1114,Test,3.2.4,59.8444927,
Pictures/IA100_G20.bmp,Pictures/IA100_G20.bmp,Pictures/IA100.bmp,"

Go ahead and gamble!""""",1,risk,,,,,5,0,5,0,0,5,5,1,,,,,,,,,,,,,,,,,,,,,,,,,,,,,,,1869.629994,None,1871.651996,1873.172677,1873.155956,None,1874.710072,None,1,0.854922173,1876.681944,None,1876.681944,None,1876.681944,None,1877.634452,None,1877.634452,1878.63709,1879.790138,None,1879.790138,None,right,0.474718813,1879.790138,None,None,None,1880.308169,1881.778715,,,,,,,,,,,,,120,1,19,1,2020_Mar_09_1114,Test,3.2.4,59.8444927,,
Pictures/IA75_L30.bmp,Pictures/IA75_L30.bmp,Pictures/IA75.bmp,"

Hold back"," stay with the safe choice.""""",0,safe,,,,,5,0,5,0,0,6,6,16,,,,,,,,,,,,,,,,,,,,,,,,,,,,,,,1881.795441,None,1883.834158,1885.354839,1885.338117,None,1886.858803,None,1,0.809468896,1888.847395,None,1888.847395,None,1888.847395,None,1889.799909,None,1889.799909,1890.802552,1891.90547,None,1891.90547,None,left,0.399384609,1891.90547,None,1892.339933,1893.910761,None,None,,,,,,,,,,,,,120,1,19,1,2020_Mar_09_1114,Test,3.2.4,59.8444927,
Pictures/IA80_40_L95p.bmp,Pictures/IA80_40_L95p.bmp,Pictures/IA80.bmp,"

Let's stay with the certain option.""""",0,safe,,,,,5,0,5,0,0,7,7,3,,,,,,,,,,,,,,,,,,,,,,,,,,,,,,,1893.927458,None,1895.949464,1897.470144,1897.453448,None,1899.007537,None,2,0.357461431,1900.979411,None,1900.979411,None,1900.979411,None,None,None,None,None,1901.514168,None,1901.514168,None,right,0.246685735,1901.514168,None,None,None,1901.798248,1903.502736,,,,,,,,,,,,,120,1,19,1,2020_Mar_09_1114,Test,3.2.4,59.8444927,,
Pictures/IA75_L45.bmp,Pictures/IA75_L45.bmp,Pictures/IA75.bmp,"

Don't gamble for this one"," play it safe.""""",0,safe,,,,,5,0,5,0,0,8,8,12,,,,,,,,,,,,,,,,,,,,,,,,,,,,,,,1903.51946,None,1905.541467,1907.062147,1907.045431,None,1908.599539,None,1,0.781453668,1910.571416,None,1910.571416,None,1910.571416,None,1911.490505,None,1911.490505,1912.493149,1913.596074,None,1913.596074,None,left,0.292779107,1913.596074,None,1913.930266,1915.584633,None,None,,,,,,,,,,,,,120,1,19,1,2020_Mar_09_1114,Test,3.2.4,59.8444927,
Pictures/IA75_L60.bmp,Pictures/IA75_L60.bmp,Pictures/IA75.bmp,"

Why not take the gamble?""""",1,risk,,,,,5,0,5,0,0,9,9,4,,,,,,,,,,,,,,,,,,,,,,,,,,,,,,,1915.601354,None,1917.623365,1919.144043,1919.127323,None,1920.698148,None,1,0.811563377,1922.6533,None,1922.6533,None,1922.6533,None,1923.572392,None,1923.572392,1924.575036,1925.677951,None,1925.677951,None,right,0.346904942,1925.677951,None,None,None,1926.062296,1927.66653,,,,,,,,,,,,,120,1,19,1,2020_Mar_09_1114,Test,3.2.4,59.8444927,,
Pictures/IA110_55_G95p.bmp,Pictures/IA110_55_G95p.bmp,Pictures/IA110.bmp,"

Take a chance!""""",1,risk,,,,,5,0,5,0,0,10,10,13,,,,,,,,,,,,,,,,,,,,,,,,,,,,,,,1927.683253,None,1929.705264,1931.225941,1931.209221,None,1932.746624,None,2,1.025667222,1934.735197,None,1934.735197,None,1934.735197,None,None,None,None,None,1935.921675,None,1935.921675,None,left,0.287182134,1935.921675,None,1936.255874,1937.926952,None,None,,,,,,,,,,,,,120,1,19,1,2020_Mar_09_1114,Test,3.2.4,59.8444927,,
Pictures/IA50_L40.bmp,Pictures/IA50_L40.bmp,Pictures/IA50.bmp,"

That gamble doesn't sound too good"," play it safe.""""",0,safe,,,,,5,0,5,0,0,11,11,2,,,,,,,,,,,,,,,,,,,,,,,,,,,,,,,1937.943676,None,1939.965682,1941.486366,1941.469645,None,1943.023757,None,2,0.925217662,1944.99564,None,1944.99564,None,1944.99564,None,None,None,None,None,1946.115246,None,1946.115246,None,right,0.301614035,1946.115246,None,None,None,1946.466166,1948.103834,,,,,,,,,,,,,120,1,19,1,2020_Mar_09_1114,Test,3.2.4,59.8444927,
Pictures/IA75_G60.bmp,Pictures/IA75_G60.bmp,Pictures/IA75.bmp,"

Make it exciting"," take a chance!""""",1,risk,,,,,5,0,5,0,0,12,12,6,,,,,,,,,,,,,,,,,,,,,,,,,,,,,,,1948.120532,None,1950.142504,1951.663219,1951.646527,None,1953.217325,None,1,0.32436318,1955.172501,None,1955.172501,None,1955.172501,None,1955.640387,None,1955.640387,1956.643032,1957.74595,None,1957.74595,None,right,0.366900001,1957.74595,None,None,None,1958.147015,1959.751251,,,,,,,,,,,,,120,1,19,1,2020_Mar_09_1114,Test,3.2.4,59.8444927,
Pictures/IA25_L20.bmp,Pictures/IA25_L20.bmp,Pictures/IA25.bmp,"

Don't be tempted to gamble.""""",0,safe,,,,,5,0,5,0,0,13,13,5,,,,,,,,,,,,,,,,,,,,,,,,,,,,,,,1959.767949,None,1961.806667,1963.310649,1963.29393,None,1964.831364,None,2,0.596964414,1966.819907,None,1966.819907,None,1966.819907,None,None,None,None,None,1967.588614,None,1967.588614,None,left,0.428242878,1967.588614,None,1968.0565,1969.593893,None,None,,,,,,,,,,,,,120,1,19,1,2020_Mar_09_1114,Test,3.2.4,59.8444927,,
Pictures/IA100_L60.bmp,Pictures/IA100_L60.bmp,Pictures/IA100.bmp,"

You'd have a lot to lose"," don't gamble.""""",0,safe,,,,,5,0,5,0,0,14,14,18,,,,,,,,,,,,,,,,,,,,,,,,,,,,,,,1969.610614,None,1971.632627,1973.136582,1973.119885,None,1974.690695,None,1,1.186285405,1976.662577,None,1976.662577,None,1976.662577,None,1977.982726,None,1977.982726,1978.985379,1980.121704,None,1980.121704,None,left,0.439155952,1980.121704,None,1980.606338,1982.110284,None,None,,,,,,,,,,,,,120,1,19,1,2020_Mar_09_1114,Test,3.2.4,59.8444927,
Pictures/IA50_L20.bmp,Pictures/IA50_L20.bmp,Pictures/IA50.bmp,"

Certainty is boring"," take a risk!""""",1,risk,,,,,5,0,5,0,0,15,15,15,,,,,,,,,,,,,,,,,,,,,,,,,,,,,,,1982.126981,None,1984.148988,1985.669668,1985.652972,None,1987.156934,None,2,0.701918845,1989.17895,None,1989.17895,None,1989.17895,None,None,None,None,None,1990.047903,None,1990.047903,None,right,0.248952283,1990.047903,None,None,None,1990.331977,1992.03649,,,,,,,,,,,,,120,1,19,1,2020_Mar_09_1114,Test,3.2.4,59.8444927,
Pictures/IA25_L15.bmp,Pictures/IA25_L15.bmp,Pictures/IA25.bmp,"

There's not much on the line here"," gamble!""""",1,risk,,,,,5,0,5,0,0,16,16,9,,,,,,,,,,,,,,,,,,,,,,,,,,,,,,,1992.053195,None,1994.075196,1995.595874,1995.579181,None,1997.13327,None,1,0.327726376,1999.105146,None,1999.105146,None,1999.105146,None,1999.573066,None,1999.573066,2000.575705,2001.745459,None,2001.745459,None,right,1.735389998,2001.745459,None,None,None,2003.516788,None,,,,,,,,,,,,,120,1,19,1,2020_Mar_09_1114,Test,3.2.4,59.8444927,
Pictures/IA20_10_G95p.bmp,Pictures/IA20_10_G95p.bmp,Pictures/IA20.bmp,"

Take a leap"," I think you should gamble.""""",1,risk,,,,,5,0,5,0,0,17,17,14,,,,,,,,,,,,,,,,,,,,,,,,,,,,,,,2003.76745,None,2005.806167,2007.326847,2007.310153,None,2008.830833,None,2,2.397453916,2010.819407,None,2010.819407,None,2010.819407,None,None,None,None,None,2013.392878,None,2013.392878,None,right,1.791992641,2013.392878,None,None,None,2015.23105,None,,,,,,,,,,,,,120,1,19,1,2020_Mar_09_1114,Test,3.2.4,59.8444927,
Pictures/IA25_L10.bmp,Pictures/IA25_L10.bmp,Pictures/IA25.bmp,"

Dont be afraid to take the risk!""""",1,risk,,,,,5,0,5,0,0,18,18,8,,,,,,,,,,,,,,,,,,,,,,,,,,,,,,,2015.414868,None,2017.436877,2018.940858,2018.924137,None,2020.494949,None,1,0.942041094,2022.466826,None,2022.466826,None,2022.466826,None,2023.536312,None,2023.536312,2024.538958,2025.641882,None,2025.641882,None,right,0.646969933,2025.641882,None,None,None,2026.327013,2027.630466,,,,,,,,,,,,,120,1,19,1,2020_Mar_09_1114,Test,3.2.4,59.8444927,,
Pictures/IA25_G10.bmp,Pictures/IA25_G10.bmp,Pictures/IA25.bmp,"

What's life without a little risk?""""",1,risk,,,,,5,0,5,0,0,19,19,11,,,,,,,,,,,,,,,,,,,,,,,,,,,,,,,2027.64717,None,2029.669177,2031.189854,2031.173159,None,2032.727249,None,2,1.597750573,2034.699123,None,2034.699123,None,2034.699123,None,None,None,None,None,2036.47048,None,2036.47048,None,left,0.650378923,2036.47048,None,2037.155619,2038.459047,None,None,,,,,,,,,,,,,120,1,19,1,2020_Mar_09_1114,Test,3.2.4,59.8444927,,
,,,,,,,,,,5,0,5,0,,,,,,,,,,,,,,,,,,,,,,,,,,,,,,,,,,,,,,,,,,,,,,,,,,,,,,,,,,,,,,,,,,,,,,,,,2038.642882,None,return,5.341971925,2038.642882,None,120,1,19,1,2020_Mar_09_1114,Test,3.2.4,59.8444927,,
Pictures/IA100_G60.bmp,Pictures/IA100_G60.bmp,Pictures/IA100.bmp,"

Be cautious"," don't gamble for this one.""""",0,safe,,,,,6,0,6,0,0,0,0,4,,,,,,,,,,,,,2044.140719,None,2044.140719,None,2044.140719,None,right,1.612136809,2044.140719,None,2044.140719,None,2044.140719,None,return,2.699918963,2044.140719,None,2046.881295,None,2048.903304,2050.423983,2050.407263,None,2051.944653,None,2,1.740336438,2053.916532,None,2053.916532,None,2053.916532,None,None,None,None,None,2055.838271,None,2055.838271,None,left,0.30658295,2055.838271,None,2056.189193,2057.826864,None,None,,,,,,,,,,,,,120,1,19,1,2020_Mar_09_1114,Test,3.2.4,59.8444927,
Pictures/IA50_G30.bmp,Pictures/IA50_G30.bmp,Pictures/IA50.bmp,"

I think you should gamble.""""",1,risk,,,,,6,0,6,0,0,1,1,9,,,,,,,,,,,,,,,,,,,,,,,,,,,,,,,2057.843561,None,2059.865567,2061.38625,2061.369555,None,2062.923652,None,2,0.841340179,2064.895522,None,2064.895522,None,2064.895522,None,None,None,None,None,2065.914877,None,2065.914877,None,left,0.253978644,2065.914877,None,2066.21568,2067.920167,None,None,,,,,,,,,,,,,120,1,19,1,2020_Mar_09_1114,Test,3.2.4,59.8444927,,
Pictures/IA100_L80.bmp,Pictures/IA100_L80.bmp,Pictures/IA100.bmp,"

Go all in!""""",1,risk,,,,,6,0,6,0,0,2,2,13,,,,,,,,,,,,,,,,,,,,,,,,,,,,,,,2067.936898,None,2069.958899,2071.47958,2071.462861,None,2073.016979,None,1,0.900003354,2074.988858,None,2074.988858,None,2074.988858,None,2075.958061,None,2075.958061,2076.960705,2078.063623,None,2078.063623,None,right,0.345228843,2078.063623,None,None,None,2078.447966,2080.052207,,,,,,,,,,,,,120,1,19,1,2020_Mar_09_1114,Test,3.2.4,59.8444927,,
Pictures/IA100_G20.bmp,Pictures/IA100_G20.bmp,Pictures/IA100.bmp,"

Go ahead and gamble!""""",1,risk,,,,,6,0,6,0,0,3,3,16,,,,,,,,,,,,,,,,,,,,,,,,,,,,,,,2080.068927,None,2082.090937,2083.611616,2083.594899,None,2085.115578,None,1,0.567956798,2087.1209,None,2087.1209,None,2087.1209,None,2087.789315,None,2087.789315,2088.791958,2089.911586,None,2089.911586,None,right,0.225282823,2089.911586,None,None,None,2090.178941,2091.900153,,,,,,,,,,,,,120,1,19,1,2020_Mar_09_1114,Test,3.2.4,59.8444927,,
Pictures/IA25_L15.bmp,Pictures/IA25_L15.bmp,Pictures/IA25.bmp,"

There's not much on the line here"," gamble!""""",1,risk,,,,,6,0,6,0,0,4,4,10,,,,,,,,,,,,,,,,,,,,,,,,,,,,,,,2091.916877,None,2093.93889,2095.459565,2095.442845,None,2096.963537,None,2,0.688029697,2098.968837,None,2098.968837,None,2098.968837,None,None,None,None,None,2099.854499,None,2099.854499,None,left,0.770366782,2099.854499,None,2100.673322,2101.843092,None,None,,,,,,,,,,,,,120,1,19,1,2020_Mar_09_1114,Test,3.2.4,59.8444927,
Pictures/IA80_40_G95p.bmp,Pictures/IA80_40_G95p.bmp,Pictures/IA80.bmp,"

Think of the payoff"," gamble!""""",1,risk,,,,,6,0,6,0,0,5,5,15,,,,,,,,,,,,,,,,,,,,,,,,,,,,,,,2101.859785,None,2103.881794,2105.402473,2105.385781,None,2106.956581,None,2,0.937090291,2108.91176,None,2108.91176,None,2108.91176,None,None,None,None,None,2110.014673,None,2110.014673,None,left,0.274183313,2110.014673,None,2110.33217,2112.003259,None,None,,,,,,,,,,,,,120,1,19,1,2020_Mar_09_1114,Test,3.2.4,59.8444927,
Pictures/IA25_L5.bmp,Pictures/IA25_L5.bmp,Pictures/IA25.bmp,"

It would be smarter to choose the safe option.""""",0,safe,,,,,6,0,6,0,0,6,6,1,,,,,,,,,,,,,,,,,,,,,,,,,,,,,,,2112.019951,None,2114.041959,2115.562655,2115.545944,None,2117.100032,None,2,0.448941905,2119.071919,None,2119.071919,None,2119.071919,None,None,None,None,None,2119.706927,None,2119.706927,None,right,0.885929026,2119.706927,None,None,None,2120.642724,2121.71222,,,,,,,,,,,,,120,1,19,1,2020_Mar_09_1114,Test,3.2.4,59.8444927,,
Pictures/IA50_L20.bmp,Pictures/IA50_L20.bmp,Pictures/IA50.bmp,"

Certainty is boring"," take a risk!""""",1,risk,,,,,6,0,6,0,0,7,7,5,,,,,,,,,,,,,,,,,,,,,,,,,,,,,,,2121.728917,None,2123.750927,2125.271606,2125.254875,None,2126.775579,None,1,1.619980715,2128.780877,None,2128.780877,None,2128.780877,None,2130.518838,None,2130.518838,2131.521468,2132.64107,None,2132.64107,None,right,0.255788271,2132.64107,None,None,None,2132.941872,2134.646375,,,,,,,,,,,,,120,1,19,1,2020_Mar_09_1114,Test,3.2.4,59.8444927,
Pictures/IA40_20_G95p.bmp,Pictures/IA40_20_G95p.bmp,Pictures/IA40.bmp,"

Hold back"," stay with the safe choice.""""",0,safe,,,,,6,0,6,0,0,8,8,6,,,,,,,,,,,,,,,,,,,,,,,,,,,,,,,2134.663072,None,2136.701816,2138.222539,2138.205807,None,2139.709736,None,1,0.365790868,2141.715066,None,2141.715066,None,2141.715066,None,2142.216428,None,2142.216428,2143.219381,2144.856989,None,2144.856989,None,left,0.263888923,2144.856989,None,2145.179201,2146.845279,None,None,,,,,,,,,,,,,120,1,19,1,2020_Mar_09_1114,Test,3.2.4,59.8444927,
Pictures/IA25_G15.bmp,Pictures/IA25_G15.bmp,Pictures/IA25.bmp,"

I think you should take a gamble.""""",1,risk,,,,,6,0,6,0,0,9,9,11,,,,,,,,,,,,,,,,,,,,,,,,,,,,,,,2146.871352,None,2148.93507,2150.443473,2150.421376,None,2152.10923,None,2,0.286929516,2153.913938,None,2153.913938,None,2153.913938,None,None,None,None,None,2154.431977,None,2154.431977,None,left,0.272906537,2154.431977,None,2154.749497,2156.437258,None,None,,,,,,,,,,,,,120,1,19,1,2020_Mar_09_1114,Test,3.2.4,59.8444927,,
Pictures/IA25_G20.bmp,Pictures/IA25_G20.bmp,Pictures/IA25.bmp,"

I wouldn't gamble for this one. """"",0,safe,,,,,6,0,6,0,0,10,10,3,,,,,,,,,,,,,,,,,,,,,,,,,,,,,,,2156.454002,None,2158.475973,2159.979963,2159.963219,None,2161.534082,None,2,0.734943319,2163.505941,None,2163.505941,None,2163.505941,None,None,None,None,None,2164.508774,None,2164.508774,None,right,0.220099323,2164.508774,None,None,None,2164.76101,2166.497192,,,,,,,,,,,,,120,1,19,1,2020_Mar_09_1114,Test,3.2.4,59.8444927,,
Pictures/IA100_L40.bmp,Pictures/IA100_L40.bmp,Pictures/IA100.bmp,"

Think of the payoff"," gamble!""""",1,risk,,,,,6,0,6,0,0,11,11,8,,,,,,,,,,,,,,,,,,,,,,,,,,,,,,,2166.513882,None,2168.552586,2170.056584,2170.023107,None,2171.61067,None,2,0.92303729,2173.56584,None,2173.56584,None,2173.56584,None,None,None,None,None,2174.685462,None,2174.685462,None,right,0.291402327,2174.685462,None,None,None,2175.01969,2176.674003,,,,,,,,,,,,,120,1,19,1,2020_Mar_09_1114,Test,3.2.4,59.8444927,
Pictures/IA110_55_L95p.bmp,Pictures/IA110_55_L95p.bmp,Pictures/IA110.bmp,"

Trust me"," gamble!""""",1,risk,,,,,6,0,6,0,0,12,12,2,,,,,,,,,,,,,,,,,,,,,,,,,,,,,,,2176.690768,None,2178.729497,2180.233409,2180.216715,None,2181.887786,None,2,0.898142137,2183.74271,None,2183.74271,None,2183.74271,None,None,None,None,None,2184.862332,None,2184.862332,None,right,0.218483398,2184.862332,None,None,None,2185.129685,2186.867606,,,,,,,,,,,,,120,1,19,1,2020_Mar_09_1114,Test,3.2.4,59.8444927,
Pictures/IA25_G5.bmp,Pictures/IA25_G5.bmp,Pictures/IA25.bmp,"

Let's stay with the certain option.""""",0,safe,,,,,6,0,6,0,0,13,13,17,,,,,,,,,,,,,,,,,,,,,,,,,,,,,,,2186.884306,None,2188.906316,2190.426998,2190.410302,None,2191.964392,None,2,1.136604179,2193.936268,None,2193.936268,None,2193.936268,None,None,None,None,None,2195.25642,None,2195.25642,None,right,0.264434589,2195.25642,None,None,None,2195.557223,2197.245001,,,,,,,,,,,,,120,1,19,1,2020_Mar_09_1114,Test,3.2.4,59.8444927,,
Pictures/IA50_L30.bmp,Pictures/IA50_L30.bmp,Pictures/IA50.bmp,"

Take a leap"," I think you should gamble.""""",1,risk,,,,,6,0,6,0,0,14,14,7,,,,,,,,,,,,,,,,,,,,,,,,,,,,,,,2197.261727,None,2199.333867,2200.837825,2200.821131,None,2202.341803,None,1,0.751190929,2204.313676,None,2204.313676,None,2204.313676,None,2205.199347,None,2205.199347,2206.201992,2207.304911,None,2207.304911,None,right,0.239946014,2207.304911,None,None,None,2207.588989,2209.293503,,,,,,,,,,,,,120,1,19,1,2020_Mar_09_1114,Test,3.2.4,59.8444927,
Pictures/IA25_L10.bmp,Pictures/IA25_L10.bmp,Pictures/IA25.bmp,"

Dont be afraid to take the risk!""""",1,risk,,,,,6,0,6,0,0,15,15,14,,,,,,,,,,,,,,,,,,,,,,,,,,,,,,,2209.310202,None,2211.332215,2212.852892,2212.836201,None,2214.373581,None,2,0.326676491,2216.362184,None,2216.362184,None,2216.362184,None,None,None,None,None,2216.863486,None,2216.863486,None,right,0.985370825,2216.863486,None,None,None,2217.882845,None,,,,,,,,,,,,,120,1,19,1,2020_Mar_09_1114,Test,3.2.4,59.8444927,,
Pictures/IA80_40_L95p.bmp,Pictures/IA80_40_L95p.bmp,Pictures/IA80.bmp,"

Let's stay with the certain option.""""",0,safe,,,,,6,0,6,0,0,16,16,12,,,,,,,,,,,,,,,,,,,,,,,,,,,,,,,2218.868781,None,2220.907502,2222.411485,2222.394766,None,2223.94888,None,2,0.336127069,2225.920758,None,2225.920758,None,2225.920758,None,None,None,None,None,2226.455505,None,2226.455505,None,right,0.201355191,2226.455505,None,None,None,2226.706168,2228.444086,,,,,,,,,,,,,120,1,19,1,2020_Mar_09_1114,Test,3.2.4,59.8444927,,
Pictures/IA50_G40.bmp,Pictures/IA50_G40.bmp,Pictures/IA50.bmp,"

It would probably be best to play it safe.""""",0,safe,,,,,6,0,6,0,0,17,17,19,,,,,,,,,,,,,,,,,,,,,,,,,,,,,,,2228.460785,None,2230.482796,2231.986786,2231.970057,None,2233.540877,None,2,0.312115618,2235.512748,None,2235.512748,None,2235.512748,None,None,None,None,None,2236.030783,None,2236.030783,None,right,0.35407746,2236.030783,None,None,None,2236.43185,2238.036096,,,,,,,,,,,,,120,1,19,1,2020_Mar_09_1114,Test,3.2.4,59.8444927,,
Pictures/IA20_10_G95p.bmp,Pictures/IA20_10_G95p.bmp,Pictures/IA20.bmp,"

Take a leap"," I think you should gamble.""""",1,risk,,,,,6,0,6,0,0,18,18,18,,,,,,,,,,,,,,,,,,,,,,,,,,,,,,,2238.05279,None,2240.108225,2241.612202,2241.595487,None,2243.099452,None,2,0.352104929,2245.104755,None,2245.104755,None,2245.104755,None,None,None,None,None,2245.672933,None,2245.672933,None,left,0.231917219,2245.672933,None,2245.940288,2247.678211,None,None,,,,,,,,,,,,,120,1,19,1,2020_Mar_09_1114,Test,3.2.4,59.8444927,
Pictures/IA50_L10.bmp,Pictures/IA50_L10.bmp,Pictures/IA50.bmp,"

Play it safe"," don’t gamble!""""",0,safe,,,,,6,0,6,0,0,19,19,0,,,,,,,,,,,,,,,,,,,,,,,,,,,,,,,2247.694936,None,2249.716946,2251.237625,2251.22091,None,2252.791736,None,2,0.301978575,2254.746892,None,2254.746892,None,2254.746892,None,None,None,None,None,2255.264923,None,2255.264923,None,right,0.223914358,2255.264923,None,None,None,2255.532303,2257.270226,,,,,,,,,,,,,120,1,19,1,2020_Mar_09_1114,Test,3.2.4,59.8444927,
,,,,,,,,,,6,0,6,0,,,,,,,,,,,,,,,,,,,,,,,,,,,,,,,,,,,,,,,,,,,,,,,,,,,,,,,,,,,,,,,,,,,,,,,,,2257.437329,None,return,2.747526859,2257.437329,None,120,1,19,1,2020_Mar_09_1114,Test,3.2.4,59.8444927,,
Pictures/IA50_L20.bmp,Pictures/IA50_L20.bmp,Pictures/IA50.bmp,"

Certainty is boring"," take a risk!""""",1,risk,,,,,7,0,7,0,0,0,0,17,,,,,,,,,,,,,2260.395144,None,2260.395144,None,2260.395144,None,left,0.79771037,2260.395144,None,2260.395144,None,2260.395144,None,return,1.39749017,2260.395144,None,2261.848989,None,2263.854273,2265.374958,2265.358258,None,2266.878948,None,1,0.309342572,2268.867526,None,2268.867526,None,2268.867526,None,2269.285288,None,2269.285288,2270.287934,2271.407563,None,2271.407563,None,right,0.433299198,2271.407563,None,None,None,2271.875474,2273.412869,,,,,,,,,,,,,120,1,19,1,2020_Mar_09_1114,Test,3.2.4,59.8444927,
Pictures/IA40_20_L95p.bmp,Pictures/IA40_20_L95p.bmp,Pictures/IA40.bmp,"

Trust me"," gamble!""""",1,risk,,,,,7,0,7,0,0,1,1,6,,,,,,,,,,,,,,,,,,,,,,,,,,,,,,,2273.429571,None,2275.468312,2276.988983,2276.972277,None,2278.526381,None,1,0.647330986,2280.481534,None,2280.481534,None,2280.481534,None,2281.216806,None,2281.216806,2282.21945,2283.339082,None,2283.339082,None,right,0.357770202,2283.339082,None,None,None,2283.740149,2285.327675,,,,,,,,,,,,,120,1,19,1,2020_Mar_09_1114,Test,3.2.4,59.8444927,
Pictures/IA50_G20.bmp,Pictures/IA50_G20.bmp,Pictures/IA50.bmp,"

Let's venture and take a risk!""""",1,risk,,,,,7,0,7,0,0,2,2,11,,,,,,,,,,,,,,,,,,,,,,,,,,,,,,,2285.344374,None,2287.366387,2288.88707,2288.870372,None,2290.424426,None,1,0.364525014,2292.396339,None,2292.396339,None,2292.396339,None,2292.864253,None,2292.864253,2293.866902,2294.969813,None,2294.969813,None,right,0.391043239,2294.969813,None,None,None,2295.404286,2296.975111,,,,,,,,,,,,,120,1,19,1,2020_Mar_09_1114,Test,3.2.4,59.8444927,,
Pictures/IA25_L5.bmp,Pictures/IA25_L5.bmp,Pictures/IA25.bmp,"

It would be smarter to choose the safe option.""""",0,safe,,,,,7,0,7,0,0,3,3,15,,,,,,,,,,,,,,,,,,,,,,,,,,,,,,,2296.991828,None,2299.013817,2300.534501,2300.517804,None,2302.055187,None,1,0.245072576,2304.043787,None,2304.043787,None,2304.043787,None,2304.444847,None,2304.444847,2305.447491,2306.567119,None,2306.567119,None,left,0.777736138,2306.567119,None,2307.385946,2308.555688,None,None,,,,,,,,,,,,,120,1,19,1,2020_Mar_09_1114,Test,3.2.4,59.8444927,,
Pictures/IA75_G15.bmp,Pictures/IA75_G15.bmp,Pictures/IA75.bmp,"

Take a chance!""""",1,risk,,,,,7,0,7,0,0,4,4,16,,,,,,,,,,,,,,,,,,,,,,,,,,,,,,,2308.572412,None,2310.611134,2312.115091,2312.098399,None,2313.619069,None,1,0.320498849,2315.624368,None,2315.624368,None,2315.624368,None,2316.042147,None,2316.042147,2317.044798,2318.181138,None,2318.181138,None,right,0.291732041,2318.181138,None,None,None,2318.51536,2320.186409,,,,,,,,,,,,,120,1,19,1,2020_Mar_09_1114,Test,3.2.4,59.8444927,,
Pictures/IA50_L30.bmp,Pictures/IA50_L30.bmp,Pictures/IA50.bmp,"

Take a leap"," I think you should gamble.""""",1,risk,,,,,7,0,7,0,0,5,5,19,,,,,,,,,,,,,,,,,,,,,,,,,,,,,,,2320.203137,None,2322.225147,2323.729105,2323.712415,None,2325.266518,None,1,0.72178111,2327.255094,None,2327.255094,None,2327.255094,None,2328.124063,None,2328.124063,2329.126709,2330.229628,None,2330.229628,None,right,0.2672227,2330.229628,None,None,None,2330.530405,2332.234923,,,,,,,,,,,,,120,1,19,1,2020_Mar_09_1114,Test,3.2.4,59.8444927,
Pictures/IA100_L60.bmp,Pictures/IA100_L60.bmp,Pictures/IA100.bmp,"

You'd have a lot to lose"," don't gamble.""""",0,safe,,,,,7,0,7,0,0,6,6,1,,,,,,,,,,,,,,,,,,,,,,,,,,,,,,,2332.251622,None,2334.273631,2335.777618,2335.760897,None,2337.331707,None,1,0.369275599,2339.303585,None,2339.303585,None,2339.303585,None,2339.821618,None,2339.821618,2340.824263,2341.927184,None,2341.927184,None,left,0.409658514,2341.927184,None,2342.378374,2343.915769,None,None,,,,,,,,,,,,,120,1,19,1,2020_Mar_09_1114,Test,3.2.4,59.8444927,
Pictures/IA75_L45.bmp,Pictures/IA75_L45.bmp,Pictures/IA75.bmp,"

Don't gamble for this one"," play it safe.""""",0,safe,,,,,7,0,7,0,0,7,7,4,,,,,,,,,,,,,,,,,,,,,,,,,,,,,,,2343.932488,None,2345.954498,2347.475182,2347.458462,None,2349.012577,None,1,0.776406547,2350.984457,None,2350.984457,None,2350.984457,None,2351.903553,None,2351.903553,2352.906193,2354.009114,None,2354.009114,None,left,0.543737411,2354.009114,None,2354.593989,2355.997707,None,None,,,,,,,,,,,,,120,1,19,1,2020_Mar_09_1114,Test,3.2.4,59.8444927,
Pictures/IA100_G80.bmp,Pictures/IA100_G80.bmp,Pictures/IA100.bmp,"

Why not gamble?""""",1,risk,,,,,7,0,7,0,0,8,8,7,,,,,,,,,,,,,,,,,,,,,,,,,,,,,,,2356.014398,None,2358.036403,2359.557086,2359.540391,None,2361.111194,None,1,0.334484242,2363.066374,None,2363.066374,None,2363.066374,None,2363.500854,None,2363.500854,2364.503497,2365.606419,None,2365.606419,None,right,0.59443111,2365.606419,None,None,None,2366.24141,2367.611713,,,,,,,,,,,,,120,1,19,1,2020_Mar_09_1114,Test,3.2.4,59.8444927,,
Pictures/IA75_L60.bmp,Pictures/IA75_L60.bmp,Pictures/IA75.bmp,"

Why not take the gamble?""""",1,risk,,,,,7,0,7,0,0,9,9,5,,,,,,,,,,,,,,,,,,,,,,,,,,,,,,,2367.628409,None,2369.650418,2371.1711,2371.154406,None,2372.708496,None,1,0.320494487,2374.680377,None,2374.680377,None,2374.680377,None,2375.114869,None,2375.114869,2376.117511,2377.270569,None,2377.270569,None,right,0.258294645,2377.270569,None,None,None,2377.571369,2379.275847,,,,,,,,,,,,,120,1,19,1,2020_Mar_09_1114,Test,3.2.4,59.8444927,,
Pictures/IA25_L10.bmp,Pictures/IA25_L10.bmp,Pictures/IA25.bmp,"

Dont be afraid to take the risk!""""",1,risk,,,,,7,0,7,0,0,10,10,13,,,,,,,,,,,,,,,,,,,,,,,,,,,,,,,2379.292566,None,2381.314577,2382.835282,2382.818559,None,2384.355946,None,1,0.320344312,2386.344522,None,2386.344522,None,2386.344522,None,2386.779013,None,2386.779013,2387.781654,2388.901288,None,2388.901288,None,right,0.291568018,2388.901288,None,None,None,2389.235488,2390.90657,,,,,,,,,,,,,120,1,19,1,2020_Mar_09_1114,Test,3.2.4,59.8444927,,
Pictures/IA25_L20.bmp,Pictures/IA25_L20.bmp,Pictures/IA25.bmp,"

Don't be tempted to gamble.""""",0,safe,,,,,7,0,7,0,0,11,11,8,,,,,,,,,,,,,,,,,,,,,,,,,,,,,,,2390.923296,None,2392.945302,2394.465983,2394.449264,None,2396.003388,None,1,0.545606592,2397.97526,None,2397.97526,None,2397.97526,None,2398.643688,None,2398.643688,2399.646335,2400.749254,None,2400.749254,None,left,0.475599446,2400.749254,None,2401.267291,2402.737836,None,None,,,,,,,,,,,,,120,1,19,1,2020_Mar_09_1114,Test,3.2.4,59.8444927,,
Pictures/IA100_G60.bmp,Pictures/IA100_G60.bmp,Pictures/IA100.bmp,"

Be cautious"," don't gamble for this one.""""",0,safe,,,,,7,0,7,0,0,12,12,2,,,,,,,,,,,,,,,,,,,,,,,,,,,,,,,2402.754535,None,2404.77655,2406.297227,2406.280534,None,2407.834627,None,1,0.322368117,2409.806499,None,2409.806499,None,2409.806499,None,2410.274416,None,2410.274416,2411.27706,2412.379981,None,2412.379981,None,left,0.380871528,2412.379981,None,2412.797752,2414.368547,None,None,,,,,,,,,,,,,120,1,19,1,2020_Mar_09_1114,Test,3.2.4,59.8444927,
Pictures/IA75_L15.bmp,Pictures/IA75_L15.bmp,Pictures/IA75.bmp,"

Trust me–gamble!""""",1,risk,,,,,7,0,7,0,0,13,13,3,,,,,,,,,,,,,,,,,,,,,,,,,,,,,,,2414.385275,None,2416.407281,2417.927966,2417.911242,None,2419.465362,None,1,0.563614661,2421.437243,None,2421.437243,None,2421.437243,None,2422.105661,None,2422.105661,2423.108303,2424.211225,None,2424.211225,None,right,0.413638859,2424.211225,None,None,None,2424.66241,2426.199817,,,,,,,,,,,,,120,1,19,1,2020_Mar_09_1114,Test,3.2.4,59.8444927,,
Pictures/IA50_G10.bmp,Pictures/IA50_G10.bmp,Pictures/IA50.bmp,"

Go with the safe option here!""""",0,safe,,,,,7,0,7,0,0,14,14,18,,,,,,,,,,,,,,,,,,,,,,,,,,,,,,,2426.216517,None,2428.238526,2429.759209,2429.742518,None,2431.296605,None,1,1.292384841,2433.268483,None,2433.268483,None,2433.268483,None,2434.672168,None,2434.672168,2435.674847,2436.777766,None,2436.777766,None,left,0.335100793,2436.777766,None,2437.162112,2438.766347,None,None,,,,,,,,,,,,,120,1,19,1,2020_Mar_09_1114,Test,3.2.4,59.8444927,,
Pictures/IA50_L40.bmp,Pictures/IA50_L40.bmp,Pictures/IA50.bmp,"

That gamble doesn't sound too good"," play it safe.""""",0,safe,,,,,7,0,7,0,0,15,15,10,,,,,,,,,,,,,,,,,,,,,,,,,,,,,,,2438.783047,None,2440.805059,2442.325736,2442.309062,None,2443.863135,None,1,2.053839244,2445.835017,None,2445.835017,None,2445.835017,None,2448.04084,None,2448.04084,2449.043484,2450.146401,None,2450.146401,None,left,0.294452197,2450.146401,None,2450.480627,2452.135002,None,None,,,,,,,,,,,,,120,1,19,1,2020_Mar_09_1114,Test,3.2.4,59.8444927,
Pictures/IA40_20_G95p.bmp,Pictures/IA40_20_G95p.bmp,Pictures/IA40.bmp,"

Hold back"," stay with the safe choice.""""",0,safe,,,,,7,0,7,0,0,16,16,9,,,,,,,,,,,,,,,,,,,,,,,,,,,,,,,2452.151713,None,2454.173707,2455.694394,2455.677696,None,2457.215076,None,1,0.573187715,2459.203678,None,2459.203678,None,2459.203678,None,2459.922244,None,2459.922244,2460.92489,2462.027806,None,2462.027806,None,left,0.309063072,2462.027806,None,2462.378726,2464.016385,None,None,,,,,,,,,,,,,120,1,19,1,2020_Mar_09_1114,Test,3.2.4,59.8444927,
Pictures/IA25_G5.bmp,Pictures/IA25_G5.bmp,Pictures/IA25.bmp,"

Let's stay with the certain option.""""",0,safe,,,,,7,0,7,0,0,17,17,14,,,,,,,,,,,,,,,,,,,,,,,,,,,,,,,2464.033099,None,2466.055109,2467.575789,2467.559071,None,2469.096478,None,1,0.323809705,2471.085053,None,2471.085053,None,2471.085053,None,2471.53626,None,2471.53626,2472.538899,2473.641819,None,2473.641819,None,left,0.327034543,2473.641819,None,2474.009451,2475.630402,None,None,,,,,,,,,,,,,120,1,19,1,2020_Mar_09_1114,Test,3.2.4,59.8444927,,
Pictures/IA100_L40.bmp,Pictures/IA100_L40.bmp,Pictures/IA100.bmp,"

Think of the payoff"," gamble!""""",1,risk,,,,,7,0,7,0,0,18,18,0,,,,,,,,,,,,,,,,,,,,,,,,,,,,,,,2475.647105,None,2477.669113,2479.189794,2479.173103,None,2480.710484,None,1,0.941788328,2482.69908,None,2482.69908,None,2482.69908,None,2483.768569,None,2483.768569,2484.771179,2485.874099,None,2485.874099,None,None,,2485.874099,None,None,None,None,None,,,,,,,,,,,,,120,1,19,1,2020_Mar_09_1114,Test,3.2.4,59.8444927,
Pictures/IA110_55_L95p.bmp,Pictures/IA110_55_L95p.bmp,Pictures/IA110.bmp,"

Trust me"," gamble!""""",1,risk,,,,,7,0,7,0,0,19,19,12,,,,,,,,,,,,,,,,,,,,,,,,,,,,,,,2487.87943,None,2489.918149,2491.438831,2491.422113,None,2492.926086,None,1,0.877497034,2494.931384,None,2494.931384,None,2494.931384,None,2495.917319,None,2495.917319,2496.919962,2498.022884,None,2498.022884,None,right,0.201972741,2498.022884,None,None,None,2498.273543,2500.011477,,,,,,,,,,,,,120,1,19,1,2020_Mar_09_1114,Test,3.2.4,59.8444927,
,,,,,,,,,,7,0,7,0,,,,,,,,,,,,,,,,,,,,,,,,,,,,,,,,,,,,,,,,,,,,,,,,,,,,,,,,,,,,,,,,,,,,,,,,,2500.178593,None,return,6.534252576,2500.178593,None,120,1,19,1,2020_Mar_09_1114,Test,3.2.4,59.8444927,,
Pictures/IA25_L10.bmp,Pictures/IA25_L10.bmp,Pictures/IA25.bmp,"

Dont be afraid to take the risk!""""",1,risk,,,,,8,0,8,0,0,0,0,11,,,,,,,,,,,,,2506.913034,None,2506.913034,None,2506.913034,None,left,0.583819384,2506.913034,None,2506.913034,None,2506.913034,None,return,1.19962804,2506.913034,None,2508.183053,None,2510.188366,2511.709048,2511.69233,None,2513.179591,None,2,0.383246607,2515.201615,None,2515.201615,None,2515.201615,None,None,None,None,None,2515.75307,None,2515.75307,None,right,0.263777294,2515.75307,None,None,None,2516.053847,2517.758362,,,,,,,,,,,,,120,1,19,1,2020_Mar_09_1114,Test,3.2.4,59.8444927,,
Pictures/IA75_G45.bmp,Pictures/IA75_G45.bmp,Pictures/IA75.bmp,"

Don't gamble for this one.""""",0,safe,,,,,8,0,8,0,0,1,1,19,,,,,,,,,,,,,,,,,,,,,,,,,,,,,,,2517.775059,None,2519.797073,2521.317754,2521.301062,None,2522.855156,None,2,0.333829299,2524.827029,None,2524.827029,None,2524.827029,None,None,None,None,None,2525.328366,None,2525.328366,None,right,0.224492614,2525.328366,None,None,None,2525.595726,2527.333646,,,,,,,,,,,,,120,1,19,1,2020_Mar_09_1114,Test,3.2.4,59.8444927,,
Pictures/IA80_40_G95p.bmp,Pictures/IA80_40_G95p.bmp,Pictures/IA80.bmp,"

Think of the payoff"," gamble!""""",1,risk,,,,,8,0,8,0,0,2,2,17,,,,,,,,,,,,,,,,,,,,,,,,,,,,,,,2527.35037,None,2529.389094,2530.909773,2530.893055,None,2532.430447,None,2,0.366531651,2534.402328,None,2534.402328,None,2534.402328,None,None,None,None,None,2534.920371,None,2534.920371,None,left,0.200502182,2534.920371,None,2535.154309,2536.925665,None,None,,,,,,,,,,,,,120,1,19,1,2020_Mar_09_1114,Test,3.2.4,59.8444927,
Pictures/IA50_G30.bmp,Pictures/IA50_G30.bmp,Pictures/IA50.bmp,"

I think you should gamble.""""",1,risk,,,,,8,0,8,0,0,3,3,16,,,,,,,,,,,,,,,,,,,,,,,,,,,,,,,2536.942365,None,2538.964379,2540.485057,2540.468361,None,2542.022453,None,2,0.342516266,2543.994344,None,2543.994344,None,2543.994344,None,None,None,None,None,2544.495657,None,2544.495657,None,right,0.385199498,2544.495657,None,None,None,2544.930147,2546.500951,,,,,,,,,,,,,120,1,19,1,2020_Mar_09_1114,Test,3.2.4,59.8444927,,
Pictures/IA110_55_G95p.bmp,Pictures/IA110_55_G95p.bmp,Pictures/IA110.bmp,"

Take a chance!""""",1,risk,,,,,8,0,8,0,0,4,4,5,,,,,,,,,,,,,,,,,,,,,,,,,,,,,,,2546.517673,None,2548.539688,2550.060366,2550.04365,None,2551.614474,None,2,0.327218515,2553.569635,None,2553.569635,None,2553.569635,None,None,None,None,None,2554.054254,None,2554.054254,None,left,0.22660226,2554.054254,None,2554.321613,2556.059535,None,None,,,,,,,,,,,,,120,1,19,1,2020_Mar_09_1114,Test,3.2.4,59.8444927,,
Pictures/IA100_L20.bmp,Pictures/IA100_L20.bmp,Pictures/IA100.bmp,"

Try to win as much money as you can"," gamble!""""",1,risk,,,,,8,0,8,0,0,5,5,13,,,,,,,,,,,,,,,,,,,,,,,,,,,,,,,2556.076258,None,2558.098272,2559.618951,2559.602237,None,2561.156348,None,2,0.312636197,2563.128228,None,2563.128228,None,2563.128228,None,None,None,None,None,2563.612838,None,2563.612838,None,right,0.180011031,2563.612838,None,None,None,2563.830076,2565.601411,,,,,,,,,,,,,120,1,19,1,2020_Mar_09_1114,Test,3.2.4,59.8444927,
Pictures/IA100_G60.bmp,Pictures/IA100_G60.bmp,Pictures/IA100.bmp,"

Be cautious"," don't gamble for this one.""""",0,safe,,,,,8,0,8,0,0,6,6,15,,,,,,,,,,,,,,,,,,,,,,,,,,,,,,,2565.618132,None,2567.640147,2569.160824,2569.144111,None,2570.648094,None,2,0.338775752,2572.67009,None,2572.67009,None,2572.67009,None,None,None,None,None,2573.188123,None,2573.188123,None,right,0.100738372,2573.188123,None,None,None,2573.33852,2575.176717,,,,,,,,,,,,,120,1,19,1,2020_Mar_09_1114,Test,3.2.4,59.8444927,
Pictures/IA80_40_L95p.bmp,Pictures/IA80_40_L95p.bmp,Pictures/IA80.bmp,"

Let's stay with the certain option.""""",0,safe,,,,,8,0,8,0,0,7,7,8,,,,,,,,,,,,,,,,,,,,,,,,,,,,,,,2575.193416,None,2577.215431,2578.736108,2578.719416,None,2580.256801,None,2,0.611465336,2582.245397,None,2582.245397,None,2582.245397,None,None,None,None,None,2583.030804,None,2583.030804,None,right,0.08204557,2583.030804,None,None,None,2583.147779,2585.019391,,,,,,,,,,,,,120,1,19,1,2020_Mar_09_1114,Test,3.2.4,59.8444927,,
Pictures/IA20_10_G95p.bmp,Pictures/IA20_10_G95p.bmp,Pictures/IA20.bmp,"

Take a leap"," I think you should gamble.""""",1,risk,,,,,8,0,8,0,0,8,8,14,,,,,,,,,,,,,,,,,,,,,,,,,,,,,,,2585.036107,None,2587.074808,2588.595489,2588.578796,None,2590.082764,None,2,0.288798599,2592.088069,None,2592.088069,None,2592.088069,None,None,None,None,None,2592.589387,None,2592.589387,None,left,0.051465682,2592.589387,None,2592.689652,2594.59469,None,None,,,,,,,,,,,,,120,1,19,1,2020_Mar_09_1114,Test,3.2.4,59.8444927,
Pictures/IA75_L30.bmp,Pictures/IA75_L30.bmp,Pictures/IA75.bmp,"

Hold back"," stay with the safe choice.""""",0,safe,,,,,8,0,8,0,0,9,9,3,,,,,,,,,,,,,,,,,,,,,,,,,,,,,,,2594.611396,None,2596.633404,2598.154085,2598.137372,None,2599.724899,None,2,0.361507365,2601.66336,None,2601.66336,None,2601.66336,None,None,None,None,None,2602.198109,None,2602.198109,None,right,0.130743565,2602.198109,None,None,None,2602.36521,2604.203387,,,,,,,,,,,,,120,1,19,1,2020_Mar_09_1114,Test,3.2.4,59.8444927,
Pictures/IA100_G20.bmp,Pictures/IA100_G20.bmp,Pictures/IA100.bmp,"

Go ahead and gamble!""""",1,risk,,,,,8,0,8,0,0,10,10,6,,,,,,,,,,,,,,,,,,,,,,,,,,,,,,,2604.220114,None,2606.242121,2607.762803,2607.746084,None,2609.3002,None,2,0.472797084,2611.272079,None,2611.272079,None,2611.272079,None,None,None,None,None,2611.907089,None,2611.907089,None,left,0.173770004,2611.907089,None,2612.124331,2613.895656,None,None,,,,,,,,,,,,,120,1,19,1,2020_Mar_09_1114,Test,3.2.4,59.8444927,,
Pictures/IA100_L40.bmp,Pictures/IA100_L40.bmp,Pictures/IA100.bmp,"

Think of the payoff"," gamble!""""",1,risk,,,,,8,0,8,0,0,11,11,0,,,,,,,,,,,,,,,,,,,,,,,,,,,,,,,2613.912382,None,2615.934393,2617.438366,2617.421657,None,2618.959055,None,2,0.452515572,2620.964354,None,2620.964354,None,2620.964354,None,None,None,None,None,2621.616066,None,2621.616066,None,left,0.064789932,2621.616066,None,2621.716332,2623.621358,None,None,,,,,,,,,,,,,120,1,19,1,2020_Mar_09_1114,Test,3.2.4,59.8444927,
Pictures/IA25_G5.bmp,Pictures/IA25_G5.bmp,Pictures/IA25.bmp,"

Let's stay with the certain option.""""",0,safe,,,,,8,0,8,0,0,12,12,1,,,,,,,,,,,,,,,,,,,,,,,,,,,,,,,2623.638075,None,2625.660086,2627.180771,2627.164051,None,2628.701454,None,2,0.542831889,2630.690032,None,2630.690032,None,2630.690032,None,None,None,None,None,2631.408594,None,2631.408594,None,left,0.160255506,2631.408594,None,2631.609144,2633.413901,None,None,,,,,,,,,,,,,120,1,19,1,2020_Mar_09_1114,Test,3.2.4,59.8444927,,
Pictures/IA50_L10.bmp,Pictures/IA50_L10.bmp,Pictures/IA50.bmp,"

Play it safe"," don’t gamble!""""",0,safe,,,,,8,0,8,0,0,13,13,4,,,,,,,,,,,,,,,,,,,,,,,,,,,,,,,2633.430603,None,2635.452612,2636.973292,2636.956597,None,2638.477269,None,2,0.782288224,2640.482568,None,2640.482568,None,2640.482568,None,None,None,None,None,2641.418381,None,2641.418381,None,right,0.070479246,2641.418381,None,None,None,2641.535348,2643.406955,,,,,,,,,,,,,120,1,19,1,2020_Mar_09_1114,Test,3.2.4,59.8444927,
Pictures/IA100_G80.bmp,Pictures/IA100_G80.bmp,Pictures/IA100.bmp,"

Why not gamble?""""",1,risk,,,,,8,0,8,0,0,14,14,9,,,,,,,,,,,,,,,,,,,,,,,,,,,,,,,2643.423682,None,2645.445688,2646.96637,2646.949654,None,2648.453635,None,2,0.421229395,2650.475636,None,2650.475636,None,2650.475636,None,None,None,None,None,2651.060523,None,2651.060523,None,right,0.052336488,2651.060523,None,None,None,2651.160774,2653.065818,,,,,,,,,,,,,120,1,19,1,2020_Mar_09_1114,Test,3.2.4,59.8444927,,
Pictures/IA110_55_L95p.bmp,Pictures/IA110_55_L95p.bmp,Pictures/IA110.bmp,"

Trust me"," gamble!""""",1,risk,,,,,8,0,8,0,0,15,15,2,,,,,,,,,,,,,,,,,,,,,,,,,,,,,,,2653.082516,None,2655.104528,2656.625209,2656.608515,None,2658.112474,None,2,0.538376792,2660.134499,None,2660.134499,None,2660.134499,None,None,None,None,None,2660.836349,None,2660.836349,None,right,0.092506885,2660.836349,None,None,None,2660.97002,2662.841649,,,,,,,,,,,,,120,1,19,1,2020_Mar_09_1114,Test,3.2.4,59.8444927,
Pictures/IA50_L30.bmp,Pictures/IA50_L30.bmp,Pictures/IA50.bmp,"

Take a leap"," I think you should gamble.""""",1,risk,,,,,8,0,8,0,0,16,16,7,,,,,,,,,,,,,,,,,,,,,,,,,,,,,,,2662.858342,None,2664.880357,2666.401035,2666.38434,None,2667.921722,None,2,0.474548427,2669.910323,None,2669.910323,None,2669.910323,None,None,None,None,None,2670.562045,None,2670.562045,None,left,0.046807205,2670.562045,None,2670.645593,2672.550614,None,None,,,,,,,,,,,,,120,1,19,1,2020_Mar_09_1114,Test,3.2.4,59.8444927,
Pictures/IA75_G60.bmp,Pictures/IA75_G60.bmp,Pictures/IA75.bmp,"

Make it exciting"," take a chance!""""",1,risk,,,,,8,0,8,0,0,17,17,12,,,,,,,,,,,,,,,,,,,,,,,,,,,,,,,2672.567335,None,2674.589348,2676.11003,2676.093315,None,2677.647425,None,2,0.261550214,2679.619307,None,2679.619307,None,2679.619307,None,None,None,None,None,2680.053774,None,2680.053774,None,right,0.067086863,2680.053774,None,None,None,2680.170748,2682.042356,,,,,,,,,,,,,120,1,19,1,2020_Mar_09_1114,Test,3.2.4,59.8444927,
Pictures/IA100_G40.bmp,Pictures/IA100_G40.bmp,Pictures/IA100.bmp,"

Try your luck and gamble!""""",1,risk,,,,,8,0,8,0,0,18,18,18,,,,,,,,,,,,,,,,,,,,,,,,,,,,,,,2682.059081,None,2684.081089,2685.601771,2685.585051,None,2687.15588,None,2,0.48182391,2689.111033,None,2689.111033,None,2689.111033,None,None,None,None,None,2689.746044,None,2689.746044,None,left,0.118821336,2689.746044,None,2689.91316,2691.73463,None,None,,,,,,,,,,,,,120,1,19,1,2020_Mar_09_1114,Test,3.2.4,59.8444927,,
Pictures/IA50_G10.bmp,Pictures/IA50_G10.bmp,Pictures/IA50.bmp,"

Go with the safe option here!""""",0,safe,,,,,8,0,8,0,0,19,19,10,,,,,,,,,,,,,,,,,,,,,,,,,,,,,,,2691.751352,None,2693.773365,2695.294044,2695.277322,None,2696.781306,None,2,0.317564633,2698.803304,None,2698.803304,None,2698.803304,None,None,None,None,None,2699.271172,None,2699.271172,None,left,0.057688054,2699.271172,None,2699.371483,2701.2765,None,None,,,,,,,,,,,,,120,1,19,1,2020_Mar_09_1114,Test,3.2.4,59.8444927,,
,,,,,,,,,,8,0,8,0,,,,,,,,,,,,,,,,,,,,,,,,,,,,,,,,,,,,,,,,,,,,,,,,,,,,,,,,,,,,,,,,,,,,,,,,,2701.443626,None,return,4.221226088,2701.443626,None,120,1,19,1,2020_Mar_09_1114,Test,3.2.4,59.8444927,,
Pictures/IA40_20_G95p.bmp,Pictures/IA40_20_G95p.bmp,Pictures/IA40.bmp,"

Hold back"," stay with the safe choice.""""",0,safe,,,,,9,0,9,0,0,0,0,14,,,,,,,,,,,,,2705.821875,None,2705.821875,None,2705.821875,None,right,0.202985879,2705.821875,None,2705.821875,None,2705.821875,None,return,0.690803665,2705.821875,None,2706.573829,None,2708.579146,2710.099824,2710.083105,None,2711.603791,None,2,0.328475486,2713.592388,None,2713.592388,None,2713.592388,None,None,None,None,None,2714.093699,None,2714.093699,None,right,0.06715888,2714.093699,None,None,None,2714.210672,2716.082286,,,,,,,,,,,,,120,1,19,1,2020_Mar_09_1114,Test,3.2.4,59.8444927,
Pictures/IA50_G40.bmp,Pictures/IA50_G40.bmp,Pictures/IA50.bmp,"

It would probably be best to play it safe.""""",0,safe,,,,,9,0,9,0,0,1,1,5,,,,,,,,,,,,,,,,,,,,,,,,,,,,,,,2716.099014,None,2718.121018,2719.641699,2719.624979,None,2721.162384,None,2,0.353907904,2723.150959,None,2723.150959,None,2723.150959,None,None,None,None,None,2723.685713,None,2723.685713,None,right,0.075156079,2723.685713,None,None,None,2723.80269,2725.674299,,,,,,,,,,,,,120,1,19,1,2020_Mar_09_1114,Test,3.2.4,59.8444927,,
Pictures/IA50_G10.bmp,Pictures/IA50_G10.bmp,Pictures/IA50.bmp,"

