,Choice,Choice2,Amount,AdviceVar1,GambleAdviceNum,GambleAdviceType,practice.thisRepN,practice.thisTrialN,practice.thisN,practice.thisIndex,trials_2.thisRepN,trials_2.thisTrialN,trials_2.thisN,trials_2.thisIndex,trials.thisRepN,trials.thisTrialN,trials.thisN,trials.thisIndex,text.started,text.stopped,key_resp_4.keys,key_resp_4.rt,key_resp_4.started,key_resp_4.stopped,instructions.started,instructions.stopped,space.keys,space.rt,space.started,space.stopped,chooseInst.started,chooseInst.stopped,Ad1.started,Ad1.stopped,Ad2.started,Ad2.stopped,key_resp_3.keys,key_resp_3.rt,key_resp_3.started,key_resp_3.stopped,Ad1pic.started,Ad1pic.stopped,Ad2pic.started,Ad2pic.stopped,enter.keys,enter.rt,enter.started,enter.stopped,iSi.started,iSi.stopped,receiveMoneyPicture.started,receiveMoneyPicture.stopped,ISI2.started,ISI2.stopped,ChoicePic.started,ChoicePic.stopped,response.keys,response.started,response.stopped,yesNo.started,yesNo.stopped,ask.started,ask.stopped,getAdv.started,getAdv.stopped,textForCode.started,textForCode.stopped,blank.started,blank.stopped,ChoicePic2.started,ChoicePic2.stopped,resp.keys,resp.rt,resp.started,resp.stopped,checkL1.started,checkL1.stopped,checkR1.started,checkR1.stopped,response.rt,EndPrac.started,EndPrac.stopped,key_resp.keys,key_resp.rt,key_resp.started,key_resp.stopped,endText.started,endText.stopped,key_resp_2.keys,key_resp_2.rt,key_resp_2.started,key_resp_2.stopped,participant,session,age,gender,date,expName,psychopyVersion,frameRate
11,Pictures/IA75_L15.bmp,Pictures/IA75_L15.bmp,75,"Trust me, gamble!""""",1,risk,,,,,0,0,0,0,0,0,0,17,,,,,,,,,,,,,899.9976434,None,899.9976434,None,899.9976434,None,0,5.804187744,899.9976434,None,899.9976434,None,899.9976434,None,return,7.315985802,899.9976434,None,907.3670691,None,909.4057703,910.9097319,910.8930246,None,912.4304087,None,0,914.3855616,None,914.3855616,None,914.3855616,None,None,None,None,None,915.1709658,None,915.1709658,None,1,0.390852478,915.1709658,None,None,None,915.6054407,917.1762478,0.616258605,,,,,,,,,,,,,999,1,9,1,2019_Dec_03_1004,Test,3.2.4,59.84044777
12,Pictures/IA25_G20.bmp,Pictures/IA25_G20.bmp,25,"I wouldn't gamble for this one. """"",0,safe,,,,,0,0,0,0,0,1,1,8,,,,,,,,,,,,,,,,,,,,,,,,,,,,,,,917.1929579,None,919.2316658,920.7523455,920.7356334,None,922.289727,None,0,924.2448819,None,924.2448819,None,924.2448819,None,None,None,None,None,924.8130462,None,924.8130462,None,1,0.348775718,924.8130462,None,None,None,925.1973877,926.8016157,0.3969433,,,,,,,,,,,,,999,1,9,1,2019_Dec_03_1004,Test,3.2.4,59.84044777
13,Pictures/IA100_L20.bmp,Pictures/IA100_L20.bmp,100,"Try to win as much money as you can, gamble!""""",1,risk,,,,,0,0,0,0,0,2,2,1,,,,,,,,,,,,,,,,,,,,,,,,,,,,,,,926.8183266,None,928.8570348,930.3777076,930.3609994,None,931.9150967,None,0,933.8702485,None,933.8702485,None,933.8702485,None,None,None,None,None,934.4718351,None,934.4718351,None,1,0.337997724,934.4718351,None,None,None,934.8561764,936.4603999,0.427579472,,,,,,,,,,,,,999,1,9,1,2019_Dec_03_1004,Test,3.2.4,59.84044777
14,Pictures/IA75_L45.bmp,Pictures/IA75_L45.bmp,75,"Don't gamble for this one, play it safe.""""",0,safe,,,,,0,0,0,0,0,3,3,13,,,,,,,,,,,,,,,,,,,,,,,,,,,,,,,936.4771164,None,938.4991162,940.0197874,940.0030809,None,941.5738847,None,1,943.5290389,None,943.5290389,None,943.5290389,None,944.8826053,None,944.8826053,945.8852461,946.9881645,None,946.9881645,None,0,0.957658631,946.9881645,None,947.9907958,None,None,None,1.216781007,,,,,,,,,,,,,999,1,9,1,2019_Dec_03_1004,Test,3.2.4,59.84044777
15,Pictures/IA20_10_G95p.bmp,Pictures/IA20_10_G95p.bmp,20,"Take a leap, I think you should gamble.""""",1,risk,,,,,0,0,0,0,0,4,4,15,,,,,,,,,,,,,,,,,,,,,,,,,,,,,,,949.0101474,None,951.048855,952.5528177,952.536111,None,954.1069171,None,0,956.0620717,None,956.0620717,None,956.0620717,None,None,None,None,None,956.8307624,None,956.8307624,None,0,0.283056978,956.8307624,None,957.1482755,958.8193349,None,None,0.587758245,,,,,,,,,,,,,999,1,9,1,2019_Dec_03_1004,Test,3.2.4,59.84044777
16,Pictures/IA25_L5.bmp,Pictures/IA25_L5.bmp,25,"It would be smarter to choose the safe option.""""",0,safe,,,,,0,0,0,0,0,5,5,12,,,,,,,,,,,,,,,,,,,,,,,,,,,,,,,958.8360466,None,960.8580396,962.378721,962.3620087,None,963.9328183,None,0,965.8879695,None,965.8879695,None,965.8879695,None,None,None,None,None,966.7736457,None,966.7736457,None,0,0.324175884,966.7736457,None,967.1412795,968.7622066,None,None,0.681856549,,,,,,,,,,,,,999,1,9,1,2019_Dec_03_1004,Test,3.2.4,59.84044777
17,Pictures/IA100_G60.bmp,Pictures/IA100_G60.bmp,100,"Be cautious, don't gamble for this one.""""",0,safe,,,,,0,0,0,0,0,6,6,14,,,,,,,,,,,,,,,,,,,,,,,,,,,,,,,968.7789191,None,970.8009163,972.3215895,972.3048824,None,973.892405,None,0,975.8308421,None,975.8308421,None,975.8308421,None,None,None,None,None,976.7666403,None,976.7666403,None,1,0.491181544,976.7666403,None,None,None,977.301381,978.7719221,0.762976903,,,,,,,,,,,,,999,1,9,1,2019_Dec_03_1004,Test,3.2.4,59.84044777
18,Pictures/IA75_G45.bmp,Pictures/IA75_G45.bmp,75,"Don't gamble for this one.""""",0,safe,,,,,0,0,0,0,0,7,7,9,,,,,,,,,,,,,,,,,,,,,,,,,,,,,,,978.7886323,None,980.8106319,982.3313047,982.3145974,None,983.8854032,None,1,985.8405582,None,985.8405582,None,985.8405582,None,986.9267575,None,986.9267575,987.929398,989.0323033,None,989.0323033,None,0,0.601517183,989.0323033,None,989.6673059,991.0375864,None,None,0.985270265,,,,,,,,,,,,,999,1,9,1,2019_Dec_03_1004,Test,3.2.4,59.84044777
19,Pictures/IA50_L20.bmp,Pictures/IA50_L20.bmp,50,"Certainty is boring, take a risk!""""",1,risk,,,,,0,0,0,0,0,8,8,10,,,,,,,,,,,,,,,,,,,,,,,,,,,,,,,991.0542969,None,993.0930019,994.6136765,994.5969686,None,996.1343541,None,0,998.1062198,None,998.1062198,None,998.1062198,None,None,None,None,None,999.2258417,None,999.2258417,None,0,0.375972547,999.2258417,None,999.6436013,1001.214425,None,None,0.951599827,,,,,,,,,,,,,999,1,9,1,2019_Dec_03_1004,Test,3.2.4,59.84044777
20,Pictures/IA100_G40.bmp,Pictures/IA100_G40.bmp,100,"Try your luck and gamble!""""",1,risk,,,,,0,0,0,0,0,9,9,2,,,,,,,,,,,,,,,,,,,,,,,,,,,,,,,1001.23112,None,1003.253121,1004.77379,1004.757083,None,1006.294466,None,0,1008.283044,None,1008.283044,None,1008.283044,None,None,None,None,None,1009.16871,None,1009.16871,None,0,0.297109812,1009.16871,None,1009.502921,1011.173993,None,None,0.718788516,,,,,,,,,,,,,999,1,9,1,2019_Dec_03_1004,Test,3.2.4,59.84044777
21,Pictures/IA50_L30.bmp,Pictures/IA50_L30.bmp,50,"Take a leap, I think you should gamble.""""",1,risk,,,,,0,0,0,0,0,10,10,6,,,,,,,,,,,,,,,,,,,,,,,,,,,,,,,1011.190701,None,1013.212697,1014.733375,1014.716669,None,1016.28747,None,0,1018.242627,None,1018.242627,None,1018.242627,None,None,None,None,None,1019.178428,None,1019.178428,None,0,0.271394231,1019.178428,None,1019.495928,1021.167007,None,None,0.759201286,,,,,,,,,,,,,999,1,9,1,2019_Dec_03_1004,Test,3.2.4,59.84044777
22,Pictures/IA25_G10.bmp,Pictures/IA25_G10.bmp,25,"What's life without a little risk?""""",1,risk,,,,,0,0,0,0,0,11,11,5,,,,,,,,,,,,,,,,,,,,,,,,,,,,,,,1021.18371,None,1023.205709,1024.72638,1024.709674,None,1026.263765,None,0,1028.235634,None,1028.235634,None,1028.235634,None,None,None,None,None,1029.405381,None,1029.405381,None,0,0.260438549,1029.405381,None,1029.706173,1031.410668,None,None,0.974195649,,,,,,,,,,,,,999,1,9,1,2019_Dec_03_1004,Test,3.2.4,59.84044777
23,Pictures/IA75_L60.bmp,Pictures/IA75_L60.bmp,75,"Why not take the gamble?""""",1,risk,,,,,0,0,0,0,0,12,12,16,,,,,,,,,,,,,,,,,,,,,,,,,,,,,,,1031.427374,None,1033.449376,1034.970048,1034.95334,None,1036.524142,None,0,1038.479301,None,1038.479301,None,1038.479301,None,None,None,None,None,1039.014041,None,1039.014041,None,0,0.291781734,1039.014041,None,1039.348254,1041.019321,None,None,0.378526295,,,,,,,,,,,,,999,1,9,1,2019_Dec_03_1004,Test,3.2.4,59.84044777
24,Pictures/IA75_G60.bmp,Pictures/IA75_G60.bmp,75,"Make it exciting, take a chance!""""",1,risk,,,,,0,0,0,0,0,13,13,18,,,,,,,,,,,,,,,,,,,,,,,,,,,,,,,1041.036035,None,1043.058032,1044.578705,1044.561995,None,1046.132803,None,0,1048.08796,None,1048.08796,None,1048.08796,None,None,None,None,None,1048.739677,None,1048.739677,None,1,0.254142864,1048.739677,None,None,None,1049.040466,1050.74496,0.48185872,,,,,,,,,,,,,999,1,9,1,2019_Dec_03_1004,Test,3.2.4,59.84044777
25,Pictures/IA50_L40.bmp,Pictures/IA50_L40.bmp,50,"That gamble doesn't sound too good, play it safe.""""",0,safe,,,,,0,0,0,0,0,14,14,11,,,,,,,,,,,,,,,,,,,,,,,,,,,,,,,1050.761668,None,1052.783694,1054.30434,1054.287635,None,1055.858442,None,0,1057.813593,None,1057.813593,None,1057.813593,None,None,None,None,None,1058.766108,None,1058.766108,None,0,0.251714712,1058.766108,None,1059.066908,1060.771384,None,None,0.756237764,,,,,,,,,,,,,999,1,9,1,2019_Dec_03_1004,Test,3.2.4,59.84044777
26,Pictures/IA80_40_L95p.bmp,Pictures/IA80_40_L95p.bmp,80,"Let's stay with the certain option.""""",0,safe,,,,,0,0,0,0,0,15,15,4,,,,,,,,,,,,,,,,,,,,,,,,,,,,,,,1060.788094,None,1062.826806,1064.330768,1064.314059,None,1065.834735,None,1,1067.84002,None,1067.84002,None,1067.84002,None,1068.759111,None,1068.759111,1069.761747,1070.864659,None,1070.864659,None,1,1.225156757,1070.864659,None,None,None,1072.134669,None,0.801798852,,,,,,,,,,,,,999,1,9,1,2019_Dec_03_1004,Test,3.2.4,59.84044777
27,Pictures/IA50_G10.bmp,Pictures/IA50_G10.bmp,50,"Go with the safe option here!""""",0,safe,,,,,0,0,0,0,0,16,16,3,,,,,,,,,,,,,,,,,,,,,,,,,,,,,,,1072.886651,None,1074.908649,1076.429324,1076.412614,None,1077.95,None,1,1079.938581,None,1079.938581,None,1079.938581,None,1081.00806,None,1081.00806,1082.010701,1083.113613,None,1083.113613,None,0,0.408201246,1083.113613,None,1083.564797,1085.102182,None,None,0.967254626,,,,,,,,,,,,,999,1,9,1,2019_Dec_03_1004,Test,3.2.4,59.84044777
28,Pictures/IA100_G20.bmp,Pictures/IA100_G20.bmp,100,"Go ahead and gamble!""""",1,risk,,,,,0,0,0,0,0,17,17,19,,,,,,,,,,,,,,,,,,,,,,,,,,,,,,,1085.118894,None,1087.140902,1088.661563,1088.644858,None,1090.182241,None,0,1092.170819,None,1092.170819,None,1092.170819,None,None,None,None,None,1093.290436,None,1093.290436,None,0,0.391383437,1093.290436,None,1093.724913,1095.279006,None,None,0.959008129,,,,,,,,,,,,,999,1,9,1,2019_Dec_03_1004,Test,3.2.4,59.84044777
29,Pictures/IA50_G30.bmp,Pictures/IA50_G30.bmp,50,"I think you should gamble.""""",1,risk,,,,,0,0,0,0,0,18,18,7,,,,,,,,,,,,,,,,,,,,,,,,,,,,,,,1095.295718,None,1097.317714,1098.838391,1098.821681,None,1100.359066,None,0,1102.347643,None,1102.347643,None,1102.347643,None,None,None,None,None,1103.066203,None,1103.066203,None,0,0.29561146,1103.066203,None,1103.400413,1105.071484,None,None,0.566194486,,,,,,,,,,,,,999,1,9,1,2019_Dec_03_1004,Test,3.2.4,59.84044777
30,Pictures/IA25_G15.bmp,Pictures/IA25_G15.bmp,25,"I think you should take a gamble.""""",1,risk,,,,,0,0,0,0,0,19,19,0,,,,,,,,,,,,,,,,,,,,,,,,,,,,,,,1105.088195,None,1107.110193,1108.630866,1108.614158,None,1110.184964,None,0,1112.14013,None,1112.14013,None,1112.14013,None,None,None,None,None,1112.775126,None,1112.775126,None,0,0.250683312,1112.775126,None,1113.059206,1114.7637,None,None,0.461690017,,,,,,,,,,,,,999,1,9,1,2019_Dec_03_1004,Test,3.2.4,59.84044777
32,Pictures/IA50_G20.bmp,Pictures/IA50_G20.bmp,50,"Let's venture and take a risk!""""",1,risk,,,,,1,0,1,0,0,0,0,2,,,,,,,,,,,,,1125.993302,None,1125.993302,None,1125.993302,None,1,3.480528874,1125.993302,None,1125.993302,None,1125.993302,None,return,5.832291108,1125.993302,None,1131.892182,None,1133.897467,1135.418142,1135.401431,None,1136.922106,None,1,1138.910688,None,1138.910688,None,1138.910688,None,1139.462142,None,1139.462142,1140.464775,1141.567686,None,1141.567686,None,0,0.794137371,1141.567686,None,1142.403219,1143.572967,None,None,0.435145539,,,,,,,,,,,,,999,1,9,1,2019_Dec_03_1004,Test,3.2.4,59.84044777
33,Pictures/IA50_G10.bmp,Pictures/IA50_G10.bmp,50,"Go with the safe option here!""""",0,safe,,,,,1,0,1,0,0,1,1,18,,,,,,,,,,,,,,,,,,,,,,,,,,,,,,,1143.589685,None,1145.611675,1147.132353,1147.115642,None,1148.636318,None,0,1150.641603,None,1150.641603,None,1150.641603,None,None,None,None,None,1152.279252,None,1152.279252,None,0,0.354568349,1152.279252,None,1152.680309,1154.284536,None,None,1.440228882,,,,,,,,,,,,,999,1,9,1,2019_Dec_03_1004,Test,3.2.4,59.84044777
34,Pictures/IA110_55_L95p.bmp,Pictures/IA110_55_L95p.bmp,110,"Trust me, gamble!""""",1,risk,,,,,1,0,1,0,0,2,2,19,,,,,,,,,,,,,,,,,,,,,,,,,,,,,,,1154.301245,None,1156.339952,1157.860627,1157.843922,None,1159.381306,None,1,1161.35317,None,1161.35317,None,1161.35317,None,1161.787648,None,1161.787648,1162.790286,1163.893199,None,1163.893199,None,1,0.34861896,1163.893199,None,None,None,1164.277543,1165.881768,0.328655565,,,,,,,,,,,,,999,1,9,1,2019_Dec_03_1004,Test,3.2.4,59.84044777
35,Pictures/IA25_L20.bmp,Pictures/IA25_L20.bmp,25,"Don't be tempted to gamble.""""",0,safe,,,,,1,0,1,0,0,3,3,4,,,,,,,,,,,,,,,,,,,,,,,,,,,,,,,1165.89848,None,1167.920481,1169.441162,1169.424443,None,1170.99525,None,0,1172.950412,None,1172.950412,None,1172.950412,None,None,None,None,None,1174.320684,None,1174.320684,None,0,0.313136758,1174.320684,None,1174.671606,1176.309256,None,None,1.187422186,,,,,,,,,,,,,999,1,9,1,2019_Dec_03_1004,Test,3.2.4,59.84044777
36,Pictures/IA25_G20.bmp,Pictures/IA25_G20.bmp,25,"I wouldn't gamble for this one. """"",0,safe,,,,,1,0,1,0,0,4,4,12,,,,,,,,,,,,,,,,,,,,,,,,,,,,,,,1176.325966,None,1178.347963,1179.868636,1179.851928,None,1181.355893,None,0,1183.377889,None,1183.377889,None,1183.377889,None,None,None,None,None,1184.347113,None,1184.347113,None,0,0.230707213,1184.347113,None,1184.614482,1186.352396,None,None,0.77594195,,,,,,,,,,,,,999,1,9,1,2019_Dec_03_1004,Test,3.2.4,59.84044777
37,Pictures/IA75_G45.bmp,Pictures/IA75_G45.bmp,75,"Don't gamble for this one.""""",0,safe,,,,,1,0,1,0,0,5,5,8,,,,,,,,,,,,,,,,,,,,,,,,,,,,,,,1186.369105,None,1188.39111,1189.911775,1189.895066,None,1191.415743,None,1,1193.42103,None,1193.42103,None,1193.42103,None,1193.8388,None,1193.8388,1194.841439,1195.961057,None,1195.961057,None,0,0.552766469,1195.961057,None,1196.562641,1197.966339,None,None,0.308801623,,,,,,,,,,,,,999,1,9,1,2019_Dec_03_1004,Test,3.2.4,59.84044777
38,Pictures/IA25_L15.bmp,Pictures/IA25_L15.bmp,25,"There's not much on the line here, gamble!""""",1,risk,,,,,1,0,1,0,0,6,6,6,,,,,,,,,,,,,,,,,,,,,,,,,,,,,,,1197.98305,None,1200.005047,1201.525725,1201.509013,None,1203.079823,None,0,1205.034975,None,1205.034975,None,1205.034975,None,None,None,None,None,1206.889868,None,1206.889868,None,0,0.311949304,1206.889868,None,1207.240785,1208.878436,None,None,1.654840021,,,,,,,,,,,,,999,1,9,1,2019_Dec_03_1004,Test,3.2.4,59.84044777
39,Pictures/IA75_G30.bmp,Pictures/IA75_G30.bmp,75,"Be bold, gamble!""""",1,risk,,,,,1,0,1,0,0,7,7,16,,,,,,,,,,,,,,,,,,,,,,,,,,,,,,,1208.895145,None,1210.917158,1212.437818,1212.421111,None,1214.092176,None,0,1216.030643,None,1216.030643,None,1216.030643,None,None,None,None,None,1217.317347,None,1217.317347,None,0,0.316466321,1217.317347,None,1217.668271,1219.305914,None,None,1.115189089,,,,,,,,,,,,,999,1,9,1,2019_Dec_03_1004,Test,3.2.4,59.84044777
40,Pictures/IA80_40_G95p.bmp,Pictures/IA80_40_G95p.bmp,80,"Think of the payoff, gamble!""""",1,risk,,,,,1,0,1,0,0,8,8,1,,,,,,,,,,,,,,,,,,,,,,,,,,,,,,,1219.322629,None,1221.361338,1222.882015,1222.865309,None,1224.4194,None,1,1226.374555,None,1226.374555,None,1226.374555,None,1226.84246,None,1226.84246,1227.845093,1228.948005,None,1228.948005,None,0,0.477806907,1228.948005,None,1229.466033,1230.936576,None,None,0.347264773,,,,,,,,,,,,,999,1,9,1,2019_Dec_03_1004,Test,3.2.4,59.84044777
41,Pictures/IA25_G5.bmp,Pictures/IA25_G5.bmp,25,"Let's stay with the certain option.""""",0,safe,,,,,1,0,1,0,0,9,9,14,,,,,,,,,,,,,,,,,,,,,,,,,,,,,,,1230.953287,None,1232.975292,1234.495959,1234.479248,None,1236.050081,None,0,1238.005213,None,1238.005213,None,1238.005213,None,None,None,None,None,1238.556663,None,1238.556663,None,0,0.245152042,1238.556663,None,1238.840744,1240.561945,None,None,0.348609594,,,,,,,,,,,,,999,1,9,1,2019_Dec_03_1004,Test,3.2.4,59.84044777
42,Pictures/IA25_G15.bmp,Pictures/IA25_G15.bmp,25,"I think you should take a gamble.""""",1,risk,,,,,1,0,1,0,0,10,10,10,,,,,,,,,,,,,,,,,,,,,,,,,,,,,,,1240.578657,None,1242.600655,1244.121328,1244.10462,None,1245.642007,None,0,1247.630582,None,1247.630582,None,1247.630582,None,None,None,None,None,1248.583092,None,1248.583092,None,0,0.314724414,1248.583092,None,1248.934014,1250.571663,None,None,0.771250435,,,,,,,,,,,,,999,1,9,1,2019_Dec_03_1004,Test,3.2.4,59.84044777
43,Pictures/IA75_G15.bmp,Pictures/IA75_G15.bmp,75,"Take a chance!""""",1,risk,,,,,1,0,1,0,0,11,11,5,,,,,,,,,,,,,,,,,,,,,,,,,,,,,,,1250.588374,None,1252.610376,1254.131045,1254.11434,None,1255.685145,None,0,1257.640299,None,1257.640299,None,1257.640299,None,None,None,None,None,1258.525966,None,1258.525966,None,0,0.35585646,1258.525966,None,1258.927025,1260.531248,None,None,0.729524992,,,,,,,,,,,,,999,1,9,1,2019_Dec_03_1004,Test,3.2.4,59.84044777
44,Pictures/IA80_40_L95p.bmp,Pictures/IA80_40_L95p.bmp,80,"Let's stay with the certain option.""""",0,safe,,,,,1,0,1,0,0,12,12,17,,,,,,,,,,,,,,,,,,,,,,,,,,,,,,,1260.54796,None,1262.569963,1264.090631,1264.073924,None,1265.628018,None,0,1267.599885,None,1267.599885,None,1267.599885,None,None,None,None,None,1269.170692,None,1269.170692,None,1,0.071129465,1269.170692,None,None,None,1269.287663,1271.159274,1.353930674,,,,,,,,,,,,,999,1,9,1,2019_Dec_03_1004,Test,3.2.4,59.84044777
45,Pictures/IA25_L10.bmp,Pictures/IA25_L10.bmp,25,"Dont be afraid to take the risk!""""",1,risk,,,,,1,0,1,0,0,13,13,15,,,,,,,,,,,,,,,,,,,,,,,,,,,,,,,1271.175974,None,1273.197969,1274.718644,1274.701937,None,1276.272742,None,1,1278.227899,None,1278.227899,None,1278.227899,None,1278.729222,None,1278.729222,1279.731858,1280.834769,None,1280.834769,None,0,0.615047066,1280.834769,None,1281.486482,1282.840049,None,None,0.373926448,,,,,,,,,,,,,999,1,9,1,2019_Dec_03_1004,Test,3.2.4,59.84044777
46,Pictures/IA100_G80.bmp,Pictures/IA100_G80.bmp,100,"Why not gamble?""""",1,risk,,,,,1,0,1,0,0,14,14,9,,,,,,,,,,,,,,,,,,,,,,,,,,,,,,,1282.85676,None,1284.912181,1286.416145,1286.399437,None,1287.953528,None,1,1289.908686,None,1289.908686,None,1289.908686,None,1290.877906,None,1290.877906,1291.880545,1292.983461,None,1292.983461,None,0,0.330356927,1292.983461,None,1293.351089,1294.988738,None,None,0.869133157,,,,,,,,,,,,,999,1,9,1,2019_Dec_03_1004,Test,3.2.4,59.84044777
47,Pictures/IA100_G40.bmp,Pictures/IA100_G40.bmp,100,"Try your luck and gamble!""""",1,risk,,,,,1,0,1,0,0,15,15,3,,,,,,,,,,,,,,,,,,,,,,,,,,,,,,,1295.00545,None,1297.027447,1298.548121,1298.531414,None,1300.102218,None,0,1302.057373,None,1302.057373,None,1302.057373,None,None,None,None,None,1302.658961,None,1302.658961,None,0,0.294865335,1302.658961,None,1302.993171,1304.647536,None,None,0.448446957,,,,,,,,,,,,,999,1,9,1,2019_Dec_03_1004,Test,3.2.4,59.84044777
48,Pictures/IA100_L60.bmp,Pictures/IA100_L60.bmp,100,"You'd have a lot to lose, don't gamble.""""",0,safe,,,,,1,0,1,0,0,16,16,13,,,,,,,,,,,,,,,,,,,,,,,,,,,,,,,1304.664238,None,1306.686239,1308.206912,1308.190208,None,1309.76101,None,0,1311.71617,None,1311.71617,None,1311.71617,None,None,None,None,None,1312.451441,None,1312.451441,None,0,0.254392242,1312.451441,None,1312.752226,1314.456718,None,None,0.565655618,,,,,,,,,,,,,999,1,9,1,2019_Dec_03_1004,Test,3.2.4,59.84044777
49,Pictures/IA100_G60.bmp,Pictures/IA100_G60.bmp,100,"Be cautious, don't gamble for this one.""""",0,safe,,,,,1,0,1,0,0,17,17,0,,,,,,,,,,,,,,,,,,,,,,,,,,,,,,,1314.473429,None,1316.495428,1318.016102,1317.999393,None,1319.553493,None,0,1321.525354,None,1321.525354,None,1321.525354,None,None,None,None,None,1322.093525,None,1322.093525,None,0,0.228303422,1322.093525,None,1322.360889,1324.0988,None,None,0.388473263,,,,,,,,,,,,,999,1,9,1,2019_Dec_03_1004,Test,3.2.4,59.84044777
50,Pictures/IA75_L45.bmp,Pictures/IA75_L45.bmp,75,"Don't gamble for this one, play it safe.""""",0,safe,,,,,1,0,1,0,0,18,18,11,,,,,,,,,,,,,,,,,,,,,,,,,,,,,,,1324.11551,None,1326.137524,1327.658183,1327.641475,None,1329.195569,None,0,1331.167436,None,1331.167436,None,1331.167436,None,None,None,None,None,1331.902704,None,1331.902704,None,0,0.555116057,1331.902704,None,1332.504288,1333.907987,None,None,0.562393215,,,,,,,,,,,,,999,1,9,1,2019_Dec_03_1004,Test,3.2.4,59.84044777
51,Pictures/IA50_L20.bmp,Pictures/IA50_L20.bmp,50,"Certainty is boring, take a risk!""""",1,risk,,,,,1,0,1,0,0,19,19,7,,,,,,,,,,,,,,,,,,,,,,,,,,,,,,,1333.924699,None,1335.9467,1337.46737,1337.450666,None,1339.004758,None,1,1340.976622,None,1340.976622,None,1340.976622,None,1341.778736,None,1341.778736,1342.781376,1343.884293,None,1343.884293,None,0,1.053517613,1343.884293,None,1344.987192,None,None,None,0.673218685,,,,,,,,,,,,,999,1,9,1,2019_Dec_03_1004,Test,3.2.4,59.84044777
53,Pictures/IA25_G10.bmp,Pictures/IA25_G10.bmp,25,"What's life without a little risk?""""",1,risk,,,,,2,0,2,0,0,0,0,15,,,,,,,,,,,,,1356.250211,None,1356.250211,None,1356.250211,None,0,2.319599141,1356.250211,None,1356.250211,None,1356.250211,None,return,3.6553933,1356.250211,None,1359.959989,None,1361.965275,1363.485949,1363.469242,None,1365.006627,None,0,1366.978491,None,1366.978491,None,1366.978491,None,None,None,None,None,1368.298638,None,1368.298638,None,0,0.271181495,1368.298638,None,1368.616152,1370.287208,None,None,1.1433349,,,,,,,,,,,,,999,1,9,1,2019_Dec_03_1004,Test,3.2.4,59.84044777
54,Pictures/IA100_G20.bmp,Pictures/IA100_G20.bmp,100,"Go ahead and gamble!""""",1,risk,,,,,2,0,2,0,0,1,1,13,,,,,,,,,,,,,,,,,,,,,,,,,,,,,,,1370.30392,None,1372.325915,1373.846589,1373.829883,None,1375.383981,None,0,1377.355808,None,1377.355808,None,1377.355808,None,None,None,None,None,1378.040981,None,1378.040981,None,0,0.136836437,1378.040981,None,1378.224813,1380.029554,None,None,0.534012288,,,,,,,,,,,,,999,1,9,1,2019_Dec_03_1004,Test,3.2.4,59.84044777
55,Pictures/IA110_55_G95p.bmp,Pictures/IA110_55_G95p.bmp,110,"Take a chance!""""",1,risk,,,,,2,0,2,0,0,2,2,7,,,,,,,,,,,,,,,,,,,,,,,,,,,,,,,1380.046264,None,1382.084974,1383.588934,1383.57223,None,1385.159756,None,1,1387.09819,None,1387.09819,None,1387.09819,None,1387.716484,None,1387.716484,1388.719122,1389.838745,None,1389.838745,None,0,1.163071001,1389.838745,None,1391.041915,None,None,None,0.527636927,,,,,,,,,,,,,999,1,9,1,2019_Dec_03_1004,Test,3.2.4,59.84044777
56,Pictures/IA25_L5.bmp,Pictures/IA25_L5.bmp,25,"It would be smarter to choose the safe option.""""",0,safe,,,,,2,0,2,0,0,3,3,11,,,,,,,,,,,,,,,,,,,,,,,,,,,,,,,1391.860737,None,1393.882736,1395.403408,1395.386702,None,1396.9408,None,0,1398.912667,None,1398.912667,None,1398.912667,None,None,None,None,None,1400.583733,None,1400.583733,None,1,0.410081526,1400.583733,None,None,None,1401.034934,1402.572302,1.497157808,,,,,,,,,,,,,999,1,9,1,2019_Dec_03_1004,Test,3.2.4,59.84044777
57,Pictures/IA50_G10.bmp,Pictures/IA50_G10.bmp,50,"Go with the safe option here!""""",0,safe,,,,,2,0,2,0,0,4,4,1,,,,,,,,,,,,,,,,,,,,,,,,,,,,,,,1402.589015,None,1404.611012,1406.131684,1406.114977,None,1407.618941,None,1,1409.640937,None,1409.640937,None,1409.640937,None,1410.693679,None,1410.693679,1411.696351,1412.799264,None,1412.799264,None,0,0.874554863,1412.799264,None,1413.71835,1414.787835,None,None,0.944889404,,,,,,,,,,,,,999,1,9,1,2019_Dec_03_1004,Test,3.2.4,59.84044777
58,Pictures/IA80_40_G95p.bmp,Pictures/IA80_40_G95p.bmp,80,"Think of the payoff, gamble!""""",1,risk,,,,,2,0,2,0,0,5,5,8,,,,,,,,,,,,,,,,,,,,,,,,,,,,,,,1414.804551,None,1416.826544,1418.347215,1418.330508,None,1419.851179,None,1,1421.856468,None,1421.856468,None,1421.856468,None,1422.758846,None,1422.758846,1423.761486,1424.864396,None,1424.864396,None,0,0.43342781,1424.864396,None,1425.332293,1426.869677,None,None,0.785380939,,,,,,,,,,,,,999,1,9,1,2019_Dec_03_1004,Test,3.2.4,59.84044777
59,Pictures/IA75_L60.bmp,Pictures/IA75_L60.bmp,75,"Why not take the gamble?""""",1,risk,,,,,2,0,2,0,0,6,6,6,,,,,,,,,,,,,,,,,,,,,,,,,,,,,,,1426.886388,None,1428.908386,1430.429059,1430.412352,None,1431.983159,None,1,1433.938312,None,1433.938312,None,1433.938312,None,1435.041217,None,1435.041217,1436.043857,1437.146777,None,1437.146777,None,0,1.063025919,1437.146777,None,1438.249672,None,None,None,0.999508823,,,,,,,,,,,,,999,1,9,1,2019_Dec_03_1004,Test,3.2.4,59.84044777
60,Pictures/IA50_L30.bmp,Pictures/IA50_L30.bmp,50,"Take a leap, I think you should gamble.""""",1,risk,,,,,2,0,2,0,0,7,7,5,,,,,,,,,,,,,,,,,,,,,,,,,,,,,,,1439.168762,None,1441.190761,1442.694722,1442.678014,None,1444.24882,None,1,1446.22069,None,1446.22069,None,1446.22069,None,1447.089641,None,1447.089641,1448.092285,1449.195197,None,1449.195197,None,0,0.910631547,1449.195197,None,1450.147712,1451.183764,None,None,0.725133205,,,,,,,,,,,,,999,1,9,1,2019_Dec_03_1004,Test,3.2.4,59.84044777
61,Pictures/IA50_L20.bmp,Pictures/IA50_L20.bmp,50,"Certainty is boring, take a risk!""""",1,risk,,,,,2,0,2,0,0,8,8,19,,,,,,,,,,,,,,,,,,,,,,,,,,,,,,,1451.200474,None,1453.222472,1454.726435,1454.709725,None,1456.2304,None,1,1458.252401,None,1458.252401,None,1458.252401,None,1458.686847,None,1458.686847,1459.689513,1460.825896,None,1460.825896,None,1,0.551928493,1460.825896,None,None,None,1461.427459,1462.814433,0.333420217,,,,,,,,,,,,,999,1,9,1,2019_Dec_03_1004,Test,3.2.4,59.84044777
62,Pictures/IA50_G40.bmp,Pictures/IA50_G40.bmp,50,"It would probably be best to play it safe.""""",0,safe,,,,,2,0,2,0,0,9,9,2,,,,,,,,,,,,,,,,,,,,,,,,,,,,,,,1462.831203,None,1464.869836,1466.390509,1466.373806,None,1467.91119,None,1,1469.883053,None,1469.883053,None,1469.883053,None,1470.651747,None,1470.651747,1471.654382,1472.774005,None,1472.774005,None,1,0.475814337,1472.774005,None,None,None,1473.292035,1474.762575,0.630772233,,,,,,,,,,,,,999,1,9,1,2019_Dec_03_1004,Test,3.2.4,59.84044777
63,Pictures/IA20_10_L95p.bmp,Pictures/IA20_10_L95p.bmp,20,"Don't be tempted to gamble.""""",0,safe,,,,,2,0,2,0,0,10,10,17,,,,,,,,,,,,,,,,,,,,,,,,,,,,,,,1474.779286,None,1476.817996,1478.338668,1478.32196,None,1479.876059,None,0,1481.831209,None,1481.831209,None,1481.831209,None,None,None,None,None,1482.800432,None,1482.800432,None,1,0.225397029,1482.800432,None,None,None,1483.0678,1484.805712,0.786613314,,,,,,,,,,,,,999,1,9,1,2019_Dec_03_1004,Test,3.2.4,59.84044777
64,Pictures/IA80_40_L95p.bmp,Pictures/IA80_40_L95p.bmp,80,"Let's stay with the certain option.""""",0,safe,,,,,2,0,2,0,0,11,11,14,,,,,,,,,,,,,,,,,,,,,,,,,,,,,,,1484.822423,None,1486.861133,1488.381805,1488.365096,None,1489.902485,None,0,1491.874346,None,1491.874346,None,1491.874346,None,None,None,None,None,1492.960541,None,1492.960541,None,1,0.169279945,1492.960541,None,None,None,1493.177779,1494.965824,0.871488135,,,,,,,,,,,,,999,1,9,1,2019_Dec_03_1004,Test,3.2.4,59.84044777
65,Pictures/IA50_G30.bmp,Pictures/IA50_G30.bmp,50,"I think you should gamble.""""",1,risk,,,,,2,0,2,0,0,12,12,4,,,,,,,,,,,,,,,,,,,,,,,,,,,,,,,1494.982535,None,1497.004534,1498.508494,1498.491787,None,1500.045885,None,1,1502.03446,None,1502.03446,None,1502.03446,None,1502.702884,None,1502.702884,1503.705525,1504.825148,None,1504.825148,None,0,0.328660106,1504.825148,None,1505.192778,1506.830426,None,None,0.567357402,,,,,,,,,,,,,999,1,9,1,2019_Dec_03_1004,Test,3.2.4,59.84044777
66,Pictures/IA50_G20.bmp,Pictures/IA50_G20.bmp,50,"Let's venture and take a risk!""""",1,risk,,,,,2,0,2,0,0,13,13,12,,,,,,,,,,,,,,,,,,,,,,,,,,,,,,,1506.847144,None,1508.869138,1510.389812,1510.373101,None,1511.927195,None,0,1513.899064,None,1513.899064,None,1513.899064,None,None,None,None,None,1514.851576,None,1514.851576,None,0,0.26224238,1514.851576,None,1515.152373,1516.856852,None,None,0.798761875,,,,,,,,,,,,,999,1,9,1,2019_Dec_03_1004,Test,3.2.4,59.84044777
67,Pictures/IA25_G5.bmp,Pictures/IA25_G5.bmp,25,"Let's stay with the certain option.""""",0,safe,,,,,2,0,2,0,0,14,14,9,,,,,,,,,,,,,,,,,,,,,,,,,,,,,,,1516.873581,None,1518.928988,1520.432948,1520.416238,None,1521.936915,None,0,1523.925491,None,1523.925491,None,1523.925491,None,None,None,None,None,1524.944841,None,1524.944841,None,0,0.256980182,1524.944841,None,1525.245638,1526.933469,None,None,0.804328356,,,,,,,,,,,,,999,1,9,1,2019_Dec_03_1004,Test,3.2.4,59.84044777
68,Pictures/IA75_G30.bmp,Pictures/IA75_G30.bmp,75,"Be bold, gamble!""""",1,risk,,,,,2,0,2,0,0,15,15,10,,,,,,,,,,,,,,,,,,,,,,,,,,,,,,,1526.950137,None,1528.98883,1530.509504,1530.492797,None,1532.030182,None,0,1534.002049,None,1534.002049,None,1534.002049,None,None,None,None,None,1534.871002,None,1534.871002,None,0,0.298814089,1534.871002,None,1535.205214,1536.876282,None,None,0.711778679,,,,,,,,,,,,,999,1,9,1,2019_Dec_03_1004,Test,3.2.4,59.84044777
69,Pictures/IA25_L20.bmp,Pictures/IA25_L20.bmp,25,"Don't be tempted to gamble.""""",0,safe,,,,,2,0,2,0,0,16,16,3,,,,,,,,,,,,,,,,,,,,,,,,,,,,,,,1536.892994,None,1538.931709,1540.435673,1540.418957,None,1541.956342,None,0,1543.944923,None,1543.944923,None,1543.944923,None,None,None,None,None,1544.696905,None,1544.696905,None,0,0.152935986,1544.696905,None,1544.897462,1546.702185,None,None,0.544903232,,,,,,,,,,,,,999,1,9,1,2019_Dec_03_1004,Test,3.2.4,59.84044777
70,Pictures/IA50_L10.bmp,Pictures/IA50_L10.bmp,50,"Play it safe, don‰Ûªt gamble!""""",0,safe,,,,,2,0,2,0,0,17,17,0,,,,,,,,,,,,,,,,,,,,,,,,,,,,,,,1546.718895,None,1548.757601,1550.261562,1550.244854,None,1551.815659,None,0,1553.770815,None,1553.770815,None,1553.770815,None,None,None,None,None,1555.20794,None,1555.20794,None,1,0.217873088,1555.20794,None,None,None,1555.475312,1557.213219,1.223014142,,,,,,,,,,,,,999,1,9,1,2019_Dec_03_1004,Test,3.2.4,59.84044777
71,Pictures/IA25_L15.bmp,Pictures/IA25_L15.bmp,25,"There's not much on the line here, gamble!""""",1,risk,,,,,2,0,2,0,0,18,18,18,,,,,,,,,,,,,,,,,,,,,,,,,,,,,,,1557.229937,None,1559.251928,1560.772597,1560.75589,None,1562.309985,None,0,1564.281857,None,1564.281857,None,1564.281857,None,None,None,None,None,1565.652129,None,1565.652129,None,0,0.437693422,1565.652129,None,1566.136747,1567.640698,None,None,1.19197122,,,,,,,,,,,,,999,1,9,1,2019_Dec_03_1004,Test,3.2.4,59.84044777
72,Pictures/IA20_10_G95p.bmp,Pictures/IA20_10_G95p.bmp,20,"Take a leap, I think you should gamble.""""",1,risk,,,,,2,0,2,0,0,19,19,16,,,,,,,,,,,,,,,,,,,,,,,,,,,,,,,1567.657414,None,1569.69612,1571.200079,1571.183375,None,1572.704048,None,0,1574.709333,None,1574.709333,None,1574.709333,None,None,None,None,None,1576.330273,None,1576.330273,None,0,0.287547333,1576.330273,None,1576.664483,1578.335552,None,None,1.444500427,,,,,,,,,,,,,999,1,9,1,2019_Dec_03_1004,Test,3.2.4,59.84044777
74,Pictures/IA50_G10.bmp,Pictures/IA50_G10.bmp,50,"Go with the safe option here!""""",0,safe,,,,,3,0,3,0,0,0,0,3,,,,,,,,,,,,,1589.331203,None,1589.331203,None,1589.331203,None,0,2.342609077,1589.331203,None,1589.331203,None,1589.331203,None,return,3.262398277,1589.331203,None,1592.639926,None,1594.645206,1596.165879,1596.149181,None,1597.686558,None,0,1599.675131,None,1599.675131,None,1599.675131,None,None,None,None,None,1600.677774,None,1600.677774,None,0,0.316037653,1600.677774,None,1601.028695,1602.683055,None,None,0.790699131,,,,,,,,,,,,,999,1,9,1,2019_Dec_03_1004,Test,3.2.4,59.84044777
75,Pictures/IA20_10_G95p.bmp,Pictures/IA20_10_G95p.bmp,20,"Take a leap, I think you should gamble.""""",1,risk,,,,,3,0,3,0,0,1,1,5,,,,,,,,,,,,,,,,,,,,,,,,,,,,,,,1602.699766,None,1604.721767,1606.242435,1606.225732,None,1607.729706,None,0,1609.751689,None,1609.751689,None,1609.751689,None,None,None,None,None,1610.537091,None,1610.537091,None,0,0.080730857,1610.537091,None,1610.654065,1612.542373,None,None,0.610135555,,,,,,,,,,,,,999,1,9,1,2019_Dec_03_1004,Test,3.2.4,59.84044777
76,Pictures/IA100_G60.bmp,Pictures/IA100_G60.bmp,100,"Be cautious, don't gamble for this one.""""",0,safe,,,,,3,0,3,0,0,2,2,13,,,,,,,,,,,,,,,,,,,,,,,,,,,,,,,1612.559084,None,1614.597793,1616.101755,1616.085051,None,1617.622433,None,0,1619.611008,None,1619.611008,None,1619.611008,None,None,None,None,None,1620.212597,None,1620.212597,None,0,1.005229934,1620.212597,None,1621.265363,None,None,None,0.422820423,,,,,,,,,,,,,999,1,9,1,2019_Dec_03_1004,Test,3.2.4,59.84044777
77,Pictures/IA25_L10.bmp,Pictures/IA25_L10.bmp,25,"Dont be afraid to take the risk!""""",1,risk,,,,,3,0,3,0,0,3,3,9,,,,,,,,,,,,,,,,,,,,,,,,,,,,,,,1622.217873,None,1624.239875,1625.760541,1625.743835,None,1627.297931,None,0,1629.269796,None,1629.269796,None,1629.269796,None,None,None,None,None,1630.623365,None,1630.623365,None,0,0.354455401,1630.623365,None,1631.024416,1632.628644,None,None,1.16402985,,,,,,,,,,,,,999,1,9,1,2019_Dec_03_1004,Test,3.2.4,59.84044777
78,Pictures/IA100_G80.bmp,Pictures/IA100_G80.bmp,100,"Why not gamble?""""",1,risk,,,,,3,0,3,0,0,4,4,8,,,,,,,,,,,,,,,,,,,,,,,,,,,,,,,1632.645355,None,1634.684064,1636.204735,1636.188026,None,1637.742122,None,0,1639.697276,None,1639.697276,None,1639.697276,None,None,None,None,None,1641.000718,None,1641.000718,None,0,0.161102362,1641.000718,None,1641.201237,1643.005993,None,None,1.152547715,,,,,,,,,,,,,999,1,9,1,2019_Dec_03_1004,Test,3.2.4,59.84044777
79,Pictures/IA25_L5.bmp,Pictures/IA25_L5.bmp,25,"It would be smarter to choose the safe option.""""",0,safe,,,,,3,0,3,0,0,5,5,1,,,,,,,,,,,,,,,,,,,,,,,,,,,,,,,1643.022705,None,1645.0447,1646.565375,1646.548667,None,1648.08605,None,1,1650.074627,None,1650.074627,None,1650.074627,None,1650.826608,None,1650.826608,1651.829249,1652.932158,None,1652.932158,None,1,0.525661128,1652.932158,None,None,None,1653.500317,1654.937437,0.591199352,,,,,,,,,,,,,999,1,9,1,2019_Dec_03_1004,Test,3.2.4,59.84044777
80,Pictures/IA50_G40.bmp,Pictures/IA50_G40.bmp,50,"It would probably be best to play it safe.""""",0,safe,,,,,3,0,3,0,0,6,6,11,,,,,,,,,,,,,,,,,,,,,,,,,,,,,,,1654.954151,None,1656.976148,1658.496819,1658.480112,None,1660.017495,None,0,1662.006072,None,1662.006072,None,1662.006072,None,None,None,None,None,1662.858317,None,1662.858317,None,1,0.655502031,1662.858317,None,None,None,1663.560163,1664.846916,0.683751349,,,,,,,,,,,,,999,1,9,1,2019_Dec_03_1004,Test,3.2.4,59.84044777
81,Pictures/IA100_L40.bmp,Pictures/IA100_L40.bmp,100,"Think of the payoff, gamble!""""",1,risk,,,,,3,0,3,0,0,7,7,12,,,,,,,,,,,,,,,,,,,,,,,,,,,,,,,1664.863599,None,1666.885596,1668.406268,1668.389561,None,1669.960367,None,0,1671.915522,None,1671.915522,None,1671.915522,None,None,None,None,None,1673.352643,None,1673.352643,None,1,0.489174299,1673.352643,None,None,None,1673.88738,1675.357922,1.254314499,,,,,,,,,,,,,999,1,9,1,2019_Dec_03_1004,Test,3.2.4,59.84044777
82,Pictures/IA50_L20.bmp,Pictures/IA50_L20.bmp,50,"Certainty is boring, take a risk!""""",1,risk,,,,,3,0,3,0,0,8,8,18,,,,,,,,,,,,,,,,,,,,,,,,,,,,,,,1675.374633,None,1677.396632,1678.917317,1678.900594,None,1680.45469,None,0,1682.426555,None,1682.426555,None,1682.426555,None,None,None,None,None,1684.364996,None,1684.364996,None,0,0.324818101,1684.364996,None,1684.73263,1686.353567,None,None,1.759273738,,,,,,,,,,,,,999,1,9,1,2019_Dec_03_1004,Test,3.2.4,59.84044777
83,Pictures/IA25_G5.bmp,Pictures/IA25_G5.bmp,25,"Let's stay with the certain option.""""",0,safe,,,,,3,0,3,0,0,9,9,0,,,,,,,,,,,,,,,,,,,,,,,,,,,,,,,1686.370279,None,1688.392277,1689.912951,1689.89624,None,1691.467075,None,0,1693.422207,None,1693.422207,None,1693.422207,None,None,None,None,None,1694.575273,None,1694.575273,None,0,0.250531725,1694.575273,None,1694.859319,1696.563808,None,None,0.939618664,,,,,,,,,,,,,999,1,9,1,2019_Dec_03_1004,Test,3.2.4,59.84044777
84,Pictures/IA50_L40.bmp,Pictures/IA50_L40.bmp,50,"That gamble doesn't sound too good, play it safe.""""",0,safe,,,,,3,0,3,0,0,10,10,15,,,,,,,,,,,,,,,,,,,,,,,,,,,,,,,1696.58052,None,1698.602526,1700.106479,1700.089771,None,1701.660577,None,0,1703.632442,None,1703.632442,None,1703.632442,None,None,None,None,None,1704.384425,None,1704.384425,None,0,0.265394314,1704.384425,None,1704.685213,1706.389703,None,None,0.569389485,,,,,,,,,,,,,999,1,9,1,2019_Dec_03_1004,Test,3.2.4,59.84044777
85,Pictures/IA75_L15.bmp,Pictures/IA75_L15.bmp,75,"Trust me, gamble!""""",1,risk,,,,,3,0,3,0,0,11,11,10,,,,,,,,,,,,,,,,,,,,,,,,,,,,,,,1706.406417,None,1708.445125,1709.965795,1709.949094,None,1711.486472,None,0,1713.458338,None,1713.458338,None,1713.458338,None,None,None,None,None,1713.993078,None,1713.993078,None,1,0.184746082,1713.993078,None,None,None,1714.227029,1715.99836,0.383481618,,,,,,,,,,,,,999,1,9,1,2019_Dec_03_1004,Test,3.2.4,59.84044777
86,Pictures/IA80_40_L95p.bmp,Pictures/IA80_40_L95p.bmp,80,"Let's stay with the certain option.""""",0,safe,,,,,3,0,3,0,0,12,12,16,,,,,,,,,,,,,,,,,,,,,,,,,,,,,,,1716.015079,None,1718.053784,1719.574451,1719.557748,None,1721.095131,None,0,1723.066995,None,1723.066995,None,1723.066995,None,None,None,None,None,1723.752133,None,1723.752133,None,1,0.193680096,1723.752133,None,None,None,1723.986079,1725.740703,0.502835583,,,,,,,,,,,,,999,1,9,1,2019_Dec_03_1004,Test,3.2.4,59.84044777
87,Pictures/IA25_L15.bmp,Pictures/IA25_L15.bmp,25,"There's not much on the line here, gamble!""""",1,risk,,,,,3,0,3,0,0,13,13,19,,,,,,,,,,,,,,,,,,,,,,,,,,,,,,,1725.757414,None,1727.77941,1729.300083,1729.283375,None,1730.787338,None,0,1732.809334,None,1732.809334,None,1732.809334,None,None,None,None,None,1733.578027,None,1733.578027,None,0,0.263785686,1733.578027,None,1733.878818,1735.583307,None,None,0.576503305,,,,,,,,,,,,,999,1,9,1,2019_Dec_03_1004,Test,3.2.4,59.84044777
88,Pictures/IA75_L45.bmp,Pictures/IA75_L45.bmp,75,"Don't gamble for this one, play it safe.""""",0,safe,,,,,3,0,3,0,0,14,14,7,,,,,,,,,,,,,,,,,,,,,,,,,,,,,,,1735.600019,None,1737.622015,1739.142702,1739.125982,None,1740.680076,None,0,1742.651941,None,1742.651941,None,1742.651941,None,None,None,None,None,1743.537607,None,1743.537607,None,0,0.256214677,1743.537607,None,1743.838398,1745.54289,None,None,0.693884813,,,,,,,,,,,,,999,1,9,1,2019_Dec_03_1004,Test,3.2.4,59.84044777
89,Pictures/IA25_G20.bmp,Pictures/IA25_G20.bmp,25,"I wouldn't gamble for this one. """"",0,safe,,,,,3,0,3,0,0,15,15,6,,,,,,,,,,,,,,,,,,,,,,,,,,,,,,,1745.559599,None,1747.581598,1749.102272,1749.08556,None,1750.639656,None,0,1752.611526,None,1752.611526,None,1752.611526,None,None,None,None,None,1753.697717,None,1753.697717,None,0,1.096095921,1753.697717,None,1754.834042,None,None,None,0.934296916,,,,,,,,,,,,,999,1,9,1,2019_Dec_03_1004,Test,3.2.4,59.84044777
90,Pictures/IA100_G20.bmp,Pictures/IA100_G20.bmp,100,"Go ahead and gamble!""""",1,risk,,,,,3,0,3,0,0,16,16,17,,,,,,,,,,,,,,,,,,,,,,,,,,,,,,,1755.719709,None,1757.74171,1759.262383,1759.245674,None,1760.799767,None,0,1762.771637,None,1762.771637,None,1762.771637,None,None,None,None,None,1764.175342,None,1764.175342,None,0,0.482466184,1764.175342,None,1764.693359,1766.163908,None,None,1.246199965,,,,,,,,,,,,,999,1,9,1,2019_Dec_03_1004,Test,3.2.4,59.84044777
91,Pictures/IA100_G40.bmp,Pictures/IA100_G40.bmp,100,"Try your luck and gamble!""""",1,risk,,,,,3,0,3,0,0,17,17,14,,,,,,,,,,,,,,,,,,,,,,,,,,,,,,,1766.180611,None,1768.202611,1769.723282,1769.706576,None,1771.277378,None,0,1773.232532,None,1773.232532,None,1773.232532,None,None,None,None,None,1774.151625,None,1774.151625,None,0,0.490200876,1774.151625,None,1774.686359,1776.156912,None,None,0.761292391,,,,,,,,,,,,,999,1,9,1,2019_Dec_03_1004,Test,3.2.4,59.84044777
92,Pictures/IA25_L20.bmp,Pictures/IA25_L20.bmp,25,"Don't be tempted to gamble.""""",0,safe,,,,,3,0,3,0,0,18,18,4,,,,,,,,,,,,,,,,,,,,,,,,,,,,,,,1776.173613,None,1778.195611,1779.716285,1779.699575,None,1781.203537,None,0,1783.225534,None,1783.225534,None,1783.225534,None,None,None,None,None,1783.893963,None,1783.893963,None,0,0.163851771,1783.893963,None,1784.094486,1785.899242,None,None,0.488298215,,,,,,,,,,,,,999,1,9,1,2019_Dec_03_1004,Test,3.2.4,59.84044777
93,Pictures/IA75_G60.bmp,Pictures/IA75_G60.bmp,75,"Make it exciting, take a chance!""""",1,risk,,,,,3,0,3,0,0,19,19,2,,,,,,,,,,,,,,,,,,,,,,,,,,,,,,,1785.915951,None,1787.937951,1789.458624,1789.441916,None,1790.996014,None,1,1792.967875,None,1792.967875,None,1792.967875,None,1793.402353,None,1793.402353,1794.404991,1795.524613,None,1795.524613,None,1,0.365201857,1795.524613,None,None,None,1795.925667,1797.529892,0.313948692,,,,,,,,,,,,,999,1,9,1,2019_Dec_03_1004,Test,3.2.4,59.84044777
95,Pictures/IA50_G40.bmp,Pictures/IA50_G40.bmp,50,"It would probably be best to play it safe.""""",0,safe,,,,,4,0,4,0,0,0,0,11,,,,,,,,,,,,,1801.974943,None,1801.974943,None,1801.974943,None,0,1.386880574,1801.974943,None,1801.974943,None,1801.974943,None,return,2.130658058,1801.974943,None,1804.164047,None,1806.169334,1807.690004,1807.673296,None,1809.177256,None,0,1811.182548,None,1811.182548,None,1811.182548,None,None,None,None,None,1812.569533,None,1812.569533,None,1,0.20829065,1812.569533,None,None,None,1812.820151,1814.558165,1.187284219,,,,,,,,,,,,,999,1,9,1,2019_Dec_03_1004,Test,3.2.4,59.84044777
96,Pictures/IA25_L5.bmp,Pictures/IA25_L5.bmp,25,"It would be smarter to choose the safe option.""""",0,safe,,,,,4,0,4,0,0,1,1,14,,,,,,,,,,,,,,,,,,,,,,,,,,,,,,,1814.574815,None,1816.596808,1818.117486,1818.100774,None,1819.638158,None,0,1821.626752,None,1821.626752,None,1821.626752,None,None,None,None,None,1822.111339,None,1822.111339,None,1,0.16251929,1822.111339,None,None,None,1822.311938,1824.103775,0.287083657,,,,,,,,,,,,,999,1,9,1,2019_Dec_03_1004,Test,3.2.4,59.84044777
97,Pictures/IA40_20_G95p.bmp,Pictures/IA40_20_G95p.bmp,40,"Hold back, stay with the safe choice.""""",0,safe,,,,,4,0,4,0,0,2,2,12,,,,,,,,,,,,,,,,,,,,,,,,,,,,,,,1824.13338,None,1826.172067,1827.676078,1827.642561,None,1829.213422,None,0,1831.168547,None,1831.168547,None,1831.168547,None,None,None,None,None,1831.820273,None,1831.820273,None,0,0.141541192,1831.820273,None,1832.004077,1833.808832,None,None,0.433285729,,,,,,,,,,,,,999,1,9,1,2019_Dec_03_1004,Test,3.2.4,59.84044777
98,Pictures/IA80_40_L95p.bmp,Pictures/IA80_40_L95p.bmp,80,"Let's stay with the certain option.""""",0,safe,,,,,4,0,4,0,0,3,3,7,,,,,,,,,,,,,,,,,,,,,,,,,,,,,,,1833.825543,None,1835.864253,1837.368214,1837.351506,None,1838.888889,None,1,1840.877465,None,1840.877465,None,1840.877465,None,1841.295232,None,1841.295232,1842.297881,1843.400782,None,1843.400782,None,1,0.313030491,1843.400782,None,None,None,1843.751708,1845.389351,0.276366167,,,,,,,,,,,,,999,1,9,1,2019_Dec_03_1004,Test,3.2.4,59.84044777
99,Pictures/IA50_L10.bmp,Pictures/IA50_L10.bmp,50,"Play it safe, don‰Ûªt gamble!""""",0,safe,,,,,4,0,4,0,0,4,4,13,,,,,,,,,,,,,,,,,,,,,,,,,,,,,,,1845.406062,None,1847.428061,1848.93202,1848.915313,None,1850.469413,None,1,1852.457983,None,1852.457983,None,1852.457983,None,1852.959304,None,1852.959304,1853.961941,1855.098275,None,1855.098275,None,1,0.367539756,1855.098275,None,None,None,1855.499328,1857.103554,0.391856208,,,,,,,,,,,,,999,1,9,1,2019_Dec_03_1004,Test,3.2.4,59.84044777
100,Pictures/IA25_L15.bmp,Pictures/IA25_L15.bmp,25,"There's not much on the line here, gamble!""""",1,risk,,,,,4,0,4,0,0,5,5,18,,,,,,,,,,,,,,,,,,,,,,,,,,,,,,,1857.120265,None,1859.142273,1860.662934,1860.646227,None,1862.150197,None,0,1864.172186,None,1864.172186,None,1864.172186,None,None,None,None,None,1865.107986,None,1865.107986,None,0,0.229838234,1865.107986,None,1865.375353,1867.113266,None,None,0.725641982,,,,,,,,,,,,,999,1,9,1,2019_Dec_03_1004,Test,3.2.4,59.84044777
101,Pictures/IA100_G20.bmp,Pictures/IA100_G20.bmp,100,"Go ahead and gamble!""""",1,risk,,,,,4,0,4,0,0,6,6,1,,,,,,,,,,,,,,,,,,,,,,,,,,,,,,,1867.129992,None,1869.151989,1870.672646,1870.655939,None,1872.176616,None,0,1874.181904,None,1874.181904,None,1874.181904,None,None,None,None,None,1875.268098,None,1875.268098,None,0,0.245705543,1875.268098,None,1875.552173,1877.256663,None,None,0.92393219,,,,,,,,,,,,,999,1,9,1,2019_Dec_03_1004,Test,3.2.4,59.84044777
102,Pictures/IA40_20_L95p.bmp,Pictures/IA40_20_L95p.bmp,40,"Trust me, gamble!""""",1,risk,,,,,4,0,4,0,0,7,7,3,,,,,,,,,,,,,,,,,,,,,,,,,,,,,,,1877.273374,None,1879.295372,1880.816042,1880.799335,None,1882.370141,None,0,1884.325296,None,1884.325296,None,1884.325296,None,None,None,None,None,1885.277805,None,1885.277805,None,1,0.116019461,1885.277805,None,None,None,1885.428198,1887.266377,0.796529476,,,,,,,,,,,,,999,1,9,1,2019_Dec_03_1004,Test,3.2.4,59.84044777
103,Pictures/IA20_10_G95p.bmp,Pictures/IA20_10_G95p.bmp,20,"Take a leap, I think you should gamble.""""",1,risk,,,,,4,0,4,0,0,8,8,17,,,,,,,,,,,,,,,,,,,,,,,,,,,,,,,1887.283086,None,1889.321795,1890.842468,1890.825759,None,1892.363148,None,0,1894.335006,None,1894.335006,None,1894.335006,None,None,None,None,None,1895.60502,None,1895.60502,None,0,0.196805999,1895.60502,None,1895.838971,1897.6103,None,None,1.090828801,,,,,,,,,,,,,999,1,9,1,2019_Dec_03_1004,Test,3.2.4,59.84044777
104,Pictures/IA110_55_G95p.bmp,Pictures/IA110_55_G95p.bmp,110,"Take a chance!""""",1,risk,,,,,4,0,4,0,0,9,9,8,,,,,,,,,,,,,,,,,,,,,,,,,,,,,,,1897.627012,None,1899.665718,1901.16968,1901.152982,None,1902.72378,None,0,1904.678993,None,1904.678993,None,1904.678993,None,None,None,None,None,1905.798548,None,1905.798548,None,0,0.267263433,1905.798548,None,1906.099343,1907.80383,None,None,0.978824873,,,,,,,,,,,,,999,1,9,1,2019_Dec_03_1004,Test,3.2.4,59.84044777
105,Pictures/IA25_G15.bmp,Pictures/IA25_G15.bmp,25,"I think you should take a gamble.""""",1,risk,,,,,4,0,4,0,0,10,10,15,,,,,,,,,,,,,,,,,,,,,,,,,,,,,,,1907.82054,None,1909.842543,1911.363208,1911.346506,None,1912.900598,None,0,1914.872461,None,1914.872461,None,1914.872461,None,None,None,None,None,1915.607732,None,1915.607732,None,0,0.22608644,1915.607732,None,1915.875105,1917.613012,None,None,0.561362636,,,,,,,,,,,,,999,1,9,1,2019_Dec_03_1004,Test,3.2.4,59.84044777
106,Pictures/IA75_G30.bmp,Pictures/IA75_G30.bmp,75,"Be bold, gamble!""""",1,risk,,,,,4,0,4,0,0,11,11,5,,,,,,,,,,,,,,,,,,,,,,,,,,,,,,,1917.629723,None,1919.651721,1921.172393,1921.155694,None,1922.709766,None,0,1924.681644,None,1924.681644,None,1924.681644,None,None,None,None,None,1925.41692,None,1925.41692,None,0,0.184894618,1925.41692,None,1925.650862,1927.422194,None,None,0.58419109,,,,,,,,,,,,,999,1,9,1,2019_Dec_03_1004,Test,3.2.4,59.84044777
107,Pictures/IA80_40_G95p.bmp,Pictures/IA80_40_G95p.bmp,80,"Think of the payoff, gamble!""""",1,risk,,,,,4,0,4,0,0,12,12,0,,,,,,,,,,,,,,,,,,,,,,,,,,,,,,,1927.438906,None,1929.460901,1930.981575,1930.964868,None,1932.518961,None,0,1934.490832,None,1934.490832,None,1934.490832,None,None,None,None,None,1935.042278,None,1935.042278,None,0,0.127542284,1935.042278,None,1935.209384,1937.04756,None,None,0.398993237,,,,,,,,,,,,,999,1,9,1,2019_Dec_03_1004,Test,3.2.4,59.84044777
108,Pictures/IA100_L80.bmp,Pictures/IA100_L80.bmp,100,"Go all in!""""",1,risk,,,,,4,0,4,0,0,13,13,19,,,,,,,,,,,,,,,,,,,,,,,,,,,,,,,1937.06427,None,1939.086267,1940.60694,1940.590234,None,1942.161001,None,1,1944.116192,None,1944.116192,None,1944.116192,None,1944.533958,None,1944.533958,1945.536596,1946.639509,None,1946.639509,None,0,0.298309064,1946.639509,None,1946.973717,1948.644786,None,None,0.341635548,,,,,,,,,,,,,999,1,9,1,2019_Dec_03_1004,Test,3.2.4,59.84044777
109,Pictures/IA50_L40.bmp,Pictures/IA50_L40.bmp,50,"That gamble doesn't sound too good, play it safe.""""",0,safe,,,,,4,0,4,0,0,14,14,6,,,,,,,,,,,,,,,,,,,,,,,,,,,,,,,1948.661499,None,1950.683499,1952.204167,1952.18746,None,1953.691438,None,0,1955.713419,None,1955.713419,None,1955.713419,None,None,None,None,None,1956.398559,None,1956.398559,None,0,0.075259677,1956.398559,None,1956.51553,1958.387125,None,None,0.480406704,,,,,,,,,,,,,999,1,9,1,2019_Dec_03_1004,Test,3.2.4,59.84044777
110,Pictures/IA75_L45.bmp,Pictures/IA75_L45.bmp,75,"Don't gamble for this one, play it safe.""""",0,safe,,,,,4,0,4,0,0,15,15,16,,,,,,,,,,,,,,,,,,,,,,,,,,,,,,,1958.403839,None,1960.425835,1961.929796,1961.913088,None,1963.450443,None,0,1965.455761,None,1965.455761,None,1965.455761,None,None,None,None,None,1966.374846,None,1966.374846,None,0,0.266965586,1966.374846,None,1966.675638,1968.380127,None,None,0.738071497,,,,,,,,,,,,,999,1,9,1,2019_Dec_03_1004,Test,3.2.4,59.84044777
111,Pictures/IA25_L10.bmp,Pictures/IA25_L10.bmp,25,"Dont be afraid to take the risk!""""",1,risk,,,,,4,0,4,0,0,16,16,2,,,,,,,,,,,,,,,,,,,,,,,,,,,,,,,1968.39684,None,1970.418835,1971.939509,1971.9228,None,1973.476893,None,0,1975.448758,None,1975.448758,None,1975.448758,None,None,None,None,None,1976.919302,None,1976.919302,None,1,0.530511735,1976.919302,None,None,None,1977.487464,1978.92458,1.297069545,,,,,,,,,,,,,999,1,9,1,2019_Dec_03_1004,Test,3.2.4,59.84044777
112,Pictures/IA75_G45.bmp,Pictures/IA75_G45.bmp,75,"Don't gamble for this one.""""",0,safe,,,,,4,0,4,0,0,17,17,4,,,,,,,,,,,,,,,,,,,,,,,,,,,,,,,1978.941293,None,1980.963287,1982.483962,1982.467254,None,1984.038058,None,0,1985.993218,None,1985.993218,None,1985.993218,None,None,None,None,None,1987.112837,None,1987.112837,None,0,0.28898026,1987.112837,None,1987.447039,1989.118114,None,None,0.968601017,,,,,,,,,,,,,999,1,9,1,2019_Dec_03_1004,Test,3.2.4,59.84044777
113,Pictures/IA100_L20.bmp,Pictures/IA100_L20.bmp,100,"Try to win as much money as you can, gamble!""""",1,risk,,,,,4,0,4,0,0,18,18,10,,,,,,,,,,,,,,,,,,,,,,,,,,,,,,,1989.13482,None,1991.156819,1992.67749,1992.660782,None,1994.214892,None,0,1996.186742,None,1996.186742,None,1996.186742,None,None,None,None,None,1996.688063,None,1996.688063,None,1,0.041761354,1996.688063,None,None,None,1996.771613,1998.676631,0.319086964,,,,,,,,,,,,,999,1,9,1,2019_Dec_03_1004,Test,3.2.4,59.84044777
114,Pictures/IA75_G15.bmp,Pictures/IA75_G15.bmp,75,"Take a chance!""""",1,risk,,,,,4,0,4,0,0,19,19,9,,,,,,,,,,,,,,,,,,,,,,,,,,,,,,,1998.693343,None,2000.715344,2002.235976,2002.219305,None,2003.773403,None,0,2005.745262,None,2005.745262,None,2005.745262,None,None,None,None,None,2007.182383,None,2007.182383,None,0,0.19543177,2007.182383,None,2007.416339,2009.187665,None,None,1.272570396,,,,,,,,,,,,,999,1,9,1,2019_Dec_03_1004,Test,3.2.4,59.84044777
116,Pictures/IA50_G10.bmp,Pictures/IA50_G10.bmp,50,"Go with the safe option here!""""",0,safe,,,,,5,0,5,0,0,0,0,11,,,,,,,,,,,,,2014.167457,None,2014.167457,None,2014.167457,None,0,4.178367481,2014.167457,None,2014.167457,None,2014.167457,None,return,4.882141885,2014.167457,None,2019.097118,None,2021.119112,2022.63978,2022.623072,None,2024.177166,None,0,2026.13232,None,2026.13232,None,2026.13232,None,None,None,None,None,2027.536019,None,2027.536019,None,0,0.089796582,2027.536019,None,2027.669702,2029.541303,None,None,1.229516453,,,,,,,,,,,,,999,1,9,1,2019_Dec_03_1004,Test,3.2.4,59.84044777
117,Pictures/IA50_G20.bmp,Pictures/IA50_G20.bmp,50,"Let's venture and take a risk!""""",1,risk,,,,,5,0,5,0,0,1,1,3,,,,,,,,,,,,,,,,,,,,,,,,,,,,,,,2029.558016,None,2031.580006,2033.100679,2033.08397,None,2034.638069,None,0,2036.609945,None,2036.609945,None,2036.609945,None,None,None,None,None,2037.244937,None,2037.244937,None,0,0.572878856,2037.244937,None,2037.863234,2039.233525,None,None,0.463875358,,,,,,,,,,,,,999,1,9,1,2019_Dec_03_1004,Test,3.2.4,59.84044777
118,Pictures/IA25_L5.bmp,Pictures/IA25_L5.bmp,25,"It would be smarter to choose the safe option.""""",0,safe,,,,,5,0,5,0,0,2,2,2,,,,,,,,,,,,,,,,,,,,,,,,,,,,,,,2039.250224,None,2041.272214,2042.792886,2042.776182,None,2044.313562,None,0,2046.302138,None,2046.302138,None,2046.302138,None,None,None,None,None,2047.354912,None,2047.354912,None,1,0.174906354,2047.354912,None,None,None,2047.572146,2049.34348,0.859694148,,,,,,,,,,,,,999,1,9,1,2019_Dec_03_1004,Test,3.2.4,59.84044777
119,Pictures/IA50_G30.bmp,Pictures/IA50_G30.bmp,50,"I think you should gamble.""""",1,risk,,,,,5,0,5,0,0,3,3,14,,,,,,,,,,,,,,,,,,,,,,,,,,,,,,,2049.360193,None,2051.382188,2052.902859,2052.886153,None,2054.440247,None,0,2056.412117,None,2056.412117,None,2056.412117,None,None,None,None,None,2057.364622,None,2057.364622,None,0,0.117186422,2057.364622,None,2057.531728,2059.369901,None,None,0.78971112,,,,,,,,,,,,,999,1,9,1,2019_Dec_03_1004,Test,3.2.4,59.84044777
120,Pictures/IA100_G40.bmp,Pictures/IA100_G40.bmp,100,"Try your luck and gamble!""""",1,risk,,,,,5,0,5,0,0,4,4,0,,,,,,,,,,,,,,,,,,,,,,,,,,,,,,,2059.386614,None,2061.408614,2062.929283,2062.912576,None,2064.416537,None,0,2066.438533,None,2066.438533,None,2066.438533,None,None,None,None,None,2067.123672,None,2067.123672,None,0,0.118147611,2067.123672,None,2067.290777,2069.128952,None,None,0.52329469,,,,,,,,,,,,,999,1,9,1,2019_Dec_03_1004,Test,3.2.4,59.84044777
121,Pictures/IA75_L15.bmp,Pictures/IA75_L15.bmp,75,"Trust me, gamble!""""",1,risk,,,,,5,0,5,0,0,5,5,4,,,,,,,,,,,,,,,,,,,,,,,,,,,,,,,2069.145671,None,2071.167663,2072.688332,2072.671623,None,2074.192298,None,0,2076.197582,None,2076.197582,None,2076.197582,None,None,None,None,None,2076.782457,None,2076.782457,None,1,0.019364858,2076.782457,None,None,None,2076.849297,2078.787737,0.40424596,,,,,,,,,,,,,999,1,9,1,2019_Dec_03_1004,Test,3.2.4,59.84044777
122,Pictures/IA25_L10.bmp,Pictures/IA25_L10.bmp,25,"Dont be afraid to take the risk!""""",1,risk,,,,,5,0,5,0,0,6,6,16,,,,,,,,,,,,,,,,,,,,,,,,,,,,,,,2078.804448,None,2080.82646,2082.347117,2082.330415,None,2083.834376,None,0,2085.856369,None,2085.856369,None,2085.856369,None,None,None,None,None,2086.60835,None,2086.60835,None,0,0.06546623,2086.60835,None,2086.708611,2088.613628,None,None,0.593461698,,,,,,,,,,,,,999,1,9,1,2019_Dec_03_1004,Test,3.2.4,59.84044777
123,Pictures/IA75_G30.bmp,Pictures/IA75_G30.bmp,75,"Be bold, gamble!""""",1,risk,,,,,5,0,5,0,0,7,7,17,,,,,,,,,,,,,,,,,,,,,,,,,,,,,,,2088.630346,None,2090.652338,2092.173015,2092.156313,None,2093.660268,None,0,2095.682267,None,2095.682267,None,2095.682267,None,None,None,None,None,2096.200294,None,2096.200294,None,0,0.041544666,2096.200294,None,2096.283842,2098.188863,None,None,0.351564773,,,,,,,,,,,,,999,1,9,1,2019_Dec_03_1004,Test,3.2.4,59.84044777
124,Pictures/IA100_L20.bmp,Pictures/IA100_L20.bmp,100,"Try to win as much money as you can, gamble!""""",1,risk,,,,,5,0,5,0,0,8,8,1,,,,,,,,,,,,,,,,,,,,,,,,,,,,,,,2098.205574,None,2100.227569,2101.748242,2101.731535,None,2103.252212,None,0,2105.257496,None,2105.257496,None,2105.257496,None,None,None,None,None,2106.076319,None,2106.076319,None,0,0.085502233,2106.076319,None,2106.210002,2108.0816,None,None,0.624328982,,,,,,,,,,,,,999,1,9,1,2019_Dec_03_1004,Test,3.2.4,59.84044777
125,Pictures/IA100_G20.bmp,Pictures/IA100_G20.bmp,100,"Go ahead and gamble!""""",1,risk,,,,,5,0,5,0,0,9,9,6,,,,,,,,,,,,,,,,,,,,,,,,,,,,,,,2108.098308,None,2110.120304,2111.640977,2111.62427,None,2113.161657,None,0,2115.15023,None,2115.15023,None,2115.15023,None,None,None,None,None,2116.11945,None,2116.11945,None,0,0.49836463,2116.11945,None,2116.654187,2118.12473,None,None,0.811596487,,,,,,,,,,,,,999,1,9,1,2019_Dec_03_1004,Test,3.2.4,59.84044777
126,Pictures/IA50_L20.bmp,Pictures/IA50_L20.bmp,50,"Certainty is boring, take a risk!""""",1,risk,,,,,5,0,5,0,0,10,10,5,,,,,,,,,,,,,,,,,,,,,,,,,,,,,,,2118.141453,None,2120.163436,2121.68411,2121.667403,None,2123.221497,None,1,2125.193359,None,2125.193359,None,2125.193359,None,2125.845076,None,2125.845076,2126.847714,2127.95063,None,2127.95063,None,0,0.379177824,2127.95063,None,2128.36839,2129.939194,None,None,0.528471562,,,,,,,,,,,,,999,1,9,1,2019_Dec_03_1004,Test,3.2.4,59.84044777
127,Pictures/IA75_G15.bmp,Pictures/IA75_G15.bmp,75,"Take a chance!""""",1,risk,,,,,5,0,5,0,0,11,11,10,,,,,,,,,,,,,,,,,,,,,,,,,,,,,,,2129.955906,None,2131.977903,2133.498573,2133.48188,None,2134.985865,None,0,2137.007825,None,2137.007825,None,2137.007825,None,None,None,None,None,2137.776539,None,2137.776539,None,0,0.297267757,2137.776539,None,2138.110693,2139.781794,None,None,0.593999194,,,,,,,,,,,,,999,1,9,1,2019_Dec_03_1004,Test,3.2.4,59.84044777
128,Pictures/IA25_L15.bmp,Pictures/IA25_L15.bmp,25,"There's not much on the line here, gamble!""""",1,risk,,,,,5,0,5,0,0,12,12,9,,,,,,,,,,,,,,,,,,,,,,,,,,,,,,,2139.798511,None,2141.820507,2143.341177,2143.324472,None,2144.828433,None,0,2146.85043,None,2146.85043,None,2146.85043,None,None,None,None,None,2148.03689,None,2148.03689,None,0,0.356928605,2148.03689,None,2148.437942,2150.042169,None,None,1.00739841,,,,,,,,,,,,,999,1,9,1,2019_Dec_03_1004,Test,3.2.4,59.84044777
129,Pictures/IA110_55_G95p.bmp,Pictures/IA110_55_G95p.bmp,110,"Take a chance!""""",1,risk,,,,,5,0,5,0,0,13,13,15,,,,,,,,,,,,,,,,,,,,,,,,,,,,,,,2150.058881,None,2152.080875,2153.601549,2153.584841,None,2155.088805,None,0,2157.110801,None,2157.110801,None,2157.110801,None,None,None,None,None,2158.130117,None,2158.130117,None,0,0.191700731,2158.130117,None,2158.3641,2160.135438,None,None,0.859026155,,,,,,,,,,,,,999,1,9,1,2019_Dec_03_1004,Test,3.2.4,59.84044777
130,Pictures/IA80_40_L95p.bmp,Pictures/IA80_40_L95p.bmp,80,"Let's stay with the certain option.""""",0,safe,,,,,5,0,5,0,0,14,14,12,,,,,,,,,,,,,,,,,,,,,,,,,,,,,,,2160.152144,None,2162.17414,2163.694813,2163.678105,None,2165.21549,None,0,2167.204065,None,2167.204065,None,2167.204065,None,None,None,None,None,2167.939339,None,2167.939339,None,1,0.062479096,2167.939339,None,None,None,2168.039595,2169.944612,0.565752587,,,,,,,,,,,,,999,1,9,1,2019_Dec_03_1004,Test,3.2.4,59.84044777
131,Pictures/IA100_G80.bmp,Pictures/IA100_G80.bmp,100,"Why not gamble?""""",1,risk,,,,,5,0,5,0,0,15,15,18,,,,,,,,,,,,,,,,,,,,,,,,,,,,,,,2169.961324,None,2171.983319,2173.503995,2173.487292,None,2175.04138,None,0,2177.013245,None,2177.013245,None,2177.013245,None,None,None,None,None,2177.447718,None,2177.447718,None,1,0.042106898,2177.447718,None,None,None,2177.531273,2179.436292,0.27657885,,,,,,,,,,,,,999,1,9,1,2019_Dec_03_1004,Test,3.2.4,59.84044777
132,Pictures/IA75_G45.bmp,Pictures/IA75_G45.bmp,75,"Don't gamble for this one.""""",0,safe,,,,,5,0,5,0,0,16,16,7,,,,,,,,,,,,,,,,,,,,,,,,,,,,,,,2179.453004,None,2181.491712,2182.995672,2182.978964,None,2184.482927,None,0,2186.504923,None,2186.504923,None,2186.504923,None,None,None,None,None,2187.156603,None,2187.156603,None,0,0.117204105,2187.156603,None,2187.323746,2189.161932,None,None,0.496914507,,,,,,,,,,,,,999,1,9,1,2019_Dec_03_1004,Test,3.2.4,59.84044777
133,Pictures/IA50_L30.bmp,Pictures/IA50_L30.bmp,50,"Take a leap, I think you should gamble.""""",1,risk,,,,,5,0,5,0,0,17,17,8,,,,,,,,,,,,,,,,,,,,,,,,,,,,,,,2189.178632,None,2191.200627,2192.721301,2192.704592,None,2194.25869,None,0,2196.23055,None,2196.23055,None,2196.23055,None,None,None,None,None,2196.798718,None,2196.798718,None,0,0.06709748,2196.798718,None,2196.91569,2198.787285,None,None,0.363268744,,,,,,,,,,,,,999,1,9,1,2019_Dec_03_1004,Test,3.2.4,59.84044777
134,Pictures/IA100_L60.bmp,Pictures/IA100_L60.bmp,100,"You'd have a lot to lose, don't gamble.""""",0,safe,,,,,5,0,5,0,0,18,18,19,,,,,,,,,,,,,,,,,,,,,,,,,,,,,,,2198.803995,None,2200.825991,2202.346665,2202.329957,None,2203.934182,None,0,2205.855915,None,2205.855915,None,2205.855915,None,None,None,None,None,2206.841844,None,2206.841844,None,0,0.231972181,2206.841844,None,2207.109213,2208.847125,None,None,0.793909402,,,,,,,,,,,,,999,1,9,1,2019_Dec_03_1004,Test,3.2.4,59.84044777
135,Pictures/IA50_L40.bmp,Pictures/IA50_L40.bmp,50,"That gamble doesn't sound too good, play it safe.""""",0,safe,,,,,5,0,5,0,0,19,19,13,,,,,,,,,,,,,,,,,,,,,,,,,,,,,,,2208.863843,None,2210.885833,2212.406509,2212.389797,None,2213.927182,None,0,2215.915757,None,2215.915757,None,2215.915757,None,None,None,None,None,2216.818136,None,2216.818136,None,0,0.071684126,2216.818136,None,2216.935105,2218.806704,None,None,0.718061408,,,,,,,,,,,,,999,1,9,1,2019_Dec_03_1004,Test,3.2.4,59.84044777
137,Pictures/IA110_55_G95p.bmp,Pictures/IA110_55_G95p.bmp,110,"Take a chance!""""",1,risk,,,,,6,0,6,0,0,0,0,10,,,,,,,,,,,,,2221.413575,None,2221.413575,None,2221.413575,None,0,0.40425062,2221.413575,None,2221.413575,None,2221.413575,None,return,1.044122167,2221.413575,None,2222.516483,None,2224.521767,2226.042438,2226.02573,None,2227.546402,None,0,2229.534976,None,2229.534976,None,2229.534976,None,None,None,None,None,2230.01959,None,2230.01959,None,0,0.638231006,2230.01959,None,2230.704723,2232.008157,None,None,0.314848262,,,,,,,,,,,,,999,1,9,1,2019_Dec_03_1004,Test,3.2.4,59.84044777
138,Pictures/IA75_L45.bmp,Pictures/IA75_L45.bmp,75,"Don't gamble for this one, play it safe.""""",0,safe,,,,,6,0,6,0,0,1,1,4,,,,,,,,,,,,,,,,,,,,,,,,,,,,,,,2232.024868,None,2234.046864,2235.567537,2235.550834,None,2237.088213,None,0,2239.076787,None,2239.076787,None,2239.076787,None,None,None,None,None,2239.594819,None,2239.594819,None,0,0.055001101,2239.594819,None,2239.695078,2241.600099,None,None,0.349036982,,,,,,,,,,,,,999,1,9,1,2019_Dec_03_1004,Test,3.2.4,59.84044777
139,Pictures/IA75_G15.bmp,Pictures/IA75_G15.bmp,75,"Take a chance!""""",1,risk,,,,,6,0,6,0,0,2,2,12,,,,,,,,,,,,,,,,,,,,,,,,,,,,,,,2241.616809,None,2243.638806,2245.159482,2245.142784,None,2246.646733,None,0,2248.668734,None,2248.668734,None,2248.668734,None,None,None,None,None,2249.320447,None,2249.320447,None,0,0.241376028,2249.320447,None,2249.604524,2251.309016,None,None,0.48510122,,,,,,,,,,,,,999,1,9,1,2019_Dec_03_1004,Test,3.2.4,59.84044777
140,Pictures/IA75_G60.bmp,Pictures/IA75_G60.bmp,75,"Make it exciting, take a chance!""""",1,risk,,,,,6,0,6,0,0,3,3,5,,,,,,,,,,,,,,,,,,,,,,,,,,,,,,,2251.325729,None,2253.347723,2254.868396,2254.851689,None,2256.389071,None,0,2258.377647,None,2258.377647,None,2258.377647,None,None,None,None,None,2259.146369,None,2259.146369,None,0,0.215439624,2259.146369,None,2259.396994,2261.134908,None,None,0.600175536,,,,,,,,,,,,,999,1,9,1,2019_Dec_03_1004,Test,3.2.4,59.84044777
141,Pictures/IA110_55_L95p.bmp,Pictures/IA110_55_L95p.bmp,110,"Trust me, gamble!""""",1,risk,,,,,6,0,6,0,0,4,4,6,,,,,,,,,,,,,,,,,,,,,,,,,,,,,,,2261.151622,None,2263.173615,2264.694287,2264.677577,None,2266.231677,None,0,2268.203538,None,2268.203538,None,2268.203538,None,None,None,None,None,2268.754995,None,2268.754995,None,1,0.086822286,2268.754995,None,None,None,2268.888674,2270.76027,0.398281151,,,,,,,,,,,,,999,1,9,1,2019_Dec_03_1004,Test,3.2.4,59.84044777
142,Pictures/IA50_L20.bmp,Pictures/IA50_L20.bmp,50,"Certainty is boring, take a risk!""""",1,risk,,,,,6,0,6,0,0,5,5,0,,,,,,,,,,,,,,,,,,,,,,,,,,,,,,,2270.776984,None,2272.79898,2274.319651,2274.302943,None,2275.806905,None,0,2277.828905,None,2277.828905,None,2277.828905,None,None,None,None,None,2278.781413,None,2278.781413,None,0,0.268410933,2278.781413,None,2279.098913,2280.76998,None,None,0.788924347,,,,,,,,,,,,,999,1,9,1,2019_Dec_03_1004,Test,3.2.4,59.84044777
143,Pictures/IA100_G20.bmp,Pictures/IA100_G20.bmp,100,"Go ahead and gamble!""""",1,risk,,,,,6,0,6,0,0,6,6,2,,,,,,,,,,,,,,,,,,,,,,,,,,,,,,,2280.786692,None,2282.808689,2284.32936,2284.312653,None,2285.833326,None,0,2287.838612,None,2287.838612,None,2287.838612,None,None,None,None,None,2288.490333,None,2288.490333,None,0,0.135484014,2288.490333,None,2288.674143,2290.478897,None,None,0.491223034,,,,,,,,,,,,,999,1,9,1,2019_Dec_03_1004,Test,3.2.4,59.84044777
144,Pictures/IA25_L5.bmp,Pictures/IA25_L5.bmp,25,"It would be smarter to choose the safe option.""""",0,safe,,,,,6,0,6,0,0,7,7,16,,,,,,,,,,,,,,,,,,,,,,,,,,,,,,,2290.495608,None,2292.517604,2294.038276,2294.021568,None,2295.542246,None,0,2297.547527,None,2297.547527,None,2297.547527,None,None,None,None,None,2298.266053,None,2298.266053,None,1,0.135767804,2298.266053,None,None,None,2298.449898,2300.254659,0.5263001,,,,,,,,,,,,,999,1,9,1,2019_Dec_03_1004,Test,3.2.4,59.84044777
145,Pictures/IA100_G60.bmp,Pictures/IA100_G60.bmp,100,"Be cautious, don't gamble for this one.""""",0,safe,,,,,6,0,6,0,0,8,8,9,,,,,,,,,,,,,,,,,,,,,,,,,,,,,,,2300.27137,None,2302.293365,2303.814036,2303.797333,None,2305.351428,None,0,2307.323289,None,2307.323289,None,2307.323289,None,None,None,None,None,2308.025136,None,2308.025136,None,1,0.064675294,2308.025136,None,None,None,2308.125398,2310.030417,0.534543876,,,,,,,,,,,,,999,1,9,1,2019_Dec_03_1004,Test,3.2.4,59.84044777
146,Pictures/IA50_G10.bmp,Pictures/IA50_G10.bmp,50,"Go with the safe option here!""""",0,safe,,,,,6,0,6,0,0,9,9,17,,,,,,,,,,,,,,,,,,,,,,,,,,,,,,,2310.047127,None,2312.069124,2313.589801,2313.57309,None,2315.07705,None,0,2317.099053,None,2317.099053,None,2317.099053,None,None,None,None,None,2317.583659,None,2317.583659,None,0,0.538158172,2317.583659,None,2318.16853,2319.572231,None,None,0.286777806,,,,,,,,,,,,,999,1,9,1,2019_Dec_03_1004,Test,3.2.4,59.84044777
147,Pictures/IA20_10_G95p.bmp,Pictures/IA20_10_G95p.bmp,20,"Take a leap, I think you should gamble.""""",1,risk,,,,,6,0,6,0,0,10,10,13,,,,,,,,,,,,,,,,,,,,,,,,,,,,,,,2319.588939,None,2321.610938,2323.131607,2323.114903,None,2324.668994,None,0,2326.640857,None,2326.640857,None,2326.640857,None,None,None,None,None,2327.275869,None,2327.275869,None,0,0.173951599,2327.275869,None,2327.4931,2329.264433,None,None,0.456973024,,,,,,,,,,,,,999,1,9,1,2019_Dec_03_1004,Test,3.2.4,59.84044777
148,Pictures/IA80_40_L95p.bmp,Pictures/IA80_40_L95p.bmp,80,"Let's stay with the certain option.""""",0,safe,,,,,6,0,6,0,0,11,11,11,,,,,,,,,,,,,,,,,,,,,,,,,,,,,,,2329.28115,None,2331.303142,2332.823813,2332.807109,None,2334.311065,None,0,2336.333063,None,2336.333063,None,2336.333063,None,None,None,None,None,2336.984781,None,2336.984781,None,1,0.169042838,2336.984781,None,None,None,2337.202017,2338.973349,0.468767324,,,,,,,,,,,,,999,1,9,1,2019_Dec_03_1004,Test,3.2.4,59.84044777
149,Pictures/IA75_L60.bmp,Pictures/IA75_L60.bmp,75,"Why not take the gamble?""""",1,risk,,,,,6,0,6,0,0,12,12,15,,,,,,,,,,,,,,,,,,,,,,,,,,,,,,,2338.990061,None,2341.012057,2342.532729,2342.516021,None,2344.086831,None,0,2346.041984,None,2346.041984,None,2346.041984,None,None,None,None,None,2347.178306,None,2347.178306,None,0,0.311512109,2347.178306,None,2347.529232,2349.166906,None,None,0.983838292,,,,,,,,,,,,,999,1,9,1,2019_Dec_03_1004,Test,3.2.4,59.84044777
150,Pictures/IA50_L30.bmp,Pictures/IA50_L30.bmp,50,"Take a leap, I think you should gamble.""""",1,risk,,,,,6,0,6,0,0,13,13,7,,,,,,,,,,,,,,,,,,,,,,,,,,,,,,,2349.183589,None,2351.205584,2352.709546,2352.692842,None,2354.23022,None,0,2356.235508,None,2356.235508,None,2356.235508,None,None,None,None,None,2357.605759,None,2357.605759,None,0,0.23606054,2357.605759,None,2357.889868,2359.594356,None,None,1.190321464,,,,,,,,,,,,,999,1,9,1,2019_Dec_03_1004,Test,3.2.4,59.84044777
151,Pictures/IA25_G10.bmp,Pictures/IA25_G10.bmp,25,"What's life without a little risk?""""",1,risk,,,,,6,0,6,0,0,14,14,3,,,,,,,,,,,,,,,,,,,,,,,,,,,,,,,2359.611072,None,2361.633061,2363.153739,2363.137037,None,2364.691119,None,0,2366.662985,None,2366.662985,None,2366.662985,None,None,None,None,None,2367.414966,None,2367.414966,None,0,0.106851057,2367.414966,None,2367.565357,2369.403534,None,None,0.578866735,,,,,,,,,,,,,999,1,9,1,2019_Dec_03_1004,Test,3.2.4,59.84044777
152,Pictures/IA40_20_G95p.bmp,Pictures/IA40_20_G95p.bmp,40,"Hold back, stay with the safe choice.""""",0,safe,,,,,6,0,6,0,0,15,15,8,,,,,,,,,,,,,,,,,,,,,,,,,,,,,,,2369.420244,None,2371.442244,2372.962914,2372.946206,None,2374.483593,None,0,2376.472162,None,2376.472162,None,2376.472162,None,None,None,None,None,2377.073752,None,2377.073752,None,0,0.176065974,2377.073752,None,2377.290985,2379.062317,None,None,0.425666072,,,,,,,,,,,,,999,1,9,1,2019_Dec_03_1004,Test,3.2.4,59.84044777
153,Pictures/IA100_L40.bmp,Pictures/IA100_L40.bmp,100,"Think of the payoff, gamble!""""",1,risk,,,,,6,0,6,0,0,16,16,14,,,,,,,,,,,,,,,,,,,,,,,,,,,,,,,2379.079031,None,2381.101025,2382.621697,2382.60499,None,2384.159093,None,1,2386.13095,None,2386.13095,None,2386.13095,None,2386.999904,None,2386.999904,2388.002542,2389.105454,None,2389.105454,None,1,0.600358348,2389.105454,None,None,None,2389.740457,2391.110734,0.742874562,,,,,,,,,,,,,999,1,9,1,2019_Dec_03_1004,Test,3.2.4,59.84044777
154,Pictures/IA50_G40.bmp,Pictures/IA50_G40.bmp,50,"It would probably be best to play it safe.""""",0,safe,,,,,6,0,6,0,0,17,17,18,,,,,,,,,,,,,,,,,,,,,,,,,,,,,,,2391.127444,None,2393.149453,2394.670115,2394.653408,None,2396.19079,None,0,2398.179364,None,2398.179364,None,2398.179364,None,None,None,None,None,2398.864502,None,2398.864502,None,1,0.113308246,2398.864502,None,None,None,2399.014896,2400.853072,0.494471406,,,,,,,,,,,,,999,1,9,1,2019_Dec_03_1004,Test,3.2.4,59.84044777
155,Pictures/IA50_L10.bmp,Pictures/IA50_L10.bmp,50,"Play it safe, don‰Ûªt gamble!""""",0,safe,,,,,6,0,6,0,0,18,18,1,,,,,,,,,,,,,,,,,,,,,,,,,,,,,,,2400.869782,None,2402.891784,2404.41245,2404.395748,None,2405.933127,None,0,2407.921701,None,2407.921701,None,2407.921701,None,None,None,None,None,2408.456445,None,2408.456445,None,1,0.073373802,2408.456445,None,None,None,2408.573416,2410.445013,0.368135792,,,,,,,,,,,,,999,1,9,1,2019_Dec_03_1004,Test,3.2.4,59.84044777
156,Pictures/IA100_L20.bmp,Pictures/IA100_L20.bmp,100,"Try to win as much money as you can, gamble!""""",1,risk,,,,,6,0,6,0,0,19,19,19,,,,,,,,,,,,,,,,,,,,,,,,,,,,,,,2410.461726,None,2412.483721,2414.004393,2413.987684,None,2415.508361,None,0,2417.513647,None,2417.513647,None,2417.513647,None,None,None,None,None,2418.115228,None,2418.115228,None,1,0.078585586,2418.115228,None,None,None,2418.232201,2420.103798,0.400191966,,,,,,,,,,,,,999,1,9,1,2019_Dec_03_1004,Test,3.2.4,59.84044777
158,Pictures/IA75_G30.bmp,Pictures/IA75_G30.bmp,75,"Be bold, gamble!""""",1,risk,,,,,7,0,7,0,0,0,0,0,,,,,,,,,,,,,2425.033456,None,2425.033456,None,2425.033456,None,1,5.528360608,2425.033456,None,2425.033456,None,2425.033456,None,return,6.264137731,2425.033456,None,2431.350099,None,2433.355386,2434.87606,2434.859349,None,2436.363312,None,1,2438.368597,None,2438.368597,None,2438.368597,None,2440.457433,None,2440.457433,2441.460071,2442.579695,None,2442.579695,None,0,1.126132265,2442.579695,None,2443.749441,None,None,None,1.985236661,,,,,,,,,,,,,999,1,9,1,2019_Dec_03_1004,Test,3.2.4,59.84044777
159,Pictures/IA50_L20.bmp,Pictures/IA50_L20.bmp,50,"Certainty is boring, take a risk!""""",1,risk,,,,,7,0,7,0,0,1,1,4,,,,,,,,,,,,,,,,,,,,,,,,,,,,,,,2444.584973,None,2446.60697,2448.12764,2448.110935,None,2449.648317,None,0,2451.636891,None,2451.636891,None,2451.636891,None,None,None,None,None,2453.257856,None,2453.257856,None,0,0.135936801,2453.257856,None,2453.441607,2455.2464,None,None,1.452933116,,,,,,,,,,,,,999,1,9,1,2019_Dec_03_1004,Test,3.2.4,59.84044777
160,Pictures/IA50_L10.bmp,Pictures/IA50_L10.bmp,50,"Play it safe, don‰Ûªt gamble!""""",0,safe,,,,,7,0,7,0,0,2,2,2,,,,,,,,,,,,,,,,,,,,,,,,,,,,,,,2455.263113,None,2457.285106,2458.805779,2458.78907,None,2460.293034,None,0,2462.315029,None,2462.315029,None,2462.315029,None,None,None,None,None,2463.31767,None,2463.31767,None,1,0.124148768,2463.31767,None,None,None,2463.484775,2465.322953,0.830820977,,,,,,,,,,,,,999,1,9,1,2019_Dec_03_1004,Test,3.2.4,59.84044777
161,Pictures/IA25_L15.bmp,Pictures/IA25_L15.bmp,25,"There's not much on the line here, gamble!""""",1,risk,,,,,7,0,7,0,0,3,3,10,,,,,,,,,,,,,,,,,,,,,,,,,,,,,,,2465.339662,None,2467.361657,2468.865619,2468.848911,None,2470.403007,None,0,2472.39158,None,2472.39158,None,2472.39158,None,None,None,None,None,2473.026595,None,2473.026595,None,0,0.103220703,2473.026595,None,2473.17698,2475.015157,None,None,0.426252883,,,,,,,,,,,,,999,1,9,1,2019_Dec_03_1004,Test,3.2.4,59.84044777
162,Pictures/IA75_G15.bmp,Pictures/IA75_G15.bmp,75,"Take a chance!""""",1,risk,,,,,7,0,7,0,0,4,4,5,,,,,,,,,,,,,,,,,,,,,,,,,,,,,,,2475.031866,None,2477.053864,2478.574534,2478.557827,None,2480.095211,None,0,2482.083792,None,2482.083792,None,2482.083792,None,None,None,None,None,2482.802348,None,2482.802348,None,0,0.167475692,2482.802348,None,2483.019583,2484.790916,None,None,0.558038198,,,,,,,,,,,,,999,1,9,1,2019_Dec_03_1004,Test,3.2.4,59.84044777
163,Pictures/IA25_L10.bmp,Pictures/IA25_L10.bmp,25,"Dont be afraid to take the risk!""""",1,risk,,,,,7,0,7,0,0,5,5,11,,,,,,,,,,,,,,,,,,,,,,,,,,,,,,,2484.807627,None,2486.829622,2488.333583,2488.31688,None,2489.870971,None,0,2491.859545,None,2491.859545,None,2491.859545,None,None,None,None,None,2492.92903,None,2492.92903,None,1,0.040788063,2492.92903,None,None,None,2493.01258,2494.917598,0.894288699,,,,,,,,,,,,,999,1,9,1,2019_Dec_03_1004,Test,3.2.4,59.84044777
164,Pictures/IA40_20_L95p.bmp,Pictures/IA40_20_L95p.bmp,40,"Trust me, gamble!""""",1,risk,,,,,7,0,7,0,0,6,6,3,,,,,,,,,,,,,,,,,,,,,,,,,,,,,,,2494.934309,None,2496.956307,2498.476977,2498.460271,None,2499.99766,None,0,2501.98623,None,2501.98623,None,2501.98623,None,None,None,None,None,2502.554396,None,2502.554396,None,1,0.255423135,2502.554396,None,None,None,2502.855185,2504.559731,0.407595093,,,,,,,,,,,,,999,1,9,1,2019_Dec_03_1004,Test,3.2.4,59.84044777
165,Pictures/IA50_G10.bmp,Pictures/IA50_G10.bmp,50,"Go with the safe option here!""""",0,safe,,,,,7,0,7,0,0,7,7,9,,,,,,,,,,,,,,,,,,,,,,,,,,,,,,,2504.576388,None,2506.59838,2508.119051,2508.102343,None,2509.63973,None,0,2511.628302,None,2511.628302,None,2511.628302,None,None,None,None,None,2512.129624,None,2512.129624,None,0,0.080193541,2512.129624,None,2512.246598,2514.11819,None,None,0.333522789,,,,,,,,,,,,,999,1,9,1,2019_Dec_03_1004,Test,3.2.4,59.84044777
166,Pictures/IA20_10_L95p.bmp,Pictures/IA20_10_L95p.bmp,20,"Don't be tempted to gamble.""""",0,safe,,,,,7,0,7,0,0,8,8,15,,,,,,,,,,,,,,,,,,,,,,,,,,,,,,,2514.134902,None,2516.1569,2517.677571,2517.660863,None,2519.214971,None,0,2521.186825,None,2521.186825,None,2521.186825,None,None,None,None,None,2521.821828,None,2521.821828,None,1,0.227982707,2521.821828,None,None,None,2521.955512,2523.8104,0.44699367,,,,,,,,,,,,,999,1,9,1,2019_Dec_03_1004,Test,3.2.4,59.84044777
167,Pictures/IA100_G40.bmp,Pictures/IA100_G40.bmp,100,"Try your luck and gamble!""""",1,risk,,,,,7,0,7,0,0,9,9,7,,,,,,,,,,,,,,,,,,,,,,,,,,,,,,,2523.827108,None,2525.849105,2527.369776,2527.35307,None,2528.873741,None,0,2530.879027,None,2530.879027,None,2530.879027,None,None,None,None,None,2531.714569,None,2531.714569,None,0,0.02325033,2531.714569,None,2531.781405,2533.703131,None,None,0.682796583,,,,,,,,,,,,,999,1,9,1,2019_Dec_03_1004,Test,3.2.4,59.84044777
168,Pictures/IA80_40_L95p.bmp,Pictures/IA80_40_L95p.bmp,80,"Let's stay with the certain option.""""",0,safe,,,,,7,0,7,0,0,10,10,1,,,,,,,,,,,,,,,,,,,,,,,,,,,,,,,2533.719844,None,2535.741839,2537.245799,2537.229094,None,2538.783184,None,0,2540.77176,None,2540.77176,None,2540.77176,None,None,None,None,None,2541.289794,None,2541.289794,None,1,0.52800601,2541.289794,None,None,None,2541.857958,2543.27836,0.326061131,,,,,,,,,,,,,999,1,9,1,2019_Dec_03_1004,Test,3.2.4,59.84044777
169,Pictures/IA50_L30.bmp,Pictures/IA50_L30.bmp,50,"Take a leap, I think you should gamble.""""",1,risk,,,,,7,0,7,0,0,11,11,16,,,,,,,,,,,,,,,,,,,,,,,,,,,,,,,2543.295073,None,2545.317068,2546.837748,2546.821034,None,2548.341705,None,0,2550.346992,None,2550.346992,None,2550.346992,None,None,None,None,None,2551.50003,None,2551.50003,None,0,0.045785923,2551.50003,None,2551.583579,2553.505312,None,None,0.966833022,,,,,,,,,,,,,999,1,9,1,2019_Dec_03_1004,Test,3.2.4,59.84044777
170,Pictures/IA100_G20.bmp,Pictures/IA100_G20.bmp,100,"Go ahead and gamble!""""",1,risk,,,,,7,0,7,0,0,12,12,6,,,,,,,,,,,,,,,,,,,,,,,,,,,,,,,2553.521982,None,2555.544016,2557.064689,2557.047981,None,2558.568617,None,1,2560.573937,None,2560.573937,None,2560.573937,None,2561.359341,None,2561.359341,2562.361978,2563.464891,None,2563.464891,None,0,0.496922853,2563.464891,None,2563.999631,2565.453464,None,None,0.699891834,,,,,,,,,,,,,999,1,9,1,2019_Dec_03_1004,Test,3.2.4,59.84044777
171,Pictures/IA80_40_G95p.bmp,Pictures/IA80_40_G95p.bmp,80,"Think of the payoff, gamble!""""",1,risk,,,,,7,0,7,0,0,13,13,13,,,,,,,,,,,,,,,,,,,,,,,,,,,,,,,2565.470169,None,2567.492166,2569.012843,2568.996131,None,2570.533517,None,0,2572.522088,None,2572.522088,None,2572.522088,None,None,None,None,None,2573.725259,None,2573.725259,None,0,0.260565186,2573.725259,None,2574.026047,2575.730539,None,None,1.015746331,,,,,,,,,,,,,999,1,9,1,2019_Dec_03_1004,Test,3.2.4,59.84044777
172,Pictures/IA110_55_L95p.bmp,Pictures/IA110_55_L95p.bmp,110,"Trust me, gamble!""""",1,risk,,,,,7,0,7,0,0,14,14,12,,,,,,,,,,,,,,,,,,,,,,,,,,,,,,,2575.747249,None,2577.769249,2579.289921,2579.273214,None,2580.793885,None,0,2582.799178,None,2582.799178,None,2582.799178,None,None,None,None,None,2583.567865,None,2583.567865,None,1,0.233946873,2583.567865,None,None,None,2583.835228,2585.573139,0.602654471,,,,,,,,,,,,,999,1,9,1,2019_Dec_03_1004,Test,3.2.4,59.84044777
173,Pictures/IA25_G5.bmp,Pictures/IA25_G5.bmp,25,"Let's stay with the certain option.""""",0,safe,,,,,7,0,7,0,0,15,15,8,,,,,,,,,,,,,,,,,,,,,,,,,,,,,,,2585.589849,None,2587.611848,2589.115808,2589.0991,None,2590.636485,None,0,2592.641769,None,2592.641769,None,2592.641769,None,None,None,None,None,2593.510725,None,2593.510725,None,0,0.067097777,2593.510725,None,2593.627696,2595.516008,None,None,0.696069122,,,,,,,,,,,,,999,1,9,1,2019_Dec_03_1004,Test,3.2.4,59.84044777
174,Pictures/IA25_L5.bmp,Pictures/IA25_L5.bmp,25,"It would be smarter to choose the safe option.""""",0,safe,,,,,7,0,7,0,0,16,16,18,,,,,,,,,,,,,,,,,,,,,,,,,,,,,,,2595.532716,None,2597.554711,2599.075385,2599.058677,None,2600.579349,None,0,2602.584634,None,2602.584634,None,2602.584634,None,None,None,None,None,2603.537146,None,2603.537146,None,1,0.080669622,2603.537146,None,None,None,2603.654117,2605.525714,0.769198759,,,,,,,,,,,,,999,1,9,1,2019_Dec_03_1004,Test,3.2.4,59.84044777
175,Pictures/IA75_G45.bmp,Pictures/IA75_G45.bmp,75,"Don't gamble for this one.""""",0,safe,,,,,7,0,7,0,0,17,17,19,,,,,,,,,,,,,,,,,,,,,,,,,,,,,,,2605.542424,None,2607.564421,2609.085092,2609.068387,None,2610.605776,None,0,2612.594344,None,2612.594344,None,2612.594344,None,None,None,None,None,2613.530144,None,2613.530144,None,0,0.05567918,2613.530144,None,2613.630403,2615.535421,None,None,0.743485908,,,,,,,,,,,,,999,1,9,1,2019_Dec_03_1004,Test,3.2.4,59.84044777
176,Pictures/IA25_L20.bmp,Pictures/IA25_L20.bmp,25,"Don't be tempted to gamble.""""",0,safe,,,,,7,0,7,0,0,18,18,17,,,,,,,,,,,,,,,,,,,,,,,,,,,,,,,2615.552132,None,2617.574133,2619.094804,2619.078094,None,2620.59877,None,0,2622.604057,None,2622.604057,None,2622.604057,None,None,None,None,None,2623.75709,None,2623.75709,None,0,0.220730001,2623.75709,None,2624.024457,2625.762369,None,None,0.973772055,,,,,,,,,,,,,999,1,9,1,2019_Dec_03_1004,Test,3.2.4,59.84044777
177,Pictures/IA50_L40.bmp,Pictures/IA50_L40.bmp,50,"That gamble doesn't sound too good, play it safe.""""",0,safe,,,,,7,0,7,0,0,19,19,14,,,,,,,,,,,,,,,,,,,,,,,,,,,,,,,2625.77908,None,2627.801076,2629.321748,2629.305041,None,2630.842428,None,0,2632.831,None,2632.831,None,2632.831,None,None,None,None,None,2633.532847,None,2633.532847,None,0,0.180963916,2633.532847,None,2633.750084,2635.521417,None,None,0.522823573,,,,,,,,,,,,,999,1,9,1,2019_Dec_03_1004,Test,3.2.4,59.84044777
179,Pictures/IA50_L10.bmp,Pictures/IA50_L10.bmp,50,"Play it safe, don‰Ûªt gamble!""""",0,safe,,,,,8,0,8,0,0,0,0,7,,,,,,,,,,,,,2639.348169,None,2639.348169,None,2639.348169,None,1,1.565642731,2639.348169,None,2639.348169,None,2639.348169,None,return,2.261432629,2639.348169,None,2641.670955,None,2643.67624,2645.196916,2645.180206,None,2646.66746,None,0,2648.689453,None,2648.689453,None,2648.689453,None,None,None,None,None,2649.140656,None,2649.140656,None,1,0.093167261,2649.140656,None,None,None,2649.274323,2651.145936,0.296371771,,,,,,,,,,,,,999,1,9,1,2019_Dec_03_1004,Test,3.2.4,59.84044777
180,Pictures/IA100_G20.bmp,Pictures/IA100_G20.bmp,100,"Go ahead and gamble!""""",1,risk,,,,,8,0,8,0,0,1,1,14,,,,,,,,,,,,,,,,,,,,,,,,,,,,,,,2651.162633,None,2653.184627,2654.705301,2654.688592,None,2656.192552,None,0,2658.214558,None,2658.214558,None,2658.214558,None,None,None,None,None,2658.632318,None,2658.632318,None,0,0.065498277,2658.632318,None,2658.732585,2660.637596,None,None,0.267263952,,,,,,,,,,,,,999,1,9,1,2019_Dec_03_1004,Test,3.2.4,59.84044777
181,Pictures/IA50_G40.bmp,Pictures/IA50_G40.bmp,50,"It would probably be best to play it safe.""""",0,safe,,,,,8,0,8,0,0,2,2,6,,,,,,,,,,,,,,,,,,,,,,,,,,,,,,,2660.654311,None,2662.676317,2664.196979,2664.180273,None,2665.684234,None,0,2667.706226,None,2667.706226,None,2667.706226,None,None,None,None,None,2668.174126,None,2668.174126,None,1,0.467685023,2668.174126,None,None,None,2668.675443,2670.179408,0.279599529,,,,,,,,,,,,,999,1,9,1,2019_Dec_03_1004,Test,3.2.4,59.84044777
182,Pictures/IA40_20_L95p.bmp,Pictures/IA40_20_L95p.bmp,40,"Trust me, gamble!""""",1,risk,,,,,8,0,8,0,0,3,3,3,,,,,,,,,,,,,,,,,,,,,,,,,,,,,,,2670.196117,None,2672.218115,2673.738783,2673.722078,None,2675.25946,None,0,2677.248035,None,2677.248035,None,2677.248035,None,None,None,None,None,2677.74936,None,2677.74936,None,1,0.236460139,2677.74936,None,None,None,2678.033434,2679.737932,0.329783926,,,,,,,,,,,,,999,1,9,1,2019_Dec_03_1004,Test,3.2.4,59.84044777
183,Pictures/IA100_G60.bmp,Pictures/IA100_G60.bmp,100,"Be cautious, don't gamble for this one.""""",0,safe,,,,,8,0,8,0,0,4,4,8,,,,,,,,,,,,,,,,,,,,,,,,,,,,,,,2679.754637,None,2681.776631,2683.280593,2683.263887,None,2684.801269,None,0,2686.806555,None,2686.806555,None,2686.806555,None,None,None,None,None,2687.458272,None,2687.458272,None,0,0.711548055,2687.458272,None,2688.210249,2689.44684,None,None,0.475282398,,,,,,,,,,,,,999,1,9,1,2019_Dec_03_1004,Test,3.2.4,59.84044777
184,Pictures/IA75_L45.bmp,Pictures/IA75_L45.bmp,75,"Don't gamble for this one, play it safe.""""",0,safe,,,,,8,0,8,0,0,5,5,15,,,,,,,,,,,,,,,,,,,,,,,,,,,,,,,2689.463551,None,2691.485547,2693.006219,2692.989513,None,2694.526912,None,0,2696.515472,None,2696.515472,None,2696.515472,None,None,None,None,None,2698.470625,None,2698.470625,None,0,0.339196436,2698.470625,None,2698.854969,2700.45919,None,None,1.774357578,,,,,,,,,,,,,999,1,9,1,2019_Dec_03_1004,Test,3.2.4,59.84044777
185,Pictures/IA20_10_L95p.bmp,Pictures/IA20_10_L95p.bmp,20,"Don't be tempted to gamble.""""",0,safe,,,,,8,0,8,0,0,6,6,1,,,,,,,,,,,,,,,,,,,,,,,,,,,,,,,2700.475901,None,2702.497896,2704.018573,2704.001868,None,2705.50584,None,0,2707.52782,None,2707.52782,None,2707.52782,None,None,None,None,None,2708.045856,None,2708.045856,None,1,0.195962442,2708.045856,None,None,None,2708.279797,2710.034421,0.362006286,,,,,,,,,,,,,999,1,9,1,2019_Dec_03_1004,Test,3.2.4,59.84044777
186,Pictures/IA100_L60.bmp,Pictures/IA100_L60.bmp,100,"You'd have a lot to lose, don't gamble.""""",0,safe,,,,,8,0,8,0,0,7,7,0,,,,,,,,,,,,,,,,,,,,,,,,,,,,,,,2710.05113,None,2712.073126,2713.5938,2713.577092,None,2715.097764,None,0,2717.103051,None,2717.103051,None,2717.103051,None,None,None,None,None,2718.690565,None,2718.690565,None,0,0.487267026,2718.690565,None,2719.225308,2720.695848,None,None,1.410775504,,,,,,,,,,,,,999,1,9,1,2019_Dec_03_1004,Test,3.2.4,59.84044777
187,Pictures/IA25_L15.bmp,Pictures/IA25_L15.bmp,25,"There's not much on the line here, gamble!""""",1,risk,,,,,8,0,8,0,0,8,8,9,,,,,,,,,,,,,,,,,,,,,,,,,,,,,,,2720.71256,None,2722.734552,2724.255224,2724.238518,None,2725.75919,None,0,2727.764475,None,2727.764475,None,2727.764475,None,None,None,None,None,2728.650142,None,2728.650142,None,0,0.223688907,2728.650142,None,2728.917511,2730.655422,None,None,0.67735012,,,,,,,,,,,,,999,1,9,1,2019_Dec_03_1004,Test,3.2.4,59.84044777
188,Pictures/IA75_L60.bmp,Pictures/IA75_L60.bmp,75,"Why not take the gamble?""""",1,risk,,,,,8,0,8,0,0,9,9,16,,,,,,,,,,,,,,,,,,,,,,,,,,,,,,,2730.672131,None,2732.694128,2734.214816,2734.198092,None,2735.752186,None,0,2737.724051,None,2737.724051,None,2737.724051,None,None,None,None,None,2738.325599,None,2738.325599,None,0,0.140221457,2738.325599,None,2738.509448,2740.314203,None,None,0.437778222,,,,,,,,,,,,,999,1,9,1,2019_Dec_03_1004,Test,3.2.4,59.84044777
189,Pictures/IA25_G10.bmp,Pictures/IA25_G10.bmp,25,"What's life without a little risk?""""",1,risk,,,,,8,0,8,0,0,10,10,5,,,,,,,,,,,,,,,,,,,,,,,,,,,,,,,2740.330914,None,2742.352917,2743.873584,2743.856881,None,2745.410975,None,0,2747.38283,None,2747.38283,None,2747.38283,None,None,None,None,None,2747.934283,None,2747.934283,None,0,0.219540814,2747.934283,None,2748.201656,2749.939565,None,None,0.370999091,,,,,,,,,,,,,999,1,9,1,2019_Dec_03_1004,Test,3.2.4,59.84044777
190,Pictures/IA100_L40.bmp,Pictures/IA100_L40.bmp,100,"Think of the payoff, gamble!""""",1,risk,,,,,8,0,8,0,0,11,11,10,,,,,,,,,,,,,,,,,,,,,,,,,,,,,,,2749.956277,None,2751.978273,2753.498949,2753.482238,None,2755.05323,None,0,2757.008195,None,2757.008195,None,2757.008195,None,None,None,None,None,2757.827019,None,2757.827019,None,1,0.054801043,2757.827019,None,None,None,2757.92728,2759.815589,0.617645354,,,,,,,,,,,,,999,1,9,1,2019_Dec_03_1004,Test,3.2.4,59.84044777
191,Pictures/IA75_L15.bmp,Pictures/IA75_L15.bmp,75,"Trust me, gamble!""""",1,risk,,,,,8,0,8,0,0,12,12,18,,,,,,,,,,,,,,,,,,,,,,,,,,,,,,,2759.832299,None,2761.887717,2763.391678,2763.374969,None,2764.929063,None,0,2766.88422,None,2766.88422,None,2766.88422,None,None,None,None,None,2767.736463,None,2767.736463,None,0,0.105356245,2767.736463,None,2767.886855,2769.72504,None,None,0.693603709,,,,,,,,,,,,,999,1,9,1,2019_Dec_03_1004,Test,3.2.4,59.84044777
192,Pictures/IA25_L10.bmp,Pictures/IA25_L10.bmp,25,"Dont be afraid to take the risk!""""",1,risk,,,,,8,0,8,0,0,13,13,17,,,,,,,,,,,,,,,,,,,,,,,,,,,,,,,2769.741744,None,2771.797162,2773.301154,2773.267716,None,2775.022343,None,0,2776.793666,None,2776.793666,None,2776.793666,None,None,None,None,None,2777.411957,None,2777.411957,None,1,0.181867489,2777.411957,None,None,None,2777.629194,2779.417238,0.432148497,,,,,,,,,,,,,999,1,9,1,2019_Dec_03_1004,Test,3.2.4,59.84044777
193,Pictures/IA75_G60.bmp,Pictures/IA75_G60.bmp,75,"Make it exciting, take a chance!""""",1,risk,,,,,8,0,8,0,0,14,14,12,,,,,,,,,,,,,,,,,,,,,,,,,,,,,,,2779.433945,None,2781.489369,2782.993327,2782.976631,None,2784.530715,None,0,2786.48587,None,2786.48587,None,2786.48587,None,None,None,None,None,2787.020608,None,2787.020608,None,1,0.245208643,2787.020608,None,None,None,2787.304686,2789.009178,0.323963269,,,,,,,,,,,,,999,1,9,1,2019_Dec_03_1004,Test,3.2.4,59.84044777
194,Pictures/IA80_40_L95p.bmp,Pictures/IA80_40_L95p.bmp,80,"Let's stay with the certain option.""""",0,safe,,,,,8,0,8,0,0,15,15,2,,,,,,,,,,,,,,,,,,,,,,,,,,,,,,,2789.025888,None,2791.081307,2792.585268,2792.56856,None,2794.122658,None,0,2796.077808,None,2796.077808,None,2796.077808,None,None,None,None,None,2796.562417,None,2796.562417,None,1,0.279396293,2796.562417,None,None,None,2796.879916,2798.550984,0.27602218,,,,,,,,,,,,,999,1,9,1,2019_Dec_03_1004,Test,3.2.4,59.84044777
195,Pictures/IA50_L20.bmp,Pictures/IA50_L20.bmp,50,"Certainty is boring, take a risk!""""",1,risk,,,,,8,0,8,0,0,16,16,4,,,,,,,,,,,,,,,,,,,,,,,,,,,,,,,2798.567697,None,2800.623116,2802.127075,2802.110368,None,2803.64775,None,0,2805.61962,None,2805.61962,None,2805.61962,None,None,None,None,None,2806.521995,None,2806.521995,None,1,0.311813173,2806.521995,None,None,None,2806.872913,2808.510591,0.646200253,,,,,,,,,,,,,999,1,9,1,2019_Dec_03_1004,Test,3.2.4,59.84044777
196,Pictures/IA50_G20.bmp,Pictures/IA50_G20.bmp,50,"Let's venture and take a risk!""""",1,risk,,,,,8,0,8,0,0,17,17,19,,,,,,,,,,,,,,,,,,,,,,,,,,,,,,,2808.527278,None,2810.549268,2812.069939,2812.053231,None,2813.607328,None,0,2815.579191,None,2815.579191,None,2815.579191,None,None,None,None,None,2816.113935,None,2816.113935,None,0,0.183888779,2816.113935,None,2816.347879,2818.119213,None,None,0.374632341,,,,,,,,,,,,,999,1,9,1,2019_Dec_03_1004,Test,3.2.4,59.84044777
197,Pictures/IA50_G10.bmp,Pictures/IA50_G10.bmp,50,"Go with the safe option here!""""",0,safe,,,,,8,0,8,0,0,18,18,11,,,,,,,,,,,,,,,,,,,,,,,,,,,,,,,2818.135924,None,2820.157919,2821.678593,2821.661883,None,2823.199268,None,0,2825.187842,None,2825.187842,None,2825.187842,None,None,None,None,None,2825.7393,None,2825.7393,None,0,0.118511891,2825.7393,None,2825.906403,2827.744575,None,None,0.381975916,,,,,,,,,,,,,999,1,9,1,2019_Dec_03_1004,Test,3.2.4,59.84044777
198,Pictures/IA75_L30.bmp,Pictures/IA75_L30.bmp,75,"Hold back, stay with the safe choice.""""",0,safe,,,,,8,0,8,0,0,19,19,13,,,,,,,,,,,,,,,,,,,,,,,,,,,,,,,2827.761285,None,2829.783286,2831.303952,2831.287245,None,2832.87476,None,0,2834.813169,None,2834.813169,None,2834.813169,None,None,None,None,None,2835.481628,None,2835.481628,None,1,0.16819008,2835.481628,None,None,None,2835.698868,2837.470199,0.492656105,,,,,,,,,,,,,999,1,9,1,2019_Dec_03_1004,Test,3.2.4,59.84044777
200,Pictures/IA25_L5.bmp,Pictures/IA25_L5.bmp,25,"It would be smarter to choose the safe option.""""",0,safe,,,,,9,0,9,0,0,0,0,8,,,,,,,,,,,,,2840.394576,None,2840.394576,None,2840.394576,None,0,1.479243254,2840.394576,None,2840.394576,None,2840.394576,None,return,1.855113314,2840.394576,None,2842.299594,None,2844.321587,2845.842259,2845.825552,None,2847.346225,None,0,2849.334799,None,2849.334799,None,2849.334799,None,None,None,None,None,2850.471125,None,2850.471125,None,1,0.218691774,2850.471125,None,None,None,2850.738496,2852.476405,0.955029958,,,,,,,,,,,,,999,1,9,1,2019_Dec_03_1004,Test,3.2.4,59.84044777
201,Pictures/IA100_L80.bmp,Pictures/IA100_L80.bmp,100,"Go all in!""""",1,risk,,,,,9,0,9,0,0,1,1,10,,,,,,,,,,,,,,,,,,,,,,,,,,,,,,,2852.493116,None,2854.531824,2856.052496,2856.035788,None,2857.58988,None,0,2859.545037,None,2859.545037,None,2859.545037,None,None,None,None,None,2860.246884,None,2860.246884,None,0,0.122936864,2860.246884,None,2860.413987,2862.252134,None,None,0.552803556,,,,,,,,,,,,,999,1,9,1,2019_Dec_03_1004,Test,3.2.4,59.84044777
202,Pictures/IA20_10_G95p.bmp,Pictures/IA20_10_G95p.bmp,20,"Take a leap, I think you should gamble.""""",1,risk,,,,,9,0,9,0,0,2,2,5,,,,,,,,,,,,,,,,,,,,,,,,,,,,,,,2862.268875,None,2864.324292,2865.828253,2865.811546,None,2867.365639,None,0,2869.320793,None,2869.320793,None,2869.320793,None,None,None,None,None,2869.905666,None,2869.905666,None,0,0.096152141,2869.905666,None,2870.039348,2871.910946,None,None,0.409037476,,,,,,,,,,,,,999,1,9,1,2019_Dec_03_1004,Test,3.2.4,59.84044777
203,Pictures/IA75_G60.bmp,Pictures/IA75_G60.bmp,75,"Make it exciting, take a chance!""""",1,risk,,,,,9,0,9,0,0,3,3,14,,,,,,,,,,,,,,,,,,,,,,,,,,,,,,,2871.927657,None,2873.949653,2875.470326,2875.453617,None,2876.957581,None,0,2878.979583,None,2878.979583,None,2878.979583,None,None,None,None,None,2881.369209,None,2881.369209,None,1,0.632608851,2881.369209,None,None,None,2882.037635,2883.374483,2.206231906,,,,,,,,,,,,,999,1,9,1,2019_Dec_03_1004,Test,3.2.4,59.84044777
204,Pictures/IA80_40_L95p.bmp,Pictures/IA80_40_L95p.bmp,80,"Let's stay with the certain option.""""",0,safe,,,,,9,0,9,0,0,4,4,17,,,,,,,,,,,,,,,,,,,,,,,,,,,,,,,2883.391196,None,2885.41319,2886.933863,2886.917156,None,2888.454538,None,0,2890.443115,None,2890.443115,None,2890.443115,None,None,None,None,None,2890.961149,None,2890.961149,None,1,0.168672406,2890.961149,None,None,None,2891.178384,2892.966423,0.33471776,,,,,,,,,,,,,999,1,9,1,2019_Dec_03_1004,Test,3.2.4,59.84044777
205,Pictures/IA25_L10.bmp,Pictures/IA25_L10.bmp,25,"Dont be afraid to take the risk!""""",1,risk,,,,,9,0,9,0,0,5,5,15,,,,,,,,,,,,,,,,,,,,,,,,,,,,,,,2892.983145,None,2895.005134,2896.525802,2896.509096,None,2898.04648,None,0,2900.035171,None,2900.035171,None,2900.035171,None,None,None,None,None,2900.736904,None,2900.736904,None,1,0.048927055,2900.736904,None,None,None,2900.820486,2902.742185,0.510653238,,,,,,,,,,,,,999,1,9,1,2019_Dec_03_1004,Test,3.2.4,59.84044777
206,Pictures/IA110_55_G95p.bmp,Pictures/IA110_55_G95p.bmp,110,"Take a chance!""""",1,risk,,,,,9,0,9,0,0,6,6,6,,,,,,,,,,,,,,,,,,,,,,,,,,,,,,,2902.758892,None,2904.81431,2906.318271,2906.301565,None,2907.855664,None,0,2909.810811,None,2909.810811,None,2909.810811,None,None,None,None,None,2910.479244,None,2910.479244,None,0,0.178569353,2910.479244,None,2910.696475,2912.467808,None,None,0.519017709,,,,,,,,,,,,,999,1,9,1,2019_Dec_03_1004,Test,3.2.4,59.84044777
207,Pictures/IA50_G20.bmp,Pictures/IA50_G20.bmp,50,"Let's venture and take a risk!""""",1,risk,,,,,9,0,9,0,0,7,7,3,,,,,,,,,,,,,,,,,,,,,,,,,,,,,,,2912.484518,None,2914.506518,2916.027189,2916.010479,None,2917.531155,None,0,2919.53644,None,2919.53644,None,2919.53644,None,None,None,None,None,2920.171446,None,2920.171446,None,0,0.174370942,2920.171446,None,2920.388679,2922.160011,None,None,0.481384464,,,,,,,,,,,,,999,1,9,1,2019_Dec_03_1004,Test,3.2.4,59.84044777
208,Pictures/IA100_G40.bmp,Pictures/IA100_G40.bmp,100,"Try your luck and gamble!""""",1,risk,,,,,9,0,9,0,0,8,8,16,,,,,,,,,,,,,,,,,,,,,,,,,,,,,,,2922.176722,None,2924.232138,2925.736105,2925.719397,None,2927.273499,None,0,2929.22864,None,2929.22864,None,2929.22864,None,None,None,None,None,2929.729964,None,2929.729964,None,0,0.175846692,2929.729964,None,2929.947196,2931.718532,None,None,0.341187273,,,,,,,,,,,,,999,1,9,1,2019_Dec_03_1004,Test,3.2.4,59.84044777
209,Pictures/IA75_G15.bmp,Pictures/IA75_G15.bmp,75,"Take a chance!""""",1,risk,,,,,9,0,9,0,0,9,9,1,,,,,,,,,,,,,,,,,,,,,,,,,,,,,,,2931.735242,None,2933.757235,2935.277909,2935.261201,None,2936.815297,None,0,2938.78716,None,2938.78716,None,2938.78716,None,None,None,None,None,2939.773087,None,2939.773087,None,0,0.332729962,2939.773087,None,2940.140722,2941.77837,None,None,0.838673877,,,,,,,,,,,,,999,1,9,1,2019_Dec_03_1004,Test,3.2.4,59.84044777
210,Pictures/IA50_L20.bmp,Pictures/IA50_L20.bmp,50,"Certainty is boring, take a risk!""""",1,risk,,,,,9,0,9,0,0,10,10,4,,,,,,,,,,,,,,,,,,,,,,,,,,,,,,,2941.79508,None,2943.817076,2945.337747,2945.32104,None,2946.825005,None,0,2948.846999,None,2948.846999,None,2948.846999,None,None,None,None,None,2949.348318,None,2949.348318,None,1,0.077501709,2949.348318,None,None,None,2949.465295,2951.336886,0.338839254,,,,,,,,,,,,,999,1,9,1,2019_Dec_03_1004,Test,3.2.4,59.84044777
211,Pictures/IA25_L15.bmp,Pictures/IA25_L15.bmp,25,"There's not much on the line here, gamble!""""",1,risk,,,,,9,0,9,0,0,11,11,11,,,,,,,,,,,,,,,,,,,,,,,,,,,,,,,2951.353599,None,2953.375597,2954.896269,2954.879561,None,2956.433651,None,1,2958.405518,None,2958.405518,None,2958.405518,None,2958.806591,None,2958.806591,2959.809238,2960.9288,None,2960.9288,None,0,0.617024311,2960.9288,None,2961.580584,2962.917402,None,None,0.252306469,,,,,,,,,,,,,999,1,9,1,2019_Dec_03_1004,Test,3.2.4,59.84044777
212,Pictures/IA75_G45.bmp,Pictures/IA75_G45.bmp,75,"Don't gamble for this one.""""",0,safe,,,,,9,0,9,0,0,12,12,19,,,,,,,,,,,,,,,,,,,,,,,,,,,,,,,2962.934114,None,2964.956126,2966.46011,2966.426647,None,2967.997457,None,0,2969.986041,None,2969.986041,None,2969.986041,None,None,None,None,None,2970.738007,None,2970.738007,None,0,0.223812413,2970.738007,None,2971.005377,2972.743291,None,None,0.551778146,,,,,,,,,,,,,999,1,9,1,2019_Dec_03_1004,Test,3.2.4,59.84044777
213,Pictures/IA25_G5.bmp,Pictures/IA25_G5.bmp,25,"Let's stay with the certain option.""""",0,safe,,,,,9,0,9,0,0,13,13,18,,,,,,,,,,,,,,,,,,,,,,,,,,,,,,,2972.760001,None,2974.782002,2976.30267,2976.285966,None,2977.856767,None,0,2979.81192,None,2979.81192,None,2979.81192,None,None,None,None,None,2980.513767,None,2980.513767,None,0,0.128043152,2980.513767,None,2980.680872,2982.502335,None,None,0.525907841,,,,,,,,,,,,,999,1,9,1,2019_Dec_03_1004,Test,3.2.4,59.84044777
214,Pictures/IA100_L60.bmp,Pictures/IA100_L60.bmp,100,"You'd have a lot to lose, don't gamble.""""",0,safe,,,,,9,0,9,0,0,14,14,2,,,,,,,,,,,,,,,,,,,,,,,,,,,,,,,2982.519051,None,2984.541106,2986.061714,2986.045007,None,2987.582393,None,0,2989.570971,None,2989.570971,None,2989.570971,None,None,None,None,None,2990.640447,None,2990.640447,None,0,0.217364784,2990.640447,None,2990.907822,2992.645729,None,None,0.894852894,,,,,,,,,,,,,999,1,9,1,2019_Dec_03_1004,Test,3.2.4,59.84044777
215,Pictures/IA50_L10.bmp,Pictures/IA50_L10.bmp,50,"Play it safe, don‰Ûªt gamble!""""",0,safe,,,,,9,0,9,0,0,15,15,7,,,,,,,,,,,,,,,,,,,,,,,,,,,,,,,2992.662444,None,2994.684439,2996.205107,2996.1884,None,2997.742493,None,0,2999.714365,None,2999.714365,None,2999.714365,None,None,None,None,None,3000.198968,None,3000.198968,None,1,0.162849566,3000.198968,None,None,None,3000.399494,3002.204246,0.319465141,,,,,,,,,,,,,999,1,9,1,2019_Dec_03_1004,Test,3.2.4,59.84044777
216,Pictures/IA75_L45.bmp,Pictures/IA75_L45.bmp,75,"Don't gamble for this one, play it safe.""""",0,safe,,,,,9,0,9,0,0,16,16,13,,,,,,,,,,,,,,,,,,,,,,,,,,,,,,,3002.22096,None,3004.242957,3005.763632,3005.74692,None,3007.30101,None,0,3009.272875,None,3009.272875,None,3009.272875,None,None,None,None,None,3009.958013,None,3009.958013,None,1,0.059805078,3009.958013,None,None,None,3010.058276,3011.963296,0.512944241,,,,,,,,,,,,,999,1,9,1,2019_Dec_03_1004,Test,3.2.4,59.84044777
217,Pictures/IA100_G20.bmp,Pictures/IA100_G20.bmp,100,"Go ahead and gamble!""""",1,risk,,,,,9,0,9,0,0,17,17,9,,,,,,,,,,,,,,,,,,,,,,,,,,,,,,,3011.980021,None,3014.001998,3015.522672,3015.505965,None,3017.076769,None,0,3019.031927,None,3019.031927,None,3019.031927,None,None,None,None,None,3020.569305,None,3020.569305,None,0,0.176512228,3020.569305,None,3020.786541,3022.574587,None,None,1.377908137,,,,,,,,,,,,,999,1,9,1,2019_Dec_03_1004,Test,3.2.4,59.84044777
218,Pictures/IA25_G15.bmp,Pictures/IA25_G15.bmp,25,"I think you should take a gamble.""""",1,risk,,,,,9,0,9,0,0,18,18,0,,,,,,,,,,,,,,,,,,,,,,,,,,,,,,,3022.591287,None,3024.61329,3026.133965,3026.11726,None,3027.671357,None,0,3029.643216,None,3029.643216,None,3029.643216,None,None,None,None,None,3030.361781,None,3030.361781,None,1,0.264018656,3030.361781,None,None,None,3030.662563,3032.367056,0.518611458,,,,,,,,,,,,,999,1,9,1,2019_Dec_03_1004,Test,3.2.4,59.84044777
219,Pictures/IA75_L15.bmp,Pictures/IA75_L15.bmp,75,"Trust me, gamble!""""",1,risk,,,,,9,0,9,0,0,19,19,12,,,,,,,,,,,,,,,,,,,,,,,,,,,,,,,3032.383766,None,3034.405759,3035.926434,3035.909728,None,3037.463818,None,0,3039.435689,None,3039.435689,None,3039.435689,None,None,None,None,None,3039.90355,None,3039.90355,None,1,0.186271672,3039.90355,None,None,None,3040.137526,3041.908861,0.286139655,,,,,,,,,,,,,999,1,9,1,2019_Dec_03_1004,Test,3.2.4,59.84044777
11,Pictures/IA100_G60.bmp,Pictures/IA100_G60.bmp,100,"Be cautious, don't gamble for this one.""""",0,safe,,,,,0,0,0,0,0,0,0,13,,,,,,,,,,,,,808.0979143,None,808.0979143,None,808.0979143,None,0,1.994306955,808.0979143,None,808.0979143,None,808.0979143,None,return,5.7061064,808.0979143,None,813.8798293,None,815.8684081,817.3890836,817.3723762,None,818.9264814,None,0,820.8816322,None,820.8816322,None,820.8816322,None,None,None,None,None,822.41902,None,822.41902,None,1,822.41902,None,None,None,823.0707417,824.4243058,1.362593505,0.617204074,,,,,,,,,,,,,102,1,18,1,2019_Dec_04_1211,Test,3.2.4,59.84470323
12,Pictures/IA50_G40.bmp,Pictures/IA50_G40.bmp,50,"It would probably be best to play it safe.""""",0,safe,,,,,0,0,0,0,0,1,1,17,,,,,,,,,,,,,,,,,,,,,,,,,,,,,,,824.4409846,None,826.4630216,827.9836946,827.9669916,None,829.470965,None,0,831.4929565,None,831.4929565,None,831.4929565,None,None,None,None,None,833.4982432,None,833.4982432,None,0,833.4982432,None,834.1833822,835.486816,None,None,1.799263636,0.641971411,,,,,,,,,,,,,102,1,18,1,2019_Dec_04_1211,Test,3.2.4,59.84470323
13,Pictures/IA100_L20.bmp,Pictures/IA100_L20.bmp,100,"Try to win as much money as you can, gamble!""""",1,risk,,,,,0,0,0,0,0,2,2,16,,,,,,,,,,,,,,,,,,,,,,,,,,,,,,,835.5035294,None,837.5255343,839.0462081,839.0295273,None,840.6170183,None,0,842.5554674,None,842.5554674,None,842.5554674,None,None,None,None,None,843.8756174,None,843.8756174,None,0,843.8756174,None,844.5774637,845.8809037,None,None,1.12075708,0.664593261,,,,,,,,,,,,,102,1,18,1,2019_Dec_04_1211,Test,3.2.4,59.84470323
14,Pictures/IA110_55_L95p.bmp,Pictures/IA110_55_L95p.bmp,110,"Trust me, gamble!""""",1,risk,,,,,0,0,0,0,0,3,3,7,,,,,,,,,,,,,,,,,,,,,,,,,,,,,,,845.8976113,None,847.9363205,849.4570028,849.4402997,None,850.9776845,None,0,852.9495508,None,852.9495508,None,852.9495508,None,None,None,None,None,854.0357485,None,854.0357485,None,1,854.0357485,None,None,None,854.8712811,856.0410334,0.934664056,0.792470711,,,,,,,,,,,,,102,1,18,1,2019_Dec_04_1211,Test,3.2.4,59.84470323
