"Choice	Choice2	Amount	AdviceVar1	GambleAdviceNum	GambleAdviceType	practice.thisRepN	practice.thisTrialN	practice.thisN	practice.thisIndex	trials_2.thisRepN	trials_2.thisTrialN	trials_2.thisN	trials_2.thisIndex	trials.thisRepN	trials.thisTrialN	trials.thisN	trials.thisIndex	text.started	text.stopped	key_resp_4.keys	key_resp_4.rt	key_resp_4.started	key_resp_4.stopped	instructions.started	instructions.stopped	space.keys	space.rt	space.started	space.stopped	chooseInst.started	chooseInst.stopped	Ad1.started	Ad1.stopped	Ad2.started	Ad2.stopped	key_resp_3.keys	key_resp_3.rt	key_resp_3.started	key_resp_3.stopped	Ad1pic.started	Ad1pic.stopped	Ad2pic.started	Ad2pic.stopped	enter.keys	enter.rt	enter.started	enter.stopped	iSi.started	iSi.stopped	receiveMoneyPicture.started	receiveMoneyPicture.stopped	ISI2.started	ISI2.stopped	ChoicePic.started	ChoicePic.stopped	response.keys	response.started	response.stopped	yesNo.started	yesNo.stopped	ask.started	ask.stopped	getAdv.started	getAdv.stopped	textForCode.started	textForCode.stopped	blank.started	blank.stopped	ChoicePic2.started	ChoicePic2.stopped	resp.keys	resp.started	resp.stopped	checkL1.started	checkL1.stopped	checkR1.started	checkR1.stopped	response.rt	resp.rt	EndPrac.started	EndPrac.stopped	key_resp.keys	key_resp.rt	key_resp.started	key_resp.stopped	endText.started	endText.stopped	key_resp_2.keys	key_resp_2.rt	key_resp_2.started	key_resp_2.stopped	participant	session	age	gender (0=male	 1 = female	 2 = other)	date	expName	psychopyVersion	frameRate"
"																		1972.40499	None	space	113.5322778	1972.40499	None																																																																					105	1	18	0	2019_Dec_05_1118	Test	3.1.2	59.98406794		"
"																								2085.953741	None	space	3.847113584	2085.953741	None																																																															105	1	18	0	2019_Dec_05_1118	Test	3.1.2	59.98406794		"
"																														2092.459559	None	2092.459559	None	2092.459559	None	left	9.524985522	2092.459559	None																																																					105	1	18	0	2019_Dec_05_1118	Test	3.1.2	59.98406794		"
"																																								2092.459559	None	2092.459559	None	return	11.82890658	2092.459559	None																																													105	1	18	0	2019_Dec_05_1118	Test	3.1.2	59.98406794		"
"Pictures/IA100_G20.bmp	Pictures/IA100_G20.bmp	Pictures/IA100.bmp	"""

"Go ahead and gamble!""""""""""	1	risk	0	0	0	4																																							2104.375465	None	2106.542754	2107.826621	2107.843226	None	2109.443296	None	None	2111.810615	None	2111.810615	None	2111.810615	None	None	None	None	None	2114.778152	None	2114.778152	None	None	2114.778152	None	None	None	None	None															105	1	18	0	2019_Dec_05_1118	Test	3.1.2	59.98406794		"
"Pictures/IA50_G40.bmp	Pictures/IA50_G40.bmp	Pictures/IA50.bmp	"""

"It would probably be best to play it safe.""""""""""	0	safe	0	1	1	3																																							2116.595787	None	2118.665876	2120.096782	2120.113332	None	2121.631891	None	1	2123.647647	None	2123.647647	None	2123.647647	None	2124.830998	None	2124.830998	2125.831755	2126.966935	None	2126.966935	None	left	2126.966935	None	2128.282468	None	None	None	1.072327887	1.296772123													105	1	18	0	2019_Dec_05_1118	Test	3.1.2	59.98406794		"
"Pictures/IA50_G20.bmp	Pictures/IA50_G20.bmp	Pictures/IA50.bmp	"""

"Let's venture and take a risk!""""""""""	1	risk	0	2	2	1																																							2128.832632	None	2130.869109	2132.333624	2132.350287	None	2133.884043	None	1	2135.88419	None	2135.88419	None	2135.88419	None	2137.151439	None	2137.151439	2138.151939	2139.253413	None	2139.253413	None	None	2139.253413	None	None	None	None	None	1.171280334														105	1	18	0	2019_Dec_05_1118	Test	3.1.2	59.98406794		"
"Pictures/IA50_G30.bmp	Pictures/IA50_G30.bmp	Pictures/IA50.bmp	"""

"I think you should gamble.""""""""""	1	risk	0	3	3	2																																							2141.152819	None	2143.186762	2144.653803	2144.670471	None	2146.204216	None	1	2148.187908	None	2148.187908	None	2148.187908	None	2149.354872	None	2149.354872	2150.355425	2151.442999	None	2151.442999	None	right	2151.442999	None	None	None	2152.389325	None	1.083257809	0.924157358													105	1	18	0	2019_Dec_05_1118	Test	3.1.2	59.98406794		"
"Pictures/IA50_G10.bmp	Pictures/IA50_G10.bmp	Pictures/IA50.bmp	"""

"Go with the safe option here!""""""""""	0	safe	0	4	4	0																																							2153.356291	None	2155.390021	2156.857277	2156.873936	None	2158.407673	None	1	2160.391465	None	2160.391465	None	2160.391465	None	2161.007971	None	2161.007971	2162.008744	2163.075217	None	2163.075217	None	left	2163.075217	None	2163.559134	2164.992929	None	None	0.527453409	0.459635518													105	1	18	0	2019_Dec_05_1118	Test	3.1.2	59.98406794		"
"Pictures/IA100_G40.bmp	Pictures/IA100_G40.bmp	Pictures/IA100.bmp	"""

"Try your luck and gamble!""""""""""	1	risk	0	5	5	5																																							2165.0096	None	2167.030829	2168.510613	2168.527215	None	2170.048215	None	2	2172.044827	None	2172.044827	None	2172.044827	None	None	None	None	None	2174.015532	None	2174.015532	None	right	2174.015532	None	None	None	2174.578993	2175.962714	1.857741512	0.534962812													105	1	18	0	2019_Dec_05_1118	Test	3.1.2	59.98406794		"
"																																																																																2175.979397	None	space	17.29050522	2175.979397	None							105	1	18	0	2019_Dec_05_1118	Test	3.1.2	59.98406794		"
"Pictures/IA100_L40.bmp	Pictures/IA100_L40.bmp	Pictures/IA100.bmp	"""

"Think of the payoff""	1	risk					0	0	0	0	0	0	0	6													2193.384136	None	2193.384136	None	2193.384136	None	left	3.517868617	2193.384136	None	2193.384136	None	2193.384136	None	return	7.45365412	2193.384136	None	2200.886267	None	2202.891171	2204.370807	2204.387403	None	2205.937894	None	1	2207.906422	None	2207.906422	None	2207.906422	None	2208.305027	None	2208.305027	2209.305546	2210.377981	None	2210.377981	None	left	2210.377981	None	2211.889588	None	None	None	0.315203362	1.483494241													105	1	18	0	2019_Dec_05_1118	Test	3.1.2	59.98406794		"
"Pictures/IA25_G5.bmp	Pictures/IA25_G5.bmp	Pictures/IA25.bmp	"""

"Let's stay with the certain option.""""""""""	0	safe					0	0	0	0	0	1	1	16																															2212.306318	None	2214.358883	2215.807417	2215.824044	None	2217.357819	None	2	2219.341502	None	2219.341502	None	2219.341502	None	None	None	None	None	2221.025071	None	2221.025071	None	left	2221.025071	None	2221.375605	2222.959453	None	None	1.567822867	0.324152133													105	1	18	0	2019_Dec_05_1118	Test	3.1.2	59.98406794		"
"Pictures/IA25_G15.bmp	Pictures/IA25_G15.bmp	Pictures/IA25.bmp	"""

"I think you should take a gamble.""""""""""	1	risk					0	0	0	0	0	2	2	11																															2222.976115	None	2224.998502	2226.477105	2226.493777	None	2228.027411	None	1	2230.027981	None	2230.027981	None	2230.027981	None	2230.39438	None	2230.39438	2231.395171	2232.464104	None	2232.464104	None	right	2232.464104	None	None	None	2232.828855	2234.379359	0.281023058	0.348839705													105	1	18	0	2019_Dec_05_1118	Test	3.1.2	59.98406794		"
"Pictures/IA75_G30.bmp	Pictures/IA75_G30.bmp	Pictures/IA75.bmp	"""

"Be bold""	1	risk					0	0	0	0	0	3	3	7																															2234.396033	None	2236.463217	2237.897041	2237.913661	None	2239.448229	None	1	2241.431463	None	2241.431463	None	2241.431463	None	2242.114418	None	2242.114418	2243.098498	2244.166426	None	2244.166426	None	right	2244.166426	None	None	None	2244.982332	2246.082692	0.589270619	0.790234012													105	1	18	0	2019_Dec_05_1118	Test	3.1.2	59.98406794		"
"Pictures/IA100_G20.bmp	Pictures/IA100_G20.bmp	Pictures/IA100.bmp	"""

"Go ahead and gamble!""""""""""	1	risk					0	0	0	0	0	4	4	10																															2246.09937	None	2248.133137	2249.600328	2249.617	None	2251.133949	None	1	2253.15122	None	2253.15122	None	2253.15122	None	2254.884688	None	2254.884688	2255.868805	2256.940822	None	2256.940822	None	left	2256.940822	None	2257.25245	2258.852997	None	None	1.645081862	0.29553056													105	1	18	0	2019_Dec_05_1118	Test	3.1.2	59.98406794		"
"Pictures/IA50_L10.bmp	Pictures/IA50_L10.bmp	Pictures/IA50.bmp	"""

"Play it safe""	0	safe					0	0	0	0	0	5	5	15																															2258.869691	None	2260.903364	2262.37068	2262.387339	None	2263.954267	None	1	2265.904893	None	2265.904893	None	2265.904893	None	2266.408876	None	2266.408876	2267.40542	2268.488593	None	2268.488593	None	right	2268.488593	None	None	None	2268.705821	2270.389615	0.403018441	0.195370761													105	1	18	0	2019_Dec_05_1118	Test	3.1.2	59.98406794		"
"Pictures/IA50_L30.bmp	Pictures/IA50_L30.bmp	Pictures/IA50.bmp	"""

"Take a leap""	1	risk					0	0	0	0	0	6	6	14																															2270.406293	None	2272.440022	2273.907245	2273.923895	None	2275.474255	None	1	2277.444549	None	2277.444549	None	2277.444549	None	2277.891277	None	2277.891277	2278.875365	2279.960651	None	2279.960651	None	None	2279.960651	None	None	None	None	None	0.343162166														105	1	18	0	2019_Dec_05_1118	Test	3.1.2	59.98406794		"
"Pictures/IA80_40_G95p.bmp	Pictures/IA80_40_G95p.bmp	Pictures/IA80.bmp	"""

"Think of the payoff""	1	risk					0	0	0	0	0	7	7	9																															2281.876223	None	2283.960399	2285.377221	2285.393893	None	2286.960565	None	1	2288.912219	None	2288.912219	None	2288.912219	None	2290.44506	None	2290.44506	2291.428948	2292.512088	None	2292.512088	None	left	2292.512088	None	2292.962729	2294.413144	None	None	1.443115141	0.419209455													105	1	18	0	2019_Dec_05_1118	Test	3.1.2	59.98406794		"
"Pictures/IA75_L45.bmp	Pictures/IA75_L45.bmp	Pictures/IA75.bmp	"""

"Don't gamble for this one""	0	safe					0	0	0	0	0	8	8	3																															2294.429814	None	2296.468042	2297.930822	2297.947477	None	2299.497764	None	None	2301.481684	None	2301.481684	None	2301.481684	None	None	None	None	None	2304.548914	None	2304.548914	None	right	2304.548914	None	None	None	2305.432948	2306.483206		0.853916677													105	1	18	0	2019_Dec_05_1118	Test	3.1.2	59.98406794		"
"Pictures/IA110_55_L95p.bmp	Pictures/IA110_55_L95p.bmp	Pictures/IA110.bmp	"""

"Trust me""	1	risk					0	0	0	0	0	9	9	13																															2306.499914	None	2308.570244	2310.000906	2310.017574	None	2311.567886	None	1	2313.535223	None	2313.535223	None	2313.535223	None	2314.138356	None	2314.138356	2315.135712	2316.218858	None	2316.218858	None	right	2316.218858	None	None	None	2316.569406	2318.11989	0.523544289	0.31967697													105	1	18	0	2019_Dec_05_1118	Test	3.1.2	59.98406794		"
"Pictures/IA75_L30.bmp	Pictures/IA75_L30.bmp	Pictures/IA75.bmp	"""

"Hold back""	0	safe					0	0	0	0	0	10	10	2																															2318.136544	None	2320.176359	2321.637554	2321.654223	None	2323.204501	None	1	2325.188408	None	2325.188408	None	2325.188408	None	2326.05525	None	2326.05525	2327.05576	2328.142802	None	2328.142802	None	None	2328.142802	None	None	None	None	None	0.765965685														105	1	18	0	2019_Dec_05_1118	Test	3.1.2	59.98406794		"
"Pictures/IA50_L20.bmp	Pictures/IA50_L20.bmp	Pictures/IA50.bmp	"""

"Certainty is boring""	1	risk					0	0	0	0	0	11	11	5																															2330.056614	None	2332.106729	2333.557609	2333.574287	None	2335.141219	None	1	2337.091824	None	2337.091824	None	2337.091824	None	2337.508518	None	2337.508518	2338.492348	2339.57716	None	2339.57716	None	left	2339.57716	None	2340.442933	2341.476543	None	None	0.326240894	0.840846054													105	1	18	0	2019_Dec_05_1118	Test	3.1.2	59.98406794		"
"Pictures/IA50_G20.bmp	Pictures/IA50_G20.bmp	Pictures/IA50.bmp	"""

"Let's venture and take a risk!""""""""""	1	risk					0	0	0	0	0	12	12	4																															2341.49318	None	2343.543595	2344.994233	2345.01075	None	2346.532711	None	1	2348.528397	None	2348.528397	None	2348.528397	None	2349.278549	None	2349.278549	2350.262383	2351.362233	None	2351.362233	None	right	2351.362233	None	None	None	2351.929462	2353.246528	0.665344655	0.551446489													105	1	18	0	2019_Dec_05_1118	Test	3.1.2	59.98406794		"
"Pictures/IA75_G15.bmp	Pictures/IA75_G15.bmp	Pictures/IA75.bmp	"""

"Take a chance!""""""""""	1	risk					0	0	0	0	0	13	13	8																															2353.263243	None	2355.296967	2356.764227	2356.780901	None	2358.331206	None	2	2360.301937	None	2360.301937	None	2360.301937	None	None	None	None	None	2362.003034	None	2362.003034	None	left	2362.003034	None	2362.915947	2363.93292	None	None	1.587502511	0.886288753													105	1	18	0	2019_Dec_05_1118	Test	3.1.2	59.98406794		"
"Pictures/IA100_L60.bmp	Pictures/IA100_L60.bmp	Pictures/IA100.bmp	"""

"You'd have a lot to lose""	0	safe					0	0	0	0	0	14	14	1																															2363.949616	None	2365.983282	2367.450612	2367.467283	None	2369.003544	None	1	2370.984811	None	2370.984811	None	2370.984811	None	2372.318389	None	2372.318389	2373.302269	2374.385443	None	2374.385443	None	left	2374.385443	None	2375.586222	None	None	None	1.224316409	1.175600612													105	1	18	0	2019_Dec_05_1118	Test	3.1.2	59.98406794		"
"Pictures/IA40_20_G95p.bmp	Pictures/IA40_20_G95p.bmp	Pictures/IA40.bmp	"""

"Hold back""	0	safe					0	0	0	0	0	15	15	19																															2376.303135	None	2378.370207	2379.804112	2379.82077	None	2381.356656	None	1	2383.341392	None	2383.341392	None	2383.341392	None	2383.988244	None	2383.988244	2384.988921	2386.058523	None	2386.058523	None	left	2386.058523	None	2386.489324	2387.973124	None	None	0.563312249	0.406213164													105	1	18	0	2019_Dec_05_1118	Test	3.1.2	59.98406794		"
"Pictures/IA25_L15.bmp	Pictures/IA25_L15.bmp	Pictures/IA25.bmp	"""

"There's not much on the line here""	1	risk					0	0	0	0	0	16	16	12																															2387.989787	None	2390.023566	2391.490786	2391.507446	None	2393.041702	None	1	2395.024916	None	2395.024916	None	2395.024916	None	2395.174693	None	2395.174693	2396.158749	2397.197587	None	2397.197587	None	right	2397.197587	None	None	None	2397.775871	2399.142966	0.047546389	0.554768417													105	1	18	0	2019_Dec_05_1118	Test	3.1.2	59.98406794		"
"Pictures/IA110_55_G95p.bmp	Pictures/IA110_55_G95p.bmp	Pictures/IA110.bmp	"""

"Take a chance!""""""""""	1	risk					0	0	0	0	0	17	17	17																															2399.15965	None	2401.182764	2402.660645	2402.677318	None	2404.198945	None	1	2406.211506	None	2406.211506	None	2406.211506	None	2406.74487	None	2406.74487	2407.728752	2408.7963	None	2408.7963	None	left	2408.7963	None	2409.762638	None	None	None	0.436540953	0.947786242													105	1	18	0	2019_Dec_05_1118	Test	3.1.2	59.98406794		"
"Pictures/IA100_G40.bmp	Pictures/IA100_G40.bmp	Pictures/IA100.bmp	"""

"Try your luck and gamble!""""""""""	1	risk					0	0	0	0	0	18	18	18																															2410.729625	None	2412.751947	2414.230605	2414.247199	None	2415.747691	None	2	2417.764784	None	2417.764784	None	2417.764784	None	None	None	None	None	2418.716446	None	2418.716446	None	right	2418.716446	None	None	None	2418.981959	2420.665769	0.835049398	0.243383359													105	1	18	0	2019_Dec_05_1118	Test	3.1.2	59.98406794		"
"Pictures/IA50_L40.bmp	Pictures/IA50_L40.bmp	Pictures/IA50.bmp	"""

"That gamble doesn't sound too good""	0	safe					0	0	0	0	0	19	19	0																															2420.682439	None	2422.701384	2424.183444	2424.200115	None	2425.733856	None	1	2427.717654	None	2427.717654	None	2427.717654	None	2429.234381	None	2429.234381	2430.218525	2431.301895	None	2431.301895	None	right	2431.301895	None	None	None	2431.952325	2433.202655	1.409888713	0.633656807													105	1	18	0	2019_Dec_05_1118	Test	3.1.2	59.98406794		"
"										0	0	0	0																																																																									2433.685695	None	return	11.00947749	2433.685695	None	105	1	18	0	2019_Dec_05_1118	Test	3.1.2	59.98406794		"
"Pictures/IA25_G5.bmp	Pictures/IA25_G5.bmp	Pictures/IA25.bmp	"""

"Let's stay with the certain option.""""""""""	0	safe					1	0	1	0	0	0	0	3													2444.805474	None	2444.805474	None	2444.805474	None	right	3.577561921	2444.805474	None	2444.805474	None	2444.805474	None	return	5.977509111	2444.805474	None	2450.840876	None	2452.846504	2454.325375	2454.341956	None	2455.842288	None	1	2457.859436	None	2457.859436	None	2457.859436	None	2458.743051	None	2458.743051	2459.726902	2460.810301	None	2460.810301	None	right	2460.810301	None	None	None	2462.511029	None	0.779306267	1.676339579													105	1	18	0	2019_Dec_05_1118	Test	3.1.2	59.98406794		"
"Pictures/IA20_10_L95p.bmp	Pictures/IA20_10_L95p.bmp	Pictures/IA20.bmp	"""

"Don't be tempted to gamble.""""""""""	0	safe					1	0	1	0	0	1	1	19																															2462.727624	None	2464.794826	2466.228758	2466.245408	None	2467.779192	None	2	2469.779576	None	2469.779576	None	2469.779576	None	None	None	None	None	2471.696472	None	2471.696472	None	right	2471.696472	None	None	None	2472.247082	2473.630869	1.786682246	0.525892125													105	1	18	0	2019_Dec_05_1118	Test	3.1.2	59.98406794		"
"Pictures/IA50_L30.bmp	Pictures/IA50_L30.bmp	Pictures/IA50.bmp	"""

"Take a leap""	1	risk					1	0	1	0	0	2	2	5																															2473.647531	None	2475.669756	2477.148519	2477.165148	None	2478.665614	None	1	2480.699402	None	2480.699402	None	2480.699402	None	2481.04915	None	2481.04915	2482.033243	2483.101333	None	2483.101333	None	None	2483.101333	None	None	None	None	None	0.234621196														105	1	18	0	2019_Dec_05_1118	Test	3.1.2	59.98406794		"
"Pictures/IA50_G40.bmp	Pictures/IA50_G40.bmp	Pictures/IA50.bmp	"""

"It would probably be best to play it safe.""""""""""	0	safe					1	0	1	0	0	3	3	1																															2485.034119	None	2487.056085	2488.535137	2488.551783	None	2490.052186	None	2	2492.06935	None	2492.06935	None	2492.06935	None	None	None	None	None	2494.052845	None	2494.052845	None	left	2494.052845	None	2494.953565	2495.98723	None	None	1.856448632	0.872852379													105	1	18	0	2019_Dec_05_1118	Test	3.1.2	59.98406794		"
"Pictures/IA75_L45.bmp	Pictures/IA75_L45.bmp	Pictures/IA75.bmp	"""

"Don't gamble for this one""	0	safe					1	0	1	0	0	4	4	13																															2496.003901	None	2498.025792	2499.504898	2499.521451	None	2501.021859	None	1	2503.040404	None	2503.040404	None	2503.040404	None	2504.172677	None	2504.172677	2505.156528	2506.239689	None	2506.239689	None	left	2506.239689	None	2507.023723	2508.140698	None	None	1.021123366	0.757661022													105	1	18	0	2019_Dec_05_1118	Test	3.1.2	59.98406794		"
"Pictures/IA75_G60.bmp	Pictures/IA75_G60.bmp	Pictures/IA75.bmp	"""

"Make it exciting""	1	risk					1	0	1	0	0	5	5	10																															2508.157377	None	2510.177359	2511.65836	2511.675037	None	2513.208777	None	2	2515.192566	None	2515.192566	None	2515.192566	None	None	None	None	None	2516.609334	None	2516.609334	None	left	2516.609334	None	2516.909864	2518.543667	None	None	1.276585528	0.275813594													105	1	18	0	2019_Dec_05_1118	Test	3.1.2	59.98406794		"
"Pictures/IA50_L20.bmp	Pictures/IA50_L20.bmp	Pictures/IA50.bmp	"""

"Certainty is boring""	1	risk					1	0	1	0	0	6	6	15																															2518.5603	None	2520.582193	2522.061321	2522.077942	None	2523.578313	None	1	2525.5983	None	2525.5983	None	2525.5983	None	2526.530478	None	2526.530478	2527.529562	2528.612716	None	2528.612716	None	right	2528.612716	None	None	None	2528.929967	2530.513718	0.846491247	0.29608634													105	1	18	0	2019_Dec_05_1118	Test	3.1.2	59.98406794		"
"Pictures/IA20_10_G95p.bmp	Pictures/IA20_10_G95p.bmp	Pictures/IA20.bmp	"""

"Take a leap""	1	risk					1	0	1	0	0	7	7	18																															2530.530414	None	2532.552516	2534.031402	2534.04807	None	2535.581791	None	1	2537.568191	None	2537.568191	None	2537.568191	None	2539.649404	None	2539.649404	2540.633292	2541.699984	None	2541.699984	None	left	2541.699984	None	2542.116982	2543.618078	None	None	1.980294542	0.39248786													105	1	18	0	2019_Dec_05_1118	Test	3.1.2	59.98406794		"
"Pictures/IA40_20_L95p.bmp	Pictures/IA40_20_L95p.bmp	Pictures/IA40.bmp	"""

"Trust me""	1	risk					1	0	1	0	0	8	8	0																															2543.634125	None	2545.655862	2547.135126	2547.151778	None	2548.685573	None	2	2550.686022	None	2550.686022	None	2550.686022	None	None	None	None	None	2551.95553	None	2551.95553	None	right	2551.95553	None	None	None	2552.20321	2553.887066	1.158159949	0.224591345													105	1	18	0	2019_Dec_05_1118	Test	3.1.2	59.98406794		"
"Pictures/IA50_L40.bmp	Pictures/IA50_L40.bmp	Pictures/IA50.bmp	"""

"That gamble doesn't sound too good""	0	safe					1	0	1	0	0	9	9	7																															2553.903742	None	2555.9243	2557.404728	2557.421393	None	2558.921644	None	2	2560.938879	None	2560.938879	None	2560.938879	None	None	None	None	None	2563.322625	None	2563.322625	None	None	2563.322625	None	None	None	None	None	2.25703091														105	1	18	0	2019_Dec_05_1118	Test	3.1.2	59.98406794		"
"Pictures/IA75_L30.bmp	Pictures/IA75_L30.bmp	Pictures/IA75.bmp	"""

"Hold back""	0	safe					1	0	1	0	0	10	10	11																															2565.290308	None	2567.312265	2568.791314	2568.807977	None	2570.30838	None	2	2572.341881	None	2572.341881	None	2572.341881	None	None	None	None	None	2573.375429	None	2573.375429	None	right	2573.375429	None	None	None	2573.509316	2575.309853	0.909696819	0.116057216													105	1	18	0	2019_Dec_05_1118	Test	3.1.2	59.98406794		"
"Pictures/IA40_20_G95p.bmp	Pictures/IA40_20_G95p.bmp	Pictures/IA40.bmp	"""

"Hold back""	0	safe					1	0	1	0	0	11	11	16																															2575.326502	None	2577.345776	2578.827505	2578.844166	None	2580.344428	None	2	2582.361726	None	2582.361726	None	2582.361726	None	None	None	None	None	2583.094911	None	2583.094911	None	left	2583.094911	None	2583.362085	2585.012615	None	None	0.649521258	0.244399748													105	1	18	0	2019_Dec_05_1118	Test	3.1.2	59.98406794		"
"Pictures/IA110_55_G95p.bmp	Pictures/IA110_55_G95p.bmp	Pictures/IA110.bmp	"""

"Take a chance!""""""""""	1	risk					1	0	1	0	0	12	12	14																															2585.029226	None	2587.050793	2588.530269	2588.546899	None	2590.047352	None	1	2592.081147	None	2592.081147	None	2592.081147	None	2592.714299	None	2592.714299	2593.698295	2594.764926	None	2594.764926	None	left	2594.764926	None	2596.365827	None	None	None	0.537777478	1.573999581													105	1	18	0	2019_Dec_05_1118	Test	3.1.2	59.98406794		"
"Pictures/IA100_G60.bmp	Pictures/IA100_G60.bmp	Pictures/IA100.bmp	"""

"Be cautious""	0	safe					1	0	1	0	0	13	13	2																															2596.699255	None	2598.721241	2600.200262	2600.216929	None	2601.750691	None	2	2603.750831	None	2603.750831	None	2603.750831	None	None	None	None	None	2604.717731	None	2604.717731	None	right	2604.717731	None	None	None	2605.018279	2606.652094	0.835786498	0.268879253													105	1	18	0	2019_Dec_05_1118	Test	3.1.2	59.98406794		"
"Pictures/IA75_L15.bmp	Pictures/IA75_L15.bmp	Pictures/IA75.bmp	"""

"Trust me""	1	risk					1	0	1	0	0	14	14	17																															2606.668782	None	2608.690849	2610.169757	2610.186415	None	2611.720175	None	1	2613.705845	None	2613.705845	None	2613.705845	None	2614.85417	None	2614.85417	2615.838055	2616.904529	None	2616.904529	None	right	2616.904529	None	None	None	2617.238445	2618.822197	1.064529864	0.305803934													105	1	18	0	2019_Dec_05_1118	Test	3.1.2	59.98406794		"
"Pictures/IA100_G40.bmp	Pictures/IA100_G40.bmp	Pictures/IA100.bmp	"""

"Try your luck and gamble!""""""""""	1	risk					1	0	1	0	0	15	15	12																															2618.838904	None	2620.860819	2622.339906	2622.356563	None	2623.856949	None	2	2625.89047	None	2625.89047	None	2625.89047	None	None	None	None	None	2626.290746	None	2626.290746	None	right	2626.290746	None	None	None	2627.091203	2628.224917	0.279562853	0.783359386													105	1	18	0	2019_Dec_05_1118	Test	3.1.2	59.98406794		"
"Pictures/IA100_L20.bmp	Pictures/IA100_L20.bmp	Pictures/IA100.bmp	"""

"Try to win as much money as you can""	1	risk					1	0	1	0	0	16	16	9																															2628.241564	None	2630.261449	2631.742577	2631.775896	None	2633.29301	None	None	2635.276914	None	2635.276914	None	2635.276914	None	None	None	None	None	2638.343973	None	2638.343973	None	right	2638.343973	None	None	None	2640.128289	None		1.761758616													105	1	18	0	2019_Dec_05_1118	Test	3.1.2	59.98406794		"
"Pictures/IA50_G30.bmp	Pictures/IA50_G30.bmp	Pictures/IA50.bmp	"""

"I think you should gamble.""""""""""	1	risk					1	0	1	0	0	17	17	6																															2640.295005	None	2642.316576	2643.795991	2643.812602	None	2645.312913	None	1	2647.333871	None	2647.333871	None	2647.333871	None	2648.297081	None	2648.297081	2649.280882	2650.348657	None	2650.348657	None	left	2650.348657	None	2651.5649	None	None	None	0.851662457	1.188733749													105	1	18	0	2019_Dec_05_1118	Test	3.1.2	59.98406794		"
"Pictures/IA25_L20.bmp	Pictures/IA25_L20.bmp	Pictures/IA25.bmp	"""

"Don't be tempted to gamble.""""""""""	0	safe					1	0	1	0	0	18	18	4																															2652.281767	None	2654.303917	2655.78273	2655.799421	None	2657.33317	None	2	2659.316946	None	2659.316946	None	2659.316946	None	None	None	None	None	2661.450622	None	2661.450622	None	right	2661.450622	None	None	None	2661.684371	2663.384935	2.036115737	0.214425892													105	1	18	0	2019_Dec_05_1118	Test	3.1.2	59.98406794		"
"Pictures/IA75_G30.bmp	Pictures/IA75_G30.bmp	Pictures/IA75.bmp	"""

"Be bold""	1	risk					1	0	1	0	0	19	19	8																															2663.401579	None	2665.421825	2666.902585	2666.919225	None	2668.419498	None	1	2670.419755	None	2670.419755	None	2670.419755	None	2672.037154	None	2672.037154	2673.037293	2674.075844	None	2674.075844	None	left	2674.075844	None	2674.437594	2676.021654	None	None	1.564848341	0.3328297													105	1	18	0	2019_Dec_05_1118	Test	3.1.2	59.98406794		"
"										1	0	1	0																																																																									2676.138102	None	return	16.24606242	2676.138102	None	105	1	18	0	2019_Dec_05_1118	Test	3.1.2	59.98406794		"
"Pictures/IA25_L5.bmp	Pictures/IA25_L5.bmp	Pictures/IA25.bmp	"""

"It would be smarter to choose the safe option.""""""""""	0	safe					2	0	2	0	0	0	0	17													2692.480501	None	2692.480501	None	2692.480501	None	left	1.087803883	2692.480501	None	2692.480501	None	2692.480501	None	return	1.967636944	2692.480501	None	2694.510315	None	2696.515172	2697.994416	2698.01104	None	2699.561888	None	2	2701.528989	None	2701.528989	None	2701.528989	None	None	None	None	None	2702.695655	None	2702.695655	None	right	2702.695655	None	None	None	2702.912848	2704.630011	1.023091144	0.192381307													105	1	18	0	2019_Dec_05_1118	Test	3.1.2	59.98406794		"
"Pictures/IA100_L80.bmp	Pictures/IA100_L80.bmp	Pictures/IA100.bmp	"""

"Go all in!""""""""""	1	risk					2	0	2	0	0	1	1	9																															2704.646686	None	2706.668329	2708.147685	2708.164357	None	2709.698097	None	1	2711.698543	None	2711.698543	None	2711.698543	None	2713.332206	None	2713.332206	2714.332775	2715.416189	None	2715.416189	None	right	2715.416189	None	None	None	2716.466719	None	1.565200718	1.031463296													105	1	18	0	2019_Dec_05_1118	Test	3.1.2	59.98406794		"
"Pictures/IA25_L10.bmp	Pictures/IA25_L10.bmp	Pictures/IA25.bmp	"""

"Dont be afraid to take the risk!""""""""""	1	risk					2	0	2	0	0	2	2	6																															2717.333629	None	2719.355898	2720.834604	2720.851217	None	2722.390217	None	2	2724.372152	None	2724.372152	None	2724.372152	None	None	None	None	None	2725.152065	None	2725.152065	None	right	2725.152065	None	None	None	2725.269232	2727.086393	0.651177712	0.087237218													105	1	18	0	2019_Dec_05_1118	Test	3.1.2	59.98406794		"
"Pictures/IA50_G30.bmp	Pictures/IA50_G30.bmp	Pictures/IA50.bmp	"""

"I think you should gamble.""""""""""	1	risk					2	0	2	0	0	3	3	18																															2727.103083	None	2729.122599	2730.604085	2730.620748	None	2732.121159	None	2	2734.138317	None	2734.138317	None	2734.138317	None	None	None	None	None	2734.971519	None	2734.971519	None	right	2734.971519	None	None	None	2735.088664	2736.905873	0.716829399	0.09956141													105	1	18	0	2019_Dec_05_1118	Test	3.1.2	59.98406794		"
"Pictures/IA100_G40.bmp	Pictures/IA100_G40.bmp	Pictures/IA100.bmp	"""

"Try your luck and gamble!""""""""""	1	risk					2	0	2	0	0	4	4	15																															2736.922555	None	2738.944568	2740.423518	2740.440199	None	2741.940515	None	1	2743.974428	None	2743.974428	None	2743.974428	None	2744.774512	None	2744.774512	2745.758395	2746.826393	None	2746.826393	None	None	2746.826393	None	None	None	None	None	0.712450028														105	1	18	0	2019_Dec_05_1118	Test	3.1.2	59.98406794		"
"Pictures/IA75_L60.bmp	Pictures/IA75_L60.bmp	Pictures/IA75.bmp	"""

"Why not take the gamble?""""""""""	1	risk					2	0	2	0	0	5	5	2																															2748.759247	None	2750.781839	2752.260246	2752.276926	None	2753.810546	None	2	2755.79445	None	2755.79445	None	2755.79445	None	None	None	None	None	2756.782376	None	2756.782376	None	right	2756.782376	None	None	None	2757.011614	2758.728727	0.876085668	0.200115261													105	1	18	0	2019_Dec_05_1118	Test	3.1.2	59.98406794		"
"Pictures/IA100_L20.bmp	Pictures/IA100_L20.bmp	Pictures/IA100.bmp	"""

"Try to win as much money as you can""	1	risk					2	0	2	0	0	6	6	19																															2758.745436	None	2760.763241	2762.246405	2762.263102	None	2763.763347	None	1	2765.780649	None	2765.780649	None	2765.780649	None	2766.981996	None	2766.981996	2767.964714	2769.033605	None	2769.033605	None	right	2769.033605	None	None	None	2769.981974	None	1.09758368	0.916604101													105	1	18	0	2019_Dec_05_1118	Test	3.1.2	59.98406794		"
"Pictures/IA100_G60.bmp	Pictures/IA100_G60.bmp	Pictures/IA100.bmp	"""

"Be cautious""	0	safe					2	0	2	0	0	7	7	4																															2770.965593	None	2772.987355	2774.466584	2774.483255	None	2775.983657	None	1	2778.017458	None	2778.017458	None	2778.017458	None	2778.950937	None	2778.950937	2779.934803	2781.002945	None	2781.002945	None	left	2781.002945	None	2782.235457	None	None	None	0.828492938	1.210910515													105	1	18	0	2019_Dec_05_1118	Test	3.1.2	59.98406794		"
"Pictures/IA50_G10.bmp	Pictures/IA50_G10.bmp	Pictures/IA50.bmp	"""

"Go with the safe option here!""""""""""	0	safe					2	0	2	0	0	8	8	1																															2782.935485	None	2784.957622	2786.436659	2786.453315	None	2787.953742	None	1	2789.953882	None	2789.953882	None	2789.953882	None	2791.304442	None	2791.304442	2792.304988	2793.355296	None	2793.355296	None	left	2793.355296	None	2794.172188	2795.272514	None	None	1.259738588	0.786111538													105	1	18	0	2019_Dec_05_1118	Test	3.1.2	59.98406794		"
"Pictures/IA50_L40.bmp	Pictures/IA50_L40.bmp	Pictures/IA50.bmp	"""

"That gamble doesn't sound too good""	0	safe					2	0	2	0	0	9	9	5																															2795.289191	None	2797.310908	2798.79017	2798.806855	None	2800.307236	None	1	2802.324361	None	2802.324361	None	2802.324361	None	2803.657721	None	2803.657721	2804.641836	2805.710662	None	2805.710662	None	left	2805.710662	None	2806.142272	2807.626035	None	None	1.232793063	0.414439141													105	1	18	0	2019_Dec_05_1118	Test	3.1.2	59.98406794		"
"Pictures/IA75_L45.bmp	Pictures/IA75_L45.bmp	Pictures/IA75.bmp	"""

"Don't gamble for this one""	0	safe					2	0	2	0	0	10	10	7																															2807.642661	None	2809.66054	2811.143587	2811.160374	None	2812.660665	None	1	2814.677928	None	2814.677928	None	2814.677928	None	2815.911481	None	2815.911481	2816.895331	2817.964263	None	2817.964263	None	left	2817.964263	None	2818.845837	2819.879481	None	None	1.12701233	0.864504174													105	1	18	0	2019_Dec_05_1118	Test	3.1.2	59.98406794		"
"Pictures/IA100_L60.bmp	Pictures/IA100_L60.bmp	Pictures/IA100.bmp	"""

"You'd have a lot to lose""	0	safe					2	0	2	0	0	11	11	10																															2819.896181	None	2821.917539	2823.397164	2823.41374	None	2824.914264	None	1	2826.914663	None	2826.914663	None	2826.914663	None	2827.948174	None	2827.948174	2828.931894	2829.982309	None	2829.982309	None	None	2829.982309	None	None	None	None	None	0.953826732														105	1	18	0	2019_Dec_05_1118	Test	3.1.2	59.98406794		"
"Pictures/IA25_G10.bmp	Pictures/IA25_G10.bmp	Pictures/IA25.bmp	"""

"What's life without a little risk?""""""""""	1	risk					2	0	2	0	0	12	12	11																															2831.933085	None	2833.936758	2835.433603	2835.433603	None	2836.955704	None	2	2838.940092	None	2838.940092	None	2838.940092	None	None	None	None	None	2839.71881	None	2839.71881	None	right	2839.71881	None	None	None	2840.185009	2841.652049	0.679939863	0.445162227													105	1	18	0	2019_Dec_05_1118	Test	3.1.2	59.98406794		"
"Pictures/IA40_20_L95p.bmp	Pictures/IA40_20_L95p.bmp	Pictures/IA40.bmp	"""

"Trust me""	1	risk					2	0	2	0	0	13	13	12																															2841.668651	None	2843.672711	2845.169915	2845.186632	None	2846.68714	None	1	2848.704251	None	2848.704251	None	2848.704251	None	2849.704427	None	2849.704427	2850.688305	2851.759043	None	2851.759043	None	right	2851.759043	None	None	None	2852.238744	2853.67248	0.915724246	0.46087055													105	1	18	0	2019_Dec_05_1118	Test	3.1.2	59.98406794		"
"Pictures/IA20_10_L95p.bmp	Pictures/IA20_10_L95p.bmp	Pictures/IA20.bmp	"""

"Don't be tempted to gamble.""""""""""	0	safe					2	0	2	0	0	14	14	0																															2853.68914	None	2855.70764	2857.19013	2857.206771	None	2858.707012	None	2	2860.724366	None	2860.724366	None	2860.724366	None	None	None	None	None	2861.979301	None	2861.979301	None	right	2861.979301	None	None	None	2862.675051	2863.925383	1.135293668	0.672348663													105	1	18	0	2019_Dec_05_1118	Test	3.1.2	59.98406794		"
"Pictures/IA100_G80.bmp	Pictures/IA100_G80.bmp	Pictures/IA100.bmp	"""

"Why not gamble?""""""""""	1	risk					2	0	2	0	0	15	15	14																															2863.942082	None	2865.963499	2867.443069	2867.459741	None	2868.99347	None	1	2870.979094	None	2870.979094	None	2870.979094	None	2872.160776	None	2872.160776	2873.144695	2874.227843	None	2874.227843	None	left	2874.227843	None	2874.561755	2876.12887	None	None	1.088320475	0.311354579													105	1	18	0	2019_Dec_05_1118	Test	3.1.2	59.98406794		"
"Pictures/IA80_40_G95p.bmp	Pictures/IA80_40_G95p.bmp	Pictures/IA80.bmp	"""

"Think of the payoff""	1	risk					2	0	2	0	0	16	16	13																															2876.145532	None	2878.166525	2879.646534	2879.663194	None	2881.16363	None	1	2883.197433	None	2883.197433	None	2883.197433	None	2884.150112	None	2884.150112	2885.148112	2886.231284	None	2886.231284	None	left	2886.231284	None	2886.565185	2888.13229	None	None	0.853500231	0.307683384													105	1	18	0	2019_Dec_05_1118	Test	3.1.2	59.98406794		"
"Pictures/IA75_G45.bmp	Pictures/IA75_G45.bmp	Pictures/IA75.bmp	"""

"Don't gamble for this one.""""""""""	0	safe					2	0	2	0	0	17	17	3																															2888.14897	None	2890.170035	2891.649965	2891.666645	None	2893.200383	None	1	2895.187562	None	2895.187562	None	2895.187562	None	2896.150977	None	2896.150977	2897.151529	2898.234746	None	2898.234746	None	right	2898.234746	None	None	None	2898.885322	2900.135712	0.871173221	0.6318887													105	1	18	0	2019_Dec_05_1118	Test	3.1.2	59.98406794		"
"Pictures/IA110_55_L95p.bmp	Pictures/IA110_55_L95p.bmp	Pictures/IA110.bmp	"""

"Trust me""	1	risk					2	0	2	0	0	18	18	8																															2900.152388	None	2902.17314	2903.653385	2903.670025	None	2905.170308	None	2	2907.187537	None	2907.187537	None	2907.187537	None	None	None	None	None	2908.571011	None	2908.571011	None	right	2908.571011	None	None	None	2908.854811	2910.505351	1.270819662	0.2552373													105	1	18	0	2019_Dec_05_1118	Test	3.1.2	59.98406794		"
"Pictures/IA75_L15.bmp	Pictures/IA75_L15.bmp	Pictures/IA75.bmp	"""

"Trust me""	1	risk					2	0	2	0	0	19	19	16																															2910.52197	None	2912.543476	2914.02301	2914.039667	None	2915.540086	None	1	2917.57388	None	2917.57388	None	2917.57388	None	2918.774179	None	2918.774179	2919.741312	2920.824707	None	2920.824707	None	right	2920.824707	None	None	None	2921.241742	2922.725464	1.124219747	0.393378911													105	1	18	0	2019_Dec_05_1118	Test	3.1.2	59.98406794		"
"										2	0	2	0																																																																									2922.841713	None	return	7.592095859	2922.841713	None	105	1	18	0	2019_Dec_05_1118	Test	3.1.2	59.98406794		"
"Pictures/IA25_G15.bmp	Pictures/IA25_G15.bmp	Pictures/IA25.bmp	"""

"I think you should take a gamble.""""""""""	1	risk					3	0	3	0	0	0	0	5													2930.547923	None	2930.547923	None	2930.547923	None	left	1.549806519	2930.547923	None	2930.547923	None	2930.547923	None	return	6.053559199	2930.547923	None	2936.662613	None	2938.662879	2940.147117	2940.163784	None	2941.6642	None	1	2943.681281	None	2943.681281	None	2943.681281	None	2944.848169	None	2944.848169	2945.848725	2946.916753	None	2946.916753	None	right	2946.916753	None	None	None	2947.315792	2948.832926	1.072149988	0.380555232													105	1	18	0	2019_Dec_05_1118	Test	3.1.2	59.98406794		"
"Pictures/IA25_L15.bmp	Pictures/IA25_L15.bmp	Pictures/IA25.bmp	"""

"There's not much on the line here""	1	risk					3	0	3	0	0	1	1	13																															2948.84961	None	2950.867909	2952.350589	2952.367279	None	2953.867565	None	1	2955.884856	None	2955.884856	None	2955.884856	None	2956.85136	None	2956.85136	2957.835459	2958.918907	None	2958.918907	None	right	2958.918907	None	None	None	2959.302547	2960.819673	0.860188561	0.362074853													105	1	18	0	2019_Dec_05_1118	Test	3.1.2	59.98406794		"
"Pictures/IA75_G15.bmp	Pictures/IA75_G15.bmp	Pictures/IA75.bmp	"""

"Take a chance!""""""""""	1	risk					3	0	3	0	0	2	2	0																															2960.836338	None	2962.858049	2964.337329	2964.353954	None	2965.854285	None	1	2967.875154	None	2967.875154	None	2967.875154	None	2969.138501	None	2969.138501	2970.122329	2971.189007	None	2971.189007	None	left	2971.189007	None	2971.706111	2973.106478	None	None	1.173532377	0.499560539													105	1	18	0	2019_Dec_05_1118	Test	3.1.2	59.98406794		"
"Pictures/IA50_G40.bmp	Pictures/IA50_G40.bmp	Pictures/IA50.bmp	"""

"It would probably be best to play it safe.""""""""""	0	safe					3	0	3	0	0	3	3	16																															2973.123186	None	2975.144205	2976.624149	2976.640854	None	2978.14126	None	1	2980.158342	None	2980.158342	None	2980.158342	None	2981.958819	None	2981.958819	2982.942659	2984.025809	None	2984.025809	None	left	2984.025809	None	2984.359705	2985.926742	None	None	1.690060218	0.302504088													105	1	18	0	2019_Dec_05_1118	Test	3.1.2	59.98406794		"
"Pictures/IA75_L30.bmp	Pictures/IA75_L30.bmp	Pictures/IA75.bmp	"""

"Hold back""	0	safe					3	0	3	0	0	4	4	3																															2985.943496	None	2987.964689	2989.444496	2989.461157	None	2990.961576	None	2	2992.99535	None	2992.99535	None	2992.99535	None	None	None	None	None	2993.511879	None	2993.511879	None	right	2993.511879	None	None	None	2994.695937	None	0.388732691	1.160136124													105	1	18	0	2019_Dec_05_1118	Test	3.1.2	59.98406794		"
"Pictures/IA80_40_L95p.bmp	Pictures/IA80_40_L95p.bmp	Pictures/IA80.bmp	"""

"Let's stay with the certain option.""""""""""	0	safe					3	0	3	0	0	5	5	6																															2995.462882	None	2997.48235	2998.963585	2998.980549	None	3000.514283	None	2	3002.498075	None	3002.498075	None	3002.498075	None	None	None	None	None	3003.231277	None	3003.231277	None	right	3003.231277	None	None	None	3003.498496	3005.165643	0.605740301	0.248491433													105	1	18	0	2019_Dec_05_1118	Test	3.1.2	59.98406794		"
"Pictures/IA20_10_G95p.bmp	Pictures/IA20_10_G95p.bmp	Pictures/IA20.bmp	"""

"Take a leap""	1	risk					3	0	3	0	0	6	6	10																															3005.182325	None	3007.202895	3008.683299	3008.699973	None	3010.200241	None	1	3012.217492	None	3012.217492	None	3012.217492	None	3013.287338	None	3013.287338	3014.284916	3015.351727	None	3015.351727	None	left	3015.351727	None	3015.852019	3017.269112	None	None	0.982010088	0.479662253													105	1	18	0	2019_Dec_05_1118	Test	3.1.2	59.98406794		"
"Pictures/IA50_L20.bmp	Pictures/IA50_L20.bmp	Pictures/IA50.bmp	"""

"Certainty is boring""	1	risk					3	0	3	0	0	7	7	2																															3017.285722	None	3019.306465	3020.78675	3020.803344	None	3022.303841	None	1	3024.33763	None	3024.33763	None	3024.33763	None	3025.571175	None	3025.571175	3026.571732	3027.65502	None	3027.65502	None	left	3027.65502	None	3028.722355	None	None	None	1.149493889	1.040020813													105	1	18	0	2019_Dec_05_1118	Test	3.1.2	59.98406794		"
"Pictures/IA100_L20.bmp	Pictures/IA100_L20.bmp	Pictures/IA100.bmp	"""

"Try to win as much money as you can""	1	risk					3	0	3	0	0	8	8	9																															3029.572597	None	3031.59127	3033.073612	3033.090246	None	3034.590511	None	2	3036.607817	None	3036.607817	None	3036.607817	None	None	None	None	None	3037.491056	None	3037.491056	None	right	3037.491056	None	None	None	3037.741589	3039.425361	0.758956701	0.21966117													105	1	18	0	2019_Dec_05_1118	Test	3.1.2	59.98406794		"
"Pictures/IA110_55_L95p.bmp	Pictures/IA110_55_L95p.bmp	Pictures/IA110.bmp	"""

"Trust me""	1	risk					3	0	3	0	0	9	9	14																															3039.442092	None	3041.46173	3042.943089	3042.95975	None	3044.45999	None	1	3046.477279	None	3046.477279	None	3046.477279	None	3046.863845	None	3046.863845	3047.861134	3048.944318	None	3048.944318	None	right	3048.944318	None	None	None	3049.394897	3050.845336	0.305331505	0.422134219													105	1	18	0	2019_Dec_05_1118	Test	3.1.2	59.98406794		"
"Pictures/IA50_L10.bmp	Pictures/IA50_L10.bmp	Pictures/IA50.bmp	"""

"Play it safe""	0	safe					3	0	3	0	0	10	10	1																															3050.861989	None	3052.883624	3054.362997	3054.379536	None	3055.880064	None	1	3057.913857	None	3057.913857	None	3057.913857	None	3059.266841	None	3059.266841	3060.264685	3061.334385	None	3061.334385	None	left	3061.334385	None	3061.815065	3063.248861	None	None	1.268216796	0.455786735													105	1	18	0	2019_Dec_05_1118	Test	3.1.2	59.98406794		"
"Pictures/IA100_G40.bmp	Pictures/IA100_G40.bmp	Pictures/IA100.bmp	"""

"Try your luck and gamble!""""""""""	1	risk					3	0	3	0	0	11	11	15																															3063.265436	None	3065.284208	3066.766536	3066.783173	None	3068.283529	None	2	3070.30076	None	3070.30076	None	3070.30076	None	None	None	None	None	3071.168471	None	3071.168471	None	left	3071.168471	None	3072.268105	None	None	None	0.761152763	1.077406726													105	1	18	0	2019_Dec_05_1118	Test	3.1.2	59.98406794		"
"Pictures/IA20_10_L95p.bmp	Pictures/IA20_10_L95p.bmp	Pictures/IA20.bmp	"""

"Don't be tempted to gamble.""""""""""	0	safe					3	0	3	0	0	12	12	18																															3073.135008	None	3075.153378	3076.636008	3076.652682	None	3078.152973	None	2	3080.170204	None	3080.170204	None	3080.170204	None	None	None	None	None	3081.073617	None	3081.073617	None	right	3081.073617	None	None	None	3081.587326	3083.021169	0.78730987	0.49200324													105	1	18	0	2019_Dec_05_1118	Test	3.1.2	59.98406794		"
"Pictures/IA40_20_L95p.bmp	Pictures/IA40_20_L95p.bmp	Pictures/IA40.bmp	"""

"Trust me""	1	risk					3	0	3	0	0	13	13	11																															3083.037827	None	3085.058396	3086.538812	3086.555478	None	3088.055901	None	1	3090.073031	None	3090.073031	None	3090.073031	None	3090.973129	None	3090.973129	3091.957039	3093.026051	None	3093.026051	None	right	3093.026051	None	None	None	3093.307398	3094.94122	0.812339556	0.259240034													105	1	18	0	2019_Dec_05_1118	Test	3.1.2	59.98406794		"
"Pictures/IA100_L40.bmp	Pictures/IA100_L40.bmp	Pictures/IA100.bmp	"""

"Think of the payoff""	1	risk					3	0	3	0	0	14	14	19																															3094.957902	None	3096.978703	3098.458877	3098.475519	None	3099.975973	None	2	3102.009768	None	3102.009768	None	3102.009768	None	None	None	None	None	3103.276709	None	3103.276709	None	right	3103.276709	None	None	None	3103.643672	3105.194152	1.131257655	0.344261597													105	1	18	0	2019_Dec_05_1118	Test	3.1.2	59.98406794		"
"Pictures/IA50_G10.bmp	Pictures/IA50_G10.bmp	Pictures/IA50.bmp	"""

"Go with the safe option here!""""""""""	0	safe					3	0	3	0	0	15	15	7																															3105.210817	None	3107.231854	3108.711817	3108.72848	None	3110.228877	None	2	3112.245997	None	3112.245997	None	3112.245997	None	None	None	None	None	3113.045892	None	3113.045892	None	left	3113.045892	None	3113.279768	3114.980278	None	None	0.678754904	0.214850425													105	1	18	0	2019_Dec_05_1118	Test	3.1.2	59.98406794		"
"Pictures/IA25_G20.bmp	Pictures/IA25_G20.bmp	Pictures/IA25.bmp	"""

"I wouldn't gamble for this one. """"""""""	0	safe					3	0	3	0	0	16	16	12																															3114.99695	None	3117.018229	3118.497929	3118.514512	None	3120.048372	None	2	3122.048838	None	3122.048838	None	3122.048838	None	None	None	None	None	3123.152087	None	3123.152087	None	right	3123.152087	None	None	None	3123.382653	3125.09983	0.995577709	0.212441009													105	1	18	0	2019_Dec_05_1118	Test	3.1.2	59.98406794		"
"Pictures/IA75_L15.bmp	Pictures/IA75_L15.bmp	Pictures/IA75.bmp	"""

"Trust me""	1	risk					3	0	3	0	0	17	17	17																															3125.116477	None	3127.137057	3128.617498	3128.634154	None	3130.134404	None	2	3132.152809	None	3132.152809	None	3132.152809	None	None	None	None	None	3132.518122	None	3132.518122	None	right	3132.518122	None	None	None	3132.685305	3134.452483	0.2434269	0.150008926													105	1	18	0	2019_Dec_05_1118	Test	3.1.2	59.98406794		"
"Pictures/IA50_L40.bmp	Pictures/IA50_L40.bmp	Pictures/IA50.bmp	"""

"That gamble doesn't sound too good""	0	safe					3	0	3	0	0	18	18	8																															3134.46911	None	3136.490036	3137.970164	3137.986855	None	3139.48723	None	1	3141.521038	None	3141.521038	None	3141.521038	None	3142.671239	None	3142.671239	3143.655103	3144.738491	None	3144.738491	None	left	3144.738491	None	3146.022394	None	None	None	1.050860541	1.265352057													105	1	18	0	2019_Dec_05_1118	Test	3.1.2	59.98406794		"
"Pictures/IA100_L80.bmp	Pictures/IA100_L80.bmp	Pictures/IA100.bmp	"""

"Go all in!""""""""""	1	risk					3	0	3	0	0	19	19	4																															3146.65596	None	3148.676599	3150.156977	3150.173568	None	3151.673872	None	1	3153.691646	None	3153.691646	None	3153.691646	None	3155.274765	None	3155.274765	3156.275374	3157.358542	None	3157.358542	None	left	3157.358542	None	3159.192812	None	None	None	1.503861224	1.804824555													105	1	18	0	2019_Dec_05_1118	Test	3.1.2	59.98406794		"
"										3	0	3	0																																																																									3159.375789	None	return	6.035586704	3159.375789	None	105	1	18	0	2019_Dec_05_1118	Test	3.1.2	59.98406794		"
"Pictures/IA75_L15.bmp	Pictures/IA75_L15.bmp	Pictures/IA75.bmp	"""

"Trust me""	1	risk					4	0	4	0	0	0	0	19													3165.511056	None	3165.511056	None	3165.511056	None	left	1.300142879	3165.511056	None	3165.511056	None	3165.511056	None	return	2.284250437	3165.511056	None	3167.848997	None	3169.848757	3171.329626	3171.346309	None	3172.846716	None	1	3174.880236	None	3174.880236	None	3174.880236	None	3176.333226	None	3176.333226	3177.331346	3178.397829	None	3178.397829	None	right	3178.397829	None	None	None	3178.748373	3180.315536	1.354664352	0.325160436													105	1	18	0	2019_Dec_05_1118	Test	3.1.2	59.98406794		"
"Pictures/IA50_G20.bmp	Pictures/IA50_G20.bmp	Pictures/IA50.bmp	"""

"Let's venture and take a risk!""""""""""	1	risk					4	0	4	0	0	1	1	11																															3180.332226	None	3182.353183	3183.833219	3183.849871	None	3185.3503	None	1	3187.383789	None	3187.383789	None	3187.383789	None	3188.937462	None	3188.937462	3189.934946	3191.018123	None	3191.018123	None	left	3191.018123	None	3191.468636	3192.919134	None	None	1.466815248	0.424439446													105	1	18	0	2019_Dec_05_1118	Test	3.1.2	59.98406794		"
"Pictures/IA100_L60.bmp	Pictures/IA100_L60.bmp	Pictures/IA100.bmp	"""

"You'd have a lot to lose""	0	safe					4	0	4	0	0	2	2	10																															3192.935793	None	3194.956406	3196.436811	3196.453439	None	3197.953886	None	1	3199.987662	None	3199.987662	None	3199.987662	None	3201.621318	None	3201.621318	3202.605226	3203.6884	None	3203.6884	None	right	3203.6884	None	None	None	3204.805858	None	1.534668283	1.097830624													105	1	18	0	2019_Dec_05_1118	Test	3.1.2	59.98406794		"
"Pictures/IA25_G10.bmp	Pictures/IA25_G10.bmp	Pictures/IA25.bmp	"""

"What's life without a little risk?""""""""""	1	risk					4	0	4	0	0	3	3	3																															3205.6061	None	3207.625391	3209.107015	3209.123727	None	3210.623978	None	1	3212.641141	None	3212.641141	None	3212.641141	None	3213.85831	None	3213.85831	3214.842052	3215.925444	None	3215.925444	None	left	3215.925444	None	3217.476142	None	None	None	1.104688455	1.524355721													105	1	18	0	2019_Dec_05_1118	Test	3.1.2	59.98406794		"
"Pictures/IA25_L15.bmp	Pictures/IA25_L15.bmp	Pictures/IA25.bmp	"""

"There's not much on the line here""	1	risk					4	0	4	0	0	4	4	17																															3217.842919	None	3219.864471	3221.34391	3221.360569	None	3222.860799	None	2	3224.877981	None	3224.877981	None	3224.877981	None	None	None	None	None	3225.828084	None	3225.828084	None	right	3225.828084	None	None	None	3226.495375	3227.762404	0.835472376	0.64554185													105	1	18	0	2019_Dec_05_1118	Test	3.1.2	59.98406794		"
"Pictures/IA80_40_L95p.bmp	Pictures/IA80_40_L95p.bmp	Pictures/IA80.bmp	"""

"Let's stay with the certain option.""""""""""	0	safe					4	0	4	0	0	5	5	1																															3227.779073	None	3229.797838	3231.280068	3231.296689	None	3232.796981	None	2	3234.814265	None	3234.814265	None	3234.814265	None	None	None	None	None	3235.380775	None	3235.380775	None	right	3235.380775	None	None	None	3236.281501	3237.31508	0.435848639	0.868586528													105	1	18	0	2019_Dec_05_1118	Test	3.1.2	59.98406794		"
"Pictures/IA110_55_G95p.bmp	Pictures/IA110_55_G95p.bmp	Pictures/IA110.bmp	"""

"Take a chance!""""""""""	1	risk					4	0	4	0	0	6	6	0																															3237.331788	None	3239.352844	3240.832783	3240.849454	None	3242.349868	None	2	3244.383363	None	3244.383363	None	3244.383363	None	None	None	None	None	3245.216864	None	3245.216864	None	left	3245.216864	None	3246.017597	3247.151268	None	None	0.729754157	0.784444509													105	1	18	0	2019_Dec_05_1118	Test	3.1.2	59.98406794		"
"Pictures/IA20_10_G95p.bmp	Pictures/IA20_10_G95p.bmp	Pictures/IA20.bmp	"""

"Take a leap""	1	risk					4	0	4	0	0	7	7	7																															3247.167931	None	3249.18913	3250.668937	3250.685592	None	3252.185973	None	2	3254.219503	None	3254.219503	None	3254.219503	None	None	None	None	None	3255.4198	None	3255.4198	None	left	3255.4198	None	3256.187164	3257.354138	None	None	1.069337499	0.749090754													105	1	18	0	2019_Dec_05_1118	Test	3.1.2	59.98406794		"
"Pictures/IA50_L10.bmp	Pictures/IA50_L10.bmp	Pictures/IA50.bmp	"""

"Play it safe""	0	safe					4	0	4	0	0	8	8	15																															3257.370849	None	3259.391458	3260.871791	3260.97134	None	3262.388898	None	2	3264.422713	None	3264.422713	None	3264.422713	None	None	None	None	None	3266.756349	None	3266.756349	None	left	3266.756349	None	3267.673716	3268.690738	None	None	2.21769868	0.892193331													105	1	18	0	2019_Dec_05_1118	Test	3.1.2	59.98406794		"
"Pictures/IA75_L60.bmp	Pictures/IA75_L60.bmp	Pictures/IA75.bmp	"""

"Why not take the gamble?""""""""""	1	risk					4	0	4	0	0	9	9	12																															3268.707449	None	3270.728752	3272.208398	3272.224984	None	3273.725467	None	1	3275.75927	None	3275.75927	None	3275.75927	None	3276.642481	None	3276.642481	3277.643244	3278.709764	None	3278.709764	None	right	3278.709764	None	None	None	3279.877193	None	0.793016333	1.146402422													105	1	18	0	2019_Dec_05_1118	Test	3.1.2	59.98406794		"
"Pictures/IA110_55_L95p.bmp	Pictures/IA110_55_L95p.bmp	Pictures/IA110.bmp	"""

"Trust me""	1	risk					4	0	4	0	0	10	10	14																															3280.644135	None	3282.665148	3284.145158	3284.16181	None	3285.662205	None	1	3287.679331	None	3287.679331	None	3287.679331	None	3288.546144	None	3288.546144	3289.529927	3290.596455	None	3290.596455	None	right	3290.596455	None	None	None	3291.73059	None	0.776595169	1.107354457													105	1	18	0	2019_Dec_05_1118	Test	3.1.2	59.98406794		"
"Pictures/IA100_L80.bmp	Pictures/IA100_L80.bmp	Pictures/IA100.bmp	"""

"Go all in!""""""""""	1	risk					4	0	4	0	0	11	11	13																															3292.530855	None	3294.551451	3296.031813	3296.048439	None	3297.548875	None	1	3299.582733	None	3299.582733	None	3299.582733	None	3302.150009	None	3302.150009	3303.150538	3304.219174	None	3304.219174	None	None	3304.219174	None	None	None	None	None	2.488843972														105	1	18	0	2019_Dec_05_1118	Test	3.1.2	59.98406794		"
"Pictures/IA50_L20.bmp	Pictures/IA50_L20.bmp	Pictures/IA50.bmp	"""

"Certainty is boring""	1	risk					4	0	4	0	0	12	12	5																															3306.151406	None	3308.172803	3309.652391	3309.669071	None	3311.169475	None	2	3313.203293	None	3313.203293	None	3313.203293	None	None	None	None	None	3314.33656	None	3314.33656	None	right	3314.33656	None	None	None	3314.553769	3316.27095	1.011922053	0.190605735													105	1	18	0	2019_Dec_05_1118	Test	3.1.2	59.98406794		"
"Pictures/IA25_G20.bmp	Pictures/IA25_G20.bmp	Pictures/IA25.bmp	"""

"I wouldn't gamble for this one. """"""""""	0	safe					4	0	4	0	0	13	13	18																															3316.287627	None	3318.309106	3319.788616	3319.805158	None	3321.305688	None	1	3323.339493	None	3323.339493	None	3323.339493	None	3323.88954	None	3323.88954	3324.890076	3325.957223	None	3325.957223	None	right	3325.957223	None	None	None	3326.290434	3327.874258	0.459497117	0.305624479													105	1	18	0	2019_Dec_05_1118	Test	3.1.2	59.98406794		"
"Pictures/IA40_20_L95p.bmp	Pictures/IA40_20_L95p.bmp	Pictures/IA40.bmp	"""

"Trust me""	1	risk					4	0	4	0	0	14	14	9																															3327.89093	None	3329.912461	3331.391921	3331.408521	None	3332.909035	None	2	3334.926111	None	3334.926111	None	3334.926111	None	None	None	None	None	3335.761001	None	3335.761001	None	right	3335.761001	None	None	None	3336.009854	3337.710401	0.72040729	0.229576258													105	1	18	0	2019_Dec_05_1118	Test	3.1.2	59.98406794		"
"Pictures/IA20_10_L95p.bmp	Pictures/IA20_10_L95p.bmp	Pictures/IA20.bmp	"""

"Don't be tempted to gamble.""""""""""	0	safe					4	0	4	0	0	15	15	16																															3337.72703	None	3339.745027	3341.228065	3341.244705	None	3342.744833	None	2	3344.762307	None	3344.762307	None	3344.762307	None	None	None	None	None	3345.112479	None	3345.112479	None	right	3345.112479	None	None	None	3345.479213	3347.046379	0.228073444	0.341903809													105	1	18	0	2019_Dec_05_1118	Test	3.1.2	59.98406794		"
"Pictures/IA50_L30.bmp	Pictures/IA50_L30.bmp	Pictures/IA50.bmp	"""

"Take a leap""	1	risk					4	0	4	0	0	16	16	2																															3347.06309	None	3349.084018	3350.56406	3350.580725	None	3352.081138	None	1	3354.09825	None	3354.09825	None	3354.09825	None	3354.468464	None	3354.468464	3355.465464	3356.531919	None	3356.531919	None	left	3356.531919	None	3357.616038	None	None	None	0.275837231	1.058068884													105	1	18	0	2019_Dec_05_1118	Test	3.1.2	59.98406794		"
"Pictures/IA50_G10.bmp	Pictures/IA50_G10.bmp	Pictures/IA50.bmp	"""

"Go with the safe option here!""""""""""	0	safe					4	0	4	0	0	17	17	4																															3358.466316	None	3360.48736	3361.9673	3361.983978	None	3363.484368	None	1	3365.502371	None	3365.502371	None	3365.502371	None	3368.085489	None	3368.085489	3369.06933	3370.152479	None	3370.152479	None	right	3370.152479	None	None	None	3371.636731	None	2.479379231	1.461092302													105	1	18	0	2019_Dec_05_1118	Test	3.1.2	59.98406794		"
"Pictures/IA25_L5.bmp	Pictures/IA25_L5.bmp	Pictures/IA25.bmp	"""

"It would be smarter to choose the safe option.""""""""""	0	safe					4	0	4	0	0	18	18	8																															3372.07018	None	3374.090154	3375.571166	3375.587838	None	3377.088102	None	1	3379.10533	None	3379.10533	None	3379.10533	None	3380.858066	None	3380.858066	3381.856262	3382.92434	None	3382.92434	None	left	3382.92434	None	3383.40673	3384.840482	None	None	1.652058811	0.457001862													105	1	18	0	2019_Dec_05_1118	Test	3.1.2	59.98406794		"
"Pictures/IA100_G80.bmp	Pictures/IA100_G80.bmp	Pictures/IA100.bmp	"""

"Why not gamble?""""""""""	1	risk					4	0	4	0	0	19	19	6																															3384.857157	None	3386.87554	3388.358193	3388.374847	None	3389.875096	None	2	3391.892103	None	3391.892103	None	3391.892103	None	None	None	None	None	3393.225732	None	3393.225732	None	left	3393.225732	None	3394.943381	None	None	None	1.224966426	1.691216564													105	1	18	0	2019_Dec_05_1118	Test	3.1.2	59.98406794		"
"										4	0	4	0																																																																									3395.280349	None	return	12.62832138	3395.280349	None	105	1	18	0	2019_Dec_05_1118	Test	3.1.2	59.98406794		"
"Pictures/IA25_L15.bmp	Pictures/IA25_L15.bmp	Pictures/IA25.bmp	"""

"There's not much on the line here""	1	risk					5	0	5	0	0	0	0	10													3408.015654	None	3408.015654	None	3408.015654	None	left	5.540859303	3408.015654	None	3408.015654	None	3408.015654	None	return	6.124833064	3408.015654	None	3414.202071	None	3416.202994	3417.683187	3417.699845	None	3419.200261	None	1	3421.219767	None	3421.219767	None	3421.219767	None	3422.717659	None	3422.717659	3423.701528	3424.772672	None	3424.772672	None	left	3424.772672	None	3425.985497	None	None	None	1.39246951	1.183367223													105	1	18	0	2019_Dec_05_1118	Test	3.1.2	59.98406794		"
"Pictures/IA100_L20.bmp	Pictures/IA100_L20.bmp	Pictures/IA100.bmp	"""

"Try to win as much money as you can""	1	risk					5	0	5	0	0	1	1	17																															3426.702379	None	3428.720963	3430.203436	3430.220076	None	3431.720294	None	1	3433.737638	None	3433.737638	None	3433.737638	None	3434.858303	None	3434.858303	3435.855018	3436.92293	None	3436.92293	None	right	3436.92293	None	None	None	3437.35548	3438.839209	1.034144538	0.400877429													105	1	18	0	2019_Dec_05_1118	Test	3.1.2	59.98406794		"
"Pictures/IA100_L40.bmp	Pictures/IA100_L40.bmp	Pictures/IA100.bmp	"""

"Think of the payoff""	1	risk					5	0	5	0	0	2	2	3																															3438.855878	None	3440.874064	3442.356885	3442.373563	None	3443.873886	None	2	3445.891085	None	3445.891085	None	3445.891085	None	None	None	None	None	3446.424415	None	3446.424415	None	right	3446.424415	None	None	None	3446.658065	3448.358457	0.432425321	0.211198202													105	1	18	0	2019_Dec_05_1118	Test	3.1.2	59.98406794		"
"Pictures/IA50_G10.bmp	Pictures/IA50_G10.bmp	Pictures/IA50.bmp	"""

"Go with the safe option here!""""""""""	0	safe					5	0	5	0	0	3	3	14																															3448.375221	None	3450.39269	3451.876272	3451.892857	None	3453.393318	None	2	3455.42707	None	3455.42707	None	3455.42707	None	None	None	None	None	3457.164562	None	3457.164562	None	left	3457.164562	None	3457.42785	3459.111644	None	None	1.624231254	0.24687541													105	1	18	0	2019_Dec_05_1118	Test	3.1.2	59.98406794		"
"Pictures/IA50_L20.bmp	Pictures/IA50_L20.bmp	Pictures/IA50.bmp	"""

"Certainty is boring""	1	risk					5	0	5	0	0	4	4	11																															3459.128299	None	3461.1486	3462.629327	3462.645999	None	3464.146376	None	2	3466.163523	None	3466.163523	None	3466.163523	None	None	None	None	None	3466.696664	None	3466.696664	None	left	3466.696664	None	3466.980464	3468.631028	None	None	0.415536394	0.258381017													105	1	18	0	2019_Dec_05_1118	Test	3.1.2	59.98406794		"
"Pictures/IA25_G15.bmp	Pictures/IA25_G15.bmp	Pictures/IA25.bmp	"""

"I think you should take a gamble.""""""""""	1	risk					5	0	5	0	0	5	5	12																															3468.647701	None	3470.668533	3472.148681	3472.165349	None	3473.665778	None	2	3475.682891	None	3475.682891	None	3475.682891	None	None	None	None	None	3476.118311	None	3476.118311	None	left	3476.118311	None	3476.349786	3478.067047	None	None	0.327897037	0.212423592													105	1	18	0	2019_Dec_05_1118	Test	3.1.2	59.98406794		"
"Pictures/IA100_G80.bmp	Pictures/IA100_G80.bmp	Pictures/IA100.bmp	"""

"Why not gamble?""""""""""	1	risk					5	0	5	0	0	6	6	13																															3478.083724	None	3480.105085	3481.584726	3481.601332	None	3483.101639	None	2	3485.120974	None	3485.120974	None	3485.120974	None	None	None	None	None	3486.105547	None	3486.105547	None	left	3486.105547	None	3486.352743	3488.036561	None	None	0.873576417	0.224945277													105	1	18	0	2019_Dec_05_1118	Test	3.1.2	59.98406794		"
"Pictures/IA25_G5.bmp	Pictures/IA25_G5.bmp	Pictures/IA25.bmp	"""

"Let's stay with the certain option.""""""""""	0	safe					5	0	5	0	0	7	7	15																															3488.053238	None	3490.071353	3491.554208	3491.570899	None	3493.071211	None	2	3495.088433	None	3495.088433	None	3495.088433	None	None	None	None	None	3496.421799	None	3496.421799	None	right	3496.421799	None	None	None	3497.355879	3498.356166	1.201774514	0.916261054													105	1	18	0	2019_Dec_05_1118	Test	3.1.2	59.98406794		"
"Pictures/IA80_40_L95p.bmp	Pictures/IA80_40_L95p.bmp	Pictures/IA80.bmp	"""

"Let's stay with the certain option.""""""""""	0	safe					5	0	5	0	0	8	8	0																															3498.372824	None	3500.390652	3501.873816	3501.890446	None	3503.390598	None	1	3505.408034	None	3505.408034	None	3505.408034	None	3506.024517	None	3506.024517	3506.991912	3508.058642	None	3508.058642	None	None	3508.058642	None	None	None	None	None	0.545911395														105	1	18	0	2019_Dec_05_1118	Test	3.1.2	59.98406794		"
"Pictures/IA20_10_L95p.bmp	Pictures/IA20_10_L95p.bmp	Pictures/IA20.bmp	"""

"Don't be tempted to gamble.""""""""""	0	safe					5	0	5	0	0	9	9	8																															3509.99283	None	3512.013714	3513.493811	3513.510426	None	3515.010887	None	2	3517.044386	None	3517.044386	None	3517.044386	None	None	None	None	None	3517.427748	None	3517.427748	None	right	3517.427748	None	None	None	3518.011758	3519.362134	0.25314605	0.565977939													105	1	18	0	2019_Dec_05_1118	Test	3.1.2	59.98406794		"
"Pictures/IA75_G45.bmp	Pictures/IA75_G45.bmp	Pictures/IA75.bmp	"""

"Don't gamble for this one.""""""""""	0	safe					5	0	5	0	0	10	10	7																															3519.37885	None	3521.400027	3522.879792	3522.896485	None	3524.396859	None	1	3526.414011	None	3526.414011	None	3526.414011	None	3527.664228	None	3527.664228	3528.648126	3529.714834	None	3529.714834	None	left	3529.714834	None	3529.96518	3531.632319	None	None	1.163348886	0.230422212													105	1	18	0	2019_Dec_05_1118	Test	3.1.2	59.98406794		"
"Pictures/IA20_10_G95p.bmp	Pictures/IA20_10_G95p.bmp	Pictures/IA20.bmp	"""

"Take a leap""	1	risk					5	0	5	0	0	11	11	16																															3531.648986	None	3533.670356	3535.149974	3535.166585	None	3536.667059	None	2	3538.684042	None	3538.684042	None	3538.684042	None	None	None	None	None	3539.684132	None	3539.684132	None	left	3539.684132	None	3539.784551	3541.61848	None	None	0.868977471	0.07695669													105	1	18	0	2019_Dec_05_1118	Test	3.1.2	59.98406794		"
"Pictures/IA75_L15.bmp	Pictures/IA75_L15.bmp	Pictures/IA75.bmp	"""

"Trust me""	1	risk					5	0	5	0	0	12	12	4																															3541.63516	None	3543.656623	3545.13615	3545.152711	None	3546.653236	None	2	3548.670326	None	3548.670326	None	3548.670326	None	None	None	None	None	3549.136836	None	3549.136836	None	right	3549.136836	None	None	None	3549.370696	3551.071157	0.346400431	0.215850331													105	1	18	0	2019_Dec_05_1118	Test	3.1.2	59.98406794		"
"Pictures/IA75_L60.bmp	Pictures/IA75_L60.bmp	Pictures/IA75.bmp	"""

"Why not take the gamble?""""""""""	1	risk					5	0	5	0	0	13	13	6																															3551.087863	None	3553.108936	3554.589123	3554.605519	None	3556.105935	None	2	3558.122983	None	3558.122983	None	3558.122983	None	None	None	None	None	3559.008642	None	3559.008642	None	right	3559.008642	None	None	None	3559.090143	3560.958954	0.781507927	0.063737092													105	1	18	0	2019_Dec_05_1118	Test	3.1.2	59.98406794		"
"Pictures/IA80_40_G95p.bmp	Pictures/IA80_40_G95p.bmp	Pictures/IA80.bmp	"""

"Think of the payoff""	1	risk					5	0	5	0	0	14	14	9																															3560.974014	None	3562.994599	3564.475006	3564.491659	None	3565.991925	None	2	3568.010146	None	3568.010146	None	3568.010146	None	None	None	None	None	3568.344852	None	3568.344852	None	left	3568.344852	None	3568.509433	3570.29333	None	None	0.230117109	0.135374531													105	1	18	0	2019_Dec_05_1118	Test	3.1.2	59.98406794		"
"Pictures/IA75_G60.bmp	Pictures/IA75_G60.bmp	Pictures/IA75.bmp	"""

"Make it exciting""	1	risk					5	0	5	0	0	15	15	5																															3570.309998	None	3572.328728	3573.810986	3573.827543	None	3575.32797	None	2	3577.345186	None	3577.345186	None	3577.345186	None	None	None	None	None	3578.428471	None	3578.428471	None	left	3578.428471	None	3578.545705	3580.362879	None	None	0.958821597	0.09145424													105	1	18	0	2019_Dec_05_1118	Test	3.1.2	59.98406794		"
"Pictures/IA100_L60.bmp	Pictures/IA100_L60.bmp	Pictures/IA100.bmp	"""

"You'd have a lot to lose""	0	safe					5	0	5	0	0	16	16	19																															3580.379514	None	3582.401011	3583.880555	3583.897107	None	3585.397506	None	2	3587.418028	None	3587.418028	None	3587.418028	None	None	None	None	None	3587.797803	None	3587.797803	None	right	3587.797803	None	None	None	3587.948311	3589.73221	0.253706806	0.121863203													105	1	18	0	2019_Dec_05_1118	Test	3.1.2	59.98406794		"
"Pictures/IA50_L10.bmp	Pictures/IA50_L10.bmp	Pictures/IA50.bmp	"""

"Play it safe""	0	safe					5	0	5	0	0	17	17	2																															3589.74887	None	3591.767301	3593.249855	3593.266535	None	3594.766839	None	2	3596.784096	None	3596.784096	None	3596.784096	None	None	None	None	None	3598.069694	None	3598.069694	None	left	3598.069694	None	3598.90141	3600.018468	None	None	1.183248416	0.80970279													105	1	18	0	2019_Dec_05_1118	Test	3.1.2	59.98406794		"
"Pictures/IA75_G30.bmp	Pictures/IA75_G30.bmp	Pictures/IA75.bmp	"""

"Be bold""	1	risk					5	0	5	0	0	18	18	1																															3600.035139	None	3602.054786	3603.536135	3603.552767	None	3605.053105	None	1	3607.07029	None	3607.07029	None	3607.07029	None	3608.087121	None	3608.087121	3609.087722	3610.137971	None	3610.137971	None	right	3610.137971	None	None	None	3610.538125	3612.055231	0.928864847	0.38110417													105	1	18	0	2019_Dec_05_1118	Test	3.1.2	59.98406794		"
"Pictures/IA100_L80.bmp	Pictures/IA100_L80.bmp	Pictures/IA100.bmp	"""

"Go all in!""""""""""	1	risk					5	0	5	0	0	19	19	18																															3612.07191	None	3614.088894	3615.5729	3615.589439	None	3617.089983	None	2	3619.107119	None	3619.107119	None	3619.107119	None	None	None	None	None	3620.078421	None	3620.078421	None	right	3620.078421	None	None	None	3620.407621	3622.008071	0.859636824	0.312379677													105	1	18	0	2019_Dec_05_1118	Test	3.1.2	59.98406794		"
"										5	0	5	0																																																																									3622.128232	None	return	4.910387578	3622.128232	None	105	1	18	0	2019_Dec_05_1118	Test	3.1.2	59.98406794		"
"Pictures/IA100_L80.bmp	Pictures/IA100_L80.bmp	Pictures/IA100.bmp	"""

"Go all in!""""""""""	1	risk					6	0	6	0	0	0	0	12													3627.142351	None	3627.142351	None	3627.142351	None	right	4.576156143	3627.142351	None	3627.142351	None	3627.142351	None	return	5.000120051	3627.142351	None	3632.194204	None	3634.196066	3635.678603	3635.695201	None	3637.19569	None	1	3639.21281	None	3639.21281	None	3639.21281	None	3640.663112	None	3640.663112	3641.646998	3642.721309	None	3642.721309	None	right	3642.721309	None	None	None	3642.721309	3644.631185	1.353339126	0.316989197													105	1	18	0	2019_Dec_05_1118	Test	3.1.2	59.98406794		"
"Pictures/IA25_G5.bmp	Pictures/IA25_G5.bmp	Pictures/IA25.bmp	"""

"Let's stay with the certain option.""""""""""	0	safe					6	0	6	0	0	1	1	19																															3644.647741	None	3646.66588	3648.148842	3648.165526	None	3649.665832	None	2	3651.683056	None	3651.683056	None	3651.683056	None	None	None	None	None	3652.466252	None	3652.466252	None	right	3652.466252	None	None	None	3652.56678	3654.400595	0.666859287	0.083742367													105	1	18	0	2019_Dec_05_1118	Test	3.1.2	59.98406794		"
"Pictures/IA75_G15.bmp	Pictures/IA75_G15.bmp	Pictures/IA75.bmp	"""

"Take a chance!""""""""""	1	risk					6	0	6	0	0	2	2	15																															3654.417283	None	3656.438172	3657.918285	3657.934953	None	3659.4352	None	1	3661.455734	None	3661.455734	None	3661.455734	None	3663.536034	None	3663.536034	3664.520187	3665.588648	None	3665.588648	None	left	3665.588648	None	3665.870512	3667.504352	None	None	1.997882003	0.256925477													105	1	18	0	2019_Dec_05_1118	Test	3.1.2	59.98406794		"
"Pictures/IA50_G40.bmp	Pictures/IA50_G40.bmp	Pictures/IA50.bmp	"""

"It would probably be best to play it safe.""""""""""	0	safe					6	0	6	0	0	3	3	11																															3667.520956	None	3669.542525	3671.022042	3671.038687	None	3672.539113	None	1	3674.572907	None	3674.572907	None	3674.572907	None	3675.489691	None	3675.489691	3676.473583	3677.544876	None	3677.544876	None	left	3677.544876	None	3677.840565	3679.457777	None	None	0.808392493	0.268309478													105	1	18	0	2019_Dec_05_1118	Test	3.1.2	59.98406794		"
"Pictures/IA25_G20.bmp	Pictures/IA25_G20.bmp	Pictures/IA25.bmp	"""

"I wouldn't gamble for this one. """"""""""	0	safe					6	0	6	0	0	4	4	1																															3679.474432	None	3681.493018	3682.975432	3682.992111	None	3684.492352	None	2	3686.509655	None	3686.509655	None	3686.509655	None	None	None	None	None	3687.912364	None	3687.912364	None	right	3687.912364	None	None	None	3688.126917	3689.843964	1.279292583	0.188532835													105	1	18	0	2019_Dec_05_1118	Test	3.1.2	59.98406794		"
"Pictures/IA75_L60.bmp	Pictures/IA75_L60.bmp	Pictures/IA75.bmp	"""

"Why not take the gamble?""""""""""	1	risk					6	0	6	0	0	5	5	2																															3689.860505	None	3691.881929	3693.361736	3693.378399	None	3694.878794	None	2	3696.895955	None	3696.895955	None	3696.895955	None	None	None	None	None	3697.845857	None	3697.845857	None	right	3697.845857	None	None	None	3698.179768	3699.780223	0.820626492	0.310831144													105	1	18	0	2019_Dec_05_1118	Test	3.1.2	59.98406794		"
"Pictures/IA25_L20.bmp	Pictures/IA25_L20.bmp	Pictures/IA25.bmp	"""

"Don't be tempted to gamble.""""""""""	0	safe					6	0	6	0	0	6	6	3																															3699.796833	None	3701.818091	3703.297903	3703.314507	None	3704.814974	None	1	3706.848479	None	3706.848479	None	3706.848479	None	3708.899246	None	3708.899246	3709.899748	3710.966403	None	3710.966403	None	left	3710.966403	None	3711.26677	3712.88396	None	None	1.963909766	0.277907332													105	1	18	0	2019_Dec_05_1118	Test	3.1.2	59.98406794		"
"Pictures/IA50_G30.bmp	Pictures/IA50_G30.bmp	Pictures/IA50.bmp	"""

"I think you should gamble.""""""""""	1	risk					6	0	6	0	0	7	7	5																															3712.900626	None	3714.921606	3716.401633	3716.418299	None	3717.918699	None	2	3719.935868	None	3719.935868	None	3719.935868	None	None	None	None	None	3721.11913	None	3721.11913	None	right	3721.11913	None	None	None	3722.886808	None	1.091877528	1.748858117													105	1	18	0	2019_Dec_05_1118	Test	3.1.2	59.98406794		"
"Pictures/IA50_G20.bmp	Pictures/IA50_G20.bmp	Pictures/IA50.bmp	"""

"Let's venture and take a risk!""""""""""	1	risk					6	0	6	0	0	8	8	8																															3723.070155	None	3725.090872	3726.571191	3726.587817	None	3728.08825	None	1	3730.105417	None	3730.105417	None	3730.105417	None	3730.422042	None	3730.422042	3731.405895	3732.474795	None	3732.474795	None	left	3732.474795	None	3732.756194	3734.390075	None	None	0.218376376	0.256928587													105	1	18	0	2019_Dec_05_1118	Test	3.1.2	59.98406794		"
"Pictures/IA100_L40.bmp	Pictures/IA100_L40.bmp	Pictures/IA100.bmp	"""

"Think of the payoff""	1	risk					6	0	6	0	0	9	9	7																															3734.406759	None	3736.425601	3737.907748	3737.924303	None	3739.424726	None	2	3741.441951	None	3741.441951	None	3741.441951	None	None	None	None	None	3742.578944	None	3742.578944	None	right	3742.578944	None	None	None	3742.992442	3744.526307	1.025499937	0.392459246													105	1	18	0	2019_Dec_05_1118	Test	3.1.2	59.98406794		"
"Pictures/IA100_G60.bmp	Pictures/IA100_G60.bmp	Pictures/IA100.bmp	"""

"Be cautious""	0	safe					6	0	6	0	0	10	10	4																															3744.542972	None	3746.561058	3748.043962	3748.060506	None	3749.560889	None	1	3751.578173	None	3751.578173	None	3751.578173	None	3752.795081	None	3752.795081	3753.778946	3754.862326	None	3754.862326	None	left	3754.862326	None	3755.179333	3756.763102	None	None	1.112991252	0.300679376													105	1	18	0	2019_Dec_05_1118	Test	3.1.2	59.98406794		"
"Pictures/IA100_G40.bmp	Pictures/IA100_G40.bmp	Pictures/IA100.bmp	"""

"Try your luck and gamble!""""""""""	1	risk					6	0	6	0	0	11	11	10																															3756.779798	None	3758.800309	3760.280832	3760.29746	None	3761.797709	None	2	3763.814945	None	3763.814945	None	3763.814945	None	None	None	None	None	3764.68158	None	3764.68158	None	left	3764.68158	None	3764.782089	3766.61594	None	None	0.739948223	0.081260796													105	1	18	0	2019_Dec_05_1118	Test	3.1.2	59.98406794		"
"Pictures/IA40_20_L95p.bmp	Pictures/IA40_20_L95p.bmp	Pictures/IA40.bmp	"""

"Trust me""	1	risk					6	0	6	0	0	12	12	13																															3766.632619	None	3768.654163	3770.133584	3770.150283	None	3771.650665	None	2	3773.667785	None	3773.667785	None	3773.667785	None	None	None	None	None	3774.467676	None	3774.467676	None	right	3774.467676	None	None	None	3774.5682	3776.402062	0.678775742	0.078899276													105	1	18	0	2019_Dec_05_1118	Test	3.1.2	59.98406794		"
"Pictures/IA50_L30.bmp	Pictures/IA50_L30.bmp	Pictures/IA50.bmp	"""

"Take a leap""	1	risk					6	0	6	0	0	13	13	9																															3776.418698	None	3778.439448	3779.919738	3779.936318	None	3781.436801	None	1	3783.470615	None	3783.470615	None	3783.470615	None	3783.920323	None	3783.920323	3784.904485	3785.970975	None	3785.970975	None	left	3785.970975	None	3786.288204	3787.888659	None	None	0.33976684	0.29527273													105	1	18	0	2019_Dec_05_1118	Test	3.1.2	59.98406794		"
"Pictures/IA25_G15.bmp	Pictures/IA25_G15.bmp	Pictures/IA25.bmp	"""

"I think you should take a gamble.""""""""""	1	risk					6	0	6	0	0	14	14	16																															3787.905327	None	3789.926817	3791.406321	3791.423002	None	3792.923398	None	2	3794.957196	None	3794.957196	None	3794.957196	None	None	None	None	None	3795.340307	None	3795.340307	None	right	3795.340307	None	None	None	3795.674214	3797.274686	0.252693837	0.301573227													105	1	18	0	2019_Dec_05_1118	Test	3.1.2	59.98406794		"
"Pictures/IA75_G30.bmp	Pictures/IA75_G30.bmp	Pictures/IA75.bmp	"""

"Be bold""	1	risk					6	0	6	0	0	15	15	14																															3797.291311	None	3799.312089	3800.792343	3800.808963	None	3802.309408	None	2	3804.326517	None	3804.326517	None	3804.326517	None	None	None	None	None	3804.759694	None	3804.759694	None	left	3804.759694	None	3804.94349	3806.694007	None	None	0.331209634	0.153931108													105	1	18	0	2019_Dec_05_1118	Test	3.1.2	59.98406794		"
"Pictures/IA100_G80.bmp	Pictures/IA100_G80.bmp	Pictures/IA100.bmp	"""

"Why not gamble?""""""""""	1	risk					6	0	6	0	0	16	16	6																															3806.710673	None	3808.731337	3810.211644	3810.228243	None	3811.728745	None	2	3813.745876	None	3813.745876	None	3813.745876	None	None	None	None	None	3814.480014	None	3814.480014	None	left	3814.480014	None	3814.929669	3816.413454	None	None	0.631533523	0.433350273													105	1	18	0	2019_Dec_05_1118	Test	3.1.2	59.98406794		"
"Pictures/IA80_40_L95p.bmp	Pictures/IA80_40_L95p.bmp	Pictures/IA80.bmp	"""

"Let's stay with the certain option.""""""""""	0	safe					6	0	6	0	0	17	17	0																															3816.430129	None	3818.451585	3819.931122	3819.964452	None	3821.448192	None	2	3823.465319	None	3823.465319	None	3823.465319	None	None	None	None	None	3824.015146	None	3824.015146	None	right	3824.015146	None	None	None	3824.365714	3825.949326	0.431970309	0.321956693													105	1	18	0	2019_Dec_05_1118	Test	3.1.2	59.98406794		"
"Pictures/IA110_55_L95p.bmp	Pictures/IA110_55_L95p.bmp	Pictures/IA110.bmp	"""

"Trust me""	1	risk					6	0	6	0	0	18	18	18																															3825.966146	None	3827.984346	3829.467171	3829.483809	None	3830.984223	None	2	3833.001407	None	3833.001407	None	3833.001407	None	None	None	None	None	3833.917948	None	3833.917948	None	right	3833.917948	None	None	None	3834.235202	3835.852335	0.799483843	0.29904065													105	1	18	0	2019_Dec_05_1118	Test	3.1.2	59.98406794		"
"Pictures/IA100_L60.bmp	Pictures/IA100_L60.bmp	Pictures/IA100.bmp	"""

"You'd have a lot to lose""	0	safe					6	0	6	0	0	19	19	17																															3835.869028	None	3837.890235	3839.369975	3839.386602	None	3840.88704	None	1	3842.904239	None	3842.904239	None	3842.904239	None	3844.604287	None	3844.604287	3845.588438	3846.655114	None	3846.655114	None	left	3846.655114	None	3847.772392	None	None	None	1.600491649	1.097452743													105	1	18	0	2019_Dec_05_1118	Test	3.1.2	59.98406794		"
"										6	0	6	0																																																																									3848.688812	None	return	5.071457984	3848.688812	None	105	1	18	0	2019_Dec_05_1118	Test	3.1.2	59.98406794		"
"Pictures/IA75_G30.bmp	Pictures/IA75_G30.bmp	Pictures/IA75.bmp	"""

"Be bold""	1	risk					7	0	7	0	0	0	0	17													3853.873659	None	3853.873659	None	3853.873659	None	left	1.110719304	3853.873659	None	3853.873659	None	3853.873659	None	return	3.742637861	3853.873659	None	3857.676935	None	3859.680082	3861.15954	3861.176108	None	3862.676633	None	2	3864.710396	None	3864.710396	None	3864.710396	None	None	None	None	None	3865.810385	None	3865.810385	None	left	3865.810385	None	3866.144229	3867.744756	None	None	0.977661818	0.317549331													105	1	18	0	2019_Dec_05_1118	Test	3.1.2	59.98406794		"
"Pictures/IA75_G15.bmp	Pictures/IA75_G15.bmp	Pictures/IA75.bmp	"""

"Take a chance!""""""""""	1	risk					7	0	7	0	0	1	1	0																															3867.761373	None	3869.782059	3871.262417	3871.278991	None	3872.779452	None	2	3874.81301	None	3874.81301	None	3874.81301	None	None	None	None	None	3875.946605	None	3875.946605	None	right	3875.946605	None	None	None	3876.763995	3877.880972	1.034771228	0.797158401													105	1	18	0	2019_Dec_05_1118	Test	3.1.2	59.98406794		"
"Pictures/IA25_G20.bmp	Pictures/IA25_G20.bmp	Pictures/IA25.bmp	"""

"I wouldn't gamble for this one. """"""""""	0	safe					7	0	7	0	0	2	2	4																															3877.897616	None	3879.918361	3881.398656	3881.415239	None	3882.915716	None	2	3884.932812	None	3884.932812	None	3884.932812	None	None	None	None	None	3886.316236	None	3886.316236	None	left	3886.316236	None	3886.416664	3888.250601	None	None	1.258683943	0.075280642													105	1	18	0	2019_Dec_05_1118	Test	3.1.2	59.98406794		"
"Pictures/IA100_G60.bmp	Pictures/IA100_G60.bmp	Pictures/IA100.bmp	"""

"Be cautious""	0	safe					7	0	7	0	0	3	3	9																															3888.267269	None	3890.28722	3891.768255	3891.784862	None	3893.285176	None	2	3895.302385	None	3895.302385	None	3895.302385	None	None	None	None	None	3895.635548	None	3895.635548	None	left	3895.635548	None	3895.902775	3897.56991	None	None	0.20892843	0.235700721													105	1	18	0	2019_Dec_05_1118	Test	3.1.2	59.98406794		"
"Pictures/IA50_G10.bmp	Pictures/IA50_G10.bmp	Pictures/IA50.bmp	"""

"Go with the safe option here!""""""""""	0	safe					7	0	7	0	0	4	4	10																															3897.586592	None	3899.607833	3901.087586	3901.104186	None	3902.60467	None	2	3904.638456	None	3904.638456	None	3904.638456	None	None	None	None	None	3905.024594	None	3905.024594	None	right	3905.024594	None	None	None	3905.205388	3906.972583	0.280537878	0.150259291													105	1	18	0	2019_Dec_05_1118	Test	3.1.2	59.98406794		"
"Pictures/IA100_G80.bmp	Pictures/IA100_G80.bmp	Pictures/IA100.bmp	"""

"Why not gamble?""""""""""	1	risk					7	0	7	0	0	5	5	6																															3906.989252	None	3909.008427	3910.490263	3910.506926	None	3912.007172	None	2	3914.024483	None	3914.024483	None	3914.024483	None	None	None	None	None	3914.374203	None	3914.374203	None	left	3914.374203	None	3914.824789	3916.308593	None	None	0.238151502	0.424519065													105	1	18	0	2019_Dec_05_1118	Test	3.1.2	59.98406794		"
"Pictures/IA80_40_G95p.bmp	Pictures/IA80_40_G95p.bmp	Pictures/IA80.bmp	"""

"Think of the payoff""	1	risk					7	0	7	0	0	6	6	19																															3916.325267	None	3918.346469	3919.826256	3919.842765	None	3921.343323	None	2	3923.360506	None	3923.360506	None	3923.360506	None	None	None	None	None	3923.610217	None	3923.610217	None	left	3923.610217	None	3924.044117	3925.544548	None	None	0.150048736	0.404242898													105	1	18	0	2019_Dec_05_1118	Test	3.1.2	59.98406794		"
"Pictures/IA75_G45.bmp	Pictures/IA75_G45.bmp	Pictures/IA75.bmp	"""

"Don't gamble for this one.""""""""""	0	safe					7	0	7	0	0	7	7	8																															3925.56122	None	3927.58025	3929.062213	3929.078859	None	3930.578941	None	1	3932.596382	None	3932.596382	None	3932.596382	None	3935.297039	None	3935.297039	3936.280939	3937.347418	None	3937.347418	None	left	3937.347418	None	3937.614655	3939.265049	None	None	2.593768797	0.242666785													105	1	18	0	2019_Dec_05_1118	Test	3.1.2	59.98406794		"
"Pictures/IA75_G60.bmp	Pictures/IA75_G60.bmp	Pictures/IA75.bmp	"""

"Make it exciting""	1	risk					7	0	7	0	0	8	8	1																															3939.281798	None	3941.30313	3942.782802	3942.799468	None	3944.299886	None	2	3946.333671	None	3946.333671	None	3946.333671	None	None	None	None	None	3947.483649	None	3947.483649	None	right	3947.483649	None	None	None	3947.634188	3949.41803	1.0322259	0.122070648													105	1	18	0	2019_Dec_05_1118	Test	3.1.2	59.98406794		"
"Pictures/IA25_G10.bmp	Pictures/IA25_G10.bmp	Pictures/IA25.bmp	"""

"What's life without a little risk?""""""""""	1	risk					7	0	7	0	0	9	9	7																															3949.434694	None	3951.454863	3952.935698	3952.952298	None	3954.452619	None	2	3956.470007	None	3956.470007	None	3956.470007	None	None	None	None	None	3957.308203	None	3957.308203	None	left	3957.308203	None	3957.536943	3959.254148	None	None	0.727554052	0.209340833													105	1	18	0	2019_Dec_05_1118	Test	3.1.2	59.98406794		"
"Pictures/IA25_G15.bmp	Pictures/IA25_G15.bmp	Pictures/IA25.bmp	"""

"I think you should take a gamble.""""""""""	1	risk					7	0	7	0	0	10	10	13																															3959.270834	None	3961.292099	3962.771812	3962.788489	None	3964.288753	None	1	3966.30789	None	3966.30789	None	3966.30789	None	3967.122811	None	3967.122811	3968.106679	3969.173182	None	3969.173182	None	right	3969.173182	None	None	None	3969.223666	3971.090864	0.72940209	0.023819535													105	1	18	0	2019_Dec_05_1118	Test	3.1.2	59.98406794		"
"Pictures/IA100_G40.bmp	Pictures/IA100_G40.bmp	Pictures/IA100.bmp	"""

"Try your luck and gamble!""""""""""	1	risk					7	0	7	0	0	11	11	15																															3971.107524	None	3973.129141	3974.608519	3974.625087	None	3976.125599	None	1	3978.142643	None	3978.142643	None	3978.142643	None	3979.692951	None	3979.692951	3980.693579	3981.777002	None	3981.777002	None	left	3981.777002	None	3982.377396	3983.677766	None	None	1.462164363	0.579856573													105	1	18	0	2019_Dec_05_1118	Test	3.1.2	59.98406794		"
"Pictures/IA75_L45.bmp	Pictures/IA75_L45.bmp	Pictures/IA75.bmp	"""

"Don't gamble for this one""	0	safe					7	0	7	0	0	12	12	2																															3983.694445	None	3985.713803	3987.195376	3987.212118	None	3988.71237	None	2	3990.729642	None	3990.729642	None	3990.729642	None	None	None	None	None	3991.698012	None	3991.698012	None	right	3991.698012	None	None	None	3991.846734	3993.647289	0.850825832	0.122483362													105	1	18	0	2019_Dec_05_1118	Test	3.1.2	59.98406794		"
"Pictures/IA50_L10.bmp	Pictures/IA50_L10.bmp	Pictures/IA50.bmp	"""

"Play it safe""	0	safe					7	0	7	0	0	13	13	11																															3993.663955	None	3995.684691	3997.164976	3997.181589	None	3998.682052	None	2	4000.699134	None	4000.699134	None	4000.699134	None	None	None	None	None	4002.849429	None	4002.849429	None	right	4002.849429	None	None	None	4003.250031	4004.783783	2.025170886	0.37074309													105	1	18	0	2019_Dec_05_1118	Test	3.1.2	59.98406794		"
"Pictures/IA110_55_L95p.bmp	Pictures/IA110_55_L95p.bmp	Pictures/IA110.bmp	"""

"Trust me""	1	risk					7	0	7	0	0	14	14	14																															4004.800451	None	4006.82105	4008.301451	4008.318135	None	4009.818529	None	2	4011.85235	None	4011.85235	None	4011.85235	None	None	None	None	None	4013.823695	None	4013.823695	None	right	4013.823695	None	None	None	4014.719971	4015.770245	1.863656664	0.868235394													105	1	18	0	2019_Dec_05_1118	Test	3.1.2	59.98406794		"
"Pictures/IA40_20_G95p.bmp	Pictures/IA40_20_G95p.bmp	Pictures/IA40.bmp	"""

"Hold back""	0	safe					7	0	7	0	0	15	15	12																															4015.786916	None	4017.808534	4019.287923	4019.304607	None	4020.804898	None	2	4022.822036	None	4022.822036	None	4022.822036	None	None	None	None	None	4023.188992	None	4023.188992	None	left	4023.188992	None	4023.322419	4025.139589	None	None	0.237598521	0.102635149													105	1	18	0	2019_Dec_05_1118	Test	3.1.2	59.98406794		"
"Pictures/IA25_L20.bmp	Pictures/IA25_L20.bmp	Pictures/IA25.bmp	"""

"Don't be tempted to gamble.""""""""""	0	safe					7	0	7	0	0	16	16	5																															4025.156265	None	4027.174918	4028.657257	4028.673917	None	4030.17419	None	1	4032.191413	None	4032.191413	None	4032.191413	None	4033.008246	None	4033.008246	4033.992117	4035.075278	None	4035.075278	None	right	4035.075278	None	None	None	4036.075963	None	0.724096523	0.984173493													105	1	18	0	2019_Dec_05_1118	Test	3.1.2	59.98406794		"
"Pictures/IA75_L30.bmp	Pictures/IA75_L30.bmp	Pictures/IA75.bmp	"""

"Hold back""	0	safe					7	0	7	0	0	17	17	3																															4036.992961	None	4039.014064	4040.493976	4040.510638	None	4042.011054	None	2	4044.044543	None	4044.044543	None	4044.044543	None	None	None	None	None	4044.513606	None	4044.513606	None	left	4044.513606	None	4044.778502	4046.462349	None	None	0.334494862	0.233447745													105	1	18	0	2019_Dec_05_1118	Test	3.1.2	59.98406794		"
"Pictures/IA50_G20.bmp	Pictures/IA50_G20.bmp	Pictures/IA50.bmp	"""

"Let's venture and take a risk!""""""""""	1	risk					7	0	7	0	0	18	18	18																															4046.479	None	4048.500192	4049.980006	4049.996575	None	4051.49693	None	2	4053.515709	None	4053.515709	None	4053.515709	None	None	None	None	None	4054.136046	None	4054.136046	None	right	4054.136046	None	None	None	4054.481276	4056.081747	0.511173756	0.314730623													105	1	18	0	2019_Dec_05_1118	Test	3.1.2	59.98406794		"
"Pictures/IA40_20_L95p.bmp	Pictures/IA40_20_L95p.bmp	Pictures/IA40.bmp	"""

"Trust me""	1	risk					7	0	7	0	0	19	19	16																															4056.098413	None	4058.119512	4059.599405	4059.616068	None	4061.116487	None	2	4063.149985	None	4063.149985	None	4063.149985	None	None	None	None	None	4063.683433	None	4063.683433	None	right	4063.683433	None	None	None	4063.967324	4065.617771	0.41262376	0.263189274													105	1	18	0	2019_Dec_05_1118	Test	3.1.2	59.98406794		"
"										7	0	7	0																																																																									4065.733983	None	return	4.132470605	4065.733983	None	105	1	18	0	2019_Dec_05_1118	Test	3.1.2	59.98406794		"
"Pictures/IA100_L40.bmp	Pictures/IA100_L40.bmp	Pictures/IA100.bmp	"""

"Think of the payoff""	1	risk					8	0	8	0	0	0	0	13													4069.985214	None	4069.985214	None	4069.985214	None	left	1.393225893	4069.985214	None	4069.985214	None	4069.985214	None	return	1.841096731	4069.985214	None	4071.886004	None	4073.887487	4075.370565	4075.38712	None	4076.887589	None	1	4078.904749	None	4078.904749	None	4078.904749	None	4079.438141	None	4079.438141	4080.438675	4081.521833	None	4081.521833	None	right	4081.521833	None	None	None	4082.305889	4083.422869	0.441478592	0.760244605													105	1	18	0	2019_Dec_05_1118	Test	3.1.2	59.98406794		"
"Pictures/IA50_G40.bmp	Pictures/IA50_G40.bmp	Pictures/IA50.bmp	"""

"It would probably be best to play it safe.""""""""""	0	safe					8	0	8	0	0	1	1	9																															4083.439552	None	4085.459611	4086.940547	4086.957199	None	4088.457458	None	2	4090.47499	None	4090.47499	None	4090.47499	None	None	None	None	None	4090.807821	None	4090.807821	None	left	4090.807821	None	4091.008354	4092.758811	None	None	0.214959279	0.169948266													105	1	18	0	2019_Dec_05_1118	Test	3.1.2	59.98406794		"
"Pictures/IA20_10_L95p.bmp	Pictures/IA20_10_L95p.bmp	Pictures/IA20.bmp	"""

"Don't be tempted to gamble.""""""""""	0	safe					8	0	8	0	0	2	2	16																															4092.775528	None	4094.79385	4096.276516	4096.293185	None	4097.793506	None	2	4099.810759	None	4099.810759	None	4099.810759	None	None	None	None	None	4100.193845	None	4100.193845	None	right	4100.193845	None	None	None	4100.327693	4102.128189	0.262862089	0.111795408													105	1	18	0	2019_Dec_05_1118	Test	3.1.2	59.98406794		"
"Pictures/IA75_L15.bmp	Pictures/IA75_L15.bmp	Pictures/IA75.bmp	"""

"Trust me""	1	risk					8	0	8	0	0	3	3	11																															4102.144863	None	4104.165913	4105.645863	4105.66254	None	4107.162942	None	2	4109.180069	None	4109.180069	None	4109.180069	None	None	None	None	None	4109.550459	None	4109.550459	None	left	4109.550459	None	4110.63061	None	None	None	0.261282455	1.058878762													105	1	18	0	2019_Dec_05_1118	Test	3.1.2	59.98406794		"
"Pictures/IA40_20_L95p.bmp	Pictures/IA40_20_L95p.bmp	Pictures/IA40.bmp	"""

"Trust me""	1	risk					8	0	8	0	0	4	4	7																															4111.514201	None	4113.535377	4115.0152	4115.031881	None	4116.532097	None	2	4118.552428	None	4118.552428	None	4118.552428	None	None	None	None	None	4118.867803	None	4118.867803	None	right	4118.867803	None	None	None	4119.033021	4120.78353	0.224685893	0.141293104													105	1	18	0	2019_Dec_05_1118	Test	3.1.2	59.98406794		"
"Pictures/IA75_L60.bmp	Pictures/IA75_L60.bmp	Pictures/IA75.bmp	"""

"Why not take the gamble?""""""""""	1	risk					8	0	8	0	0	5	5	1																															4120.800085	None	4122.821389	4124.301183	4124.317835	None	4125.81823	None	2	4127.836333	None	4127.836333	None	4127.836333	None	None	None	None	None	4128.453161	None	4128.453161	None	right	4128.453161	None	None	None	4129.152565	4130.386255	0.516379488	0.667625623													105	1	18	0	2019_Dec_05_1118	Test	3.1.2	59.98406794		"
"Pictures/IA25_G20.bmp	Pictures/IA25_G20.bmp	Pictures/IA25.bmp	"""

"I wouldn't gamble for this one. """"""""""	0	safe					8	0	8	0	0	6	6	10																															4130.402904	None	4132.423675	4133.903923	4133.920597	None	4135.420989	None	2	4137.43803	None	4137.43803	None	4137.43803	None	None	None	None	None	4137.904574	None	4137.904574	None	left	4137.904574	None	4138.171761	4139.838929	None	None	0.338533363	0.239964084													105	1	18	0	2019_Dec_05_1118	Test	3.1.2	59.98406794		"
"Pictures/IA100_L60.bmp	Pictures/IA100_L60.bmp	Pictures/IA100.bmp	"""

"You'd have a lot to lose""	0	safe					8	0	8	0	0	7	7	18																															4139.855618	None	4141.876972	4143.356605	4143.373288	None	4144.873696	None	2	4146.90748	None	4146.90748	None	4146.90748	None	None	None	None	None	4147.328583	None	4147.328583	None	right	4147.328583	None	None	None	4147.641151	4149.274942	0.308849993	0.295838151													105	1	18	0	2019_Dec_05_1118	Test	3.1.2	59.98406794		"
"Pictures/IA25_L5.bmp	Pictures/IA25_L5.bmp	Pictures/IA25.bmp	"""

"It would be smarter to choose the safe option.""""""""""	0	safe					8	0	8	0	0	8	8	15																															4149.291627	None	4151.309881	4152.792585	4152.809224	None	4154.30956	None	2	4156.326878	None	4156.326878	None	4156.326878	None	None	None	None	None	4157.047895	None	4157.047895	None	left	4157.047895	None	4157.310536	4158.994404	None	None	0.617341699	0.240164065													105	1	18	0	2019_Dec_05_1118	Test	3.1.2	59.98406794		"
"Pictures/IA100_G20.bmp	Pictures/IA100_G20.bmp	Pictures/IA100.bmp	"""

"Go ahead and gamble!""""""""""	1	risk					8	0	8	0	0	9	9	2																															4159.011074	None	4161.030026	4162.51206	4162.528584	None	4164.028981	None	2	4166.046241	None	4166.046241	None	4166.046241	None	None	None	None	None	4166.913295	None	4166.913295	None	right	4166.913295	None	None	None	4167.246752	4168.847213	0.761540907	0.310443622													105	1	18	0	2019_Dec_05_1118	Test	3.1.2	59.98406794		"
"Pictures/IA25_L15.bmp	Pictures/IA25_L15.bmp	Pictures/IA25.bmp	"""

"There's not much on the line here""	1	risk					8	0	8	0	0	10	10	6																															4168.863885	None	4170.884792	4172.364875	4172.38156	None	4173.881916	None	2	4175.915448	None	4175.915448	None	4175.915448	None	None	None	None	None	4176.432227	None	4176.432227	None	right	4176.432227	None	None	None	4176.69941	4178.366583	0.387934011	0.239246267													105	1	18	0	2019_Dec_05_1118	Test	3.1.2	59.98406794		"
"Pictures/IA100_G80.bmp	Pictures/IA100_G80.bmp	Pictures/IA100.bmp	"""

"Why not gamble?""""""""""	1	risk					8	0	8	0	0	11	11	0																															4178.383255	None	4180.404393	4181.884236	4181.900863	None	4183.401152	None	1	4185.421418	None	4185.421418	None	4185.421418	None	4185.835154	None	4185.835154	4186.835649	4187.89105	None	4187.89105	None	left	4187.89105	None	4188.319383	4189.803171	None	None	0.329767468	0.396159054													105	1	18	0	2019_Dec_05_1118	Test	3.1.2	59.98406794		"
"Pictures/IA25_L10.bmp	Pictures/IA25_L10.bmp	Pictures/IA25.bmp	"""

"Dont be afraid to take the risk!""""""""""	1	risk					8	0	8	0	0	12	12	17																															4189.81985	None	4191.838973	4193.320834	4193.337479	None	4194.837761	None	2	4196.854986	None	4196.854986	None	4196.854986	None	None	None	None	None	4197.242076	None	4197.242076	None	right	4197.242076	None	None	None	4197.455321	4199.189202	0.279982409	0.197011665													105	1	18	0	2019_Dec_05_1118	Test	3.1.2	59.98406794		"
"Pictures/IA75_L30.bmp	Pictures/IA75_L30.bmp	Pictures/IA75.bmp	"""

"Hold back""	0	safe					8	0	8	0	0	13	13	19																															4199.205879	None	4201.226114	4202.706862	4202.72353	None	4204.223773	None	2	4206.242051	None	4206.242051	None	4206.242051	None	None	None	None	None	4206.624157	None	4206.624157	None	right	4206.624157	None	None	None	4206.824691	4208.55852	0.25254735	0.182530599													105	1	18	0	2019_Dec_05_1118	Test	3.1.2	59.98406794		"
"Pictures/IA50_G20.bmp	Pictures/IA50_G20.bmp	Pictures/IA50.bmp	"""

"Let's venture and take a risk!""""""""""	1	risk					8	0	8	0	0	14	14	5																															4208.575175	None	4210.593409	4212.076197	4212.092823	None	4213.593257	None	2	4215.610319	None	4215.610319	None	4215.610319	None	None	None	None	None	4216.380538	None	4216.380538	None	left	4216.380538	None	4216.677451	4218.327975	None	None	0.652109506	0.273887181													105	1	18	0	2019_Dec_05_1118	Test	3.1.2	59.98406794		"
"Pictures/IA100_L20.bmp	Pictures/IA100_L20.bmp	Pictures/IA100.bmp	"""

"Try to win as much money as you can""	1	risk					8	0	8	0	0	15	15	3																															4218.344641	None	4220.365674	4221.845621	4221.862183	None	4223.362558	None	2	4225.381352	None	4225.381352	None	4225.381352	None	None	None	None	None	4226.679875	None	4226.679875	None	left	4226.679875	None	4226.947105	4228.6142	None	None	1.176804232	0.246265825													105	1	18	0	2019_Dec_05_1118	Test	3.1.2	59.98406794		"
"Pictures/IA110_55_L95p.bmp	Pictures/IA110_55_L95p.bmp	Pictures/IA110.bmp	"""

"Trust me""	1	risk					8	0	8	0	0	16	16	4																															4228.630907	None	4230.664655	4232.13186	4232.148507	None	4233.648894	None	2	4235.669508	None	4235.669508	None	4235.669508	None	None	None	None	None	4236.5045	None	4236.5045	None	right	4236.5045	None	None	None	4236.866585	4238.433691	0.728369217	0.341361091													105	1	18	0	2019_Dec_05_1118	Test	3.1.2	59.98406794		"
"Pictures/IA50_L30.bmp	Pictures/IA50_L30.bmp	Pictures/IA50.bmp	"""

"Take a leap""	1	risk					8	0	8	0	0	17	17	14																															4238.450364	None	4240.469038	4241.951369	4241.967918	None	4243.468292	None	2	4245.485573	None	4245.485573	None	4245.485573	None	None	None	None	None	4246.118737	None	4246.118737	None	right	4246.118737	None	None	None	4246.369244	4248.053106	0.503918761	0.230846745													105	1	18	0	2019_Dec_05_1118	Test	3.1.2	59.98406794		"
"Pictures/IA50_L20.bmp	Pictures/IA50_L20.bmp	Pictures/IA50.bmp	"""

"Certainty is boring""	1	risk					8	0	8	0	0	18	18	8																															4248.06978	None	4250.091188	4251.570666	4251.587408	None	4253.087689	None	2	4255.108411	None	4255.108411	None	4255.108411	None	None	None	None	None	4255.508837	None	4255.508837	None	left	4255.508837	None	4255.821996	4257.455686	None	None	0.288948285	0.288517533													105	1	18	0	2019_Dec_05_1118	Test	3.1.2	59.98406794		"
"Pictures/IA75_G60.bmp	Pictures/IA75_G60.bmp	Pictures/IA75.bmp	"""

"Make it exciting""	1	risk					8	0	8	0	0	19	19	12																															4257.472471	None	4259.490749	4260.973466	4260.990125	None	4262.490419	None	2	4264.507656	None	4264.507656	None	4264.507656	None	None	None	None	None	4264.895051	None	4264.895051	None	right	4264.895051	None	None	None	4265.157951	4266.841793	0.273464825	0.238053844													105	1	18	0	2019_Dec_05_1118	Test	3.1.2	59.98406794		"
"										8	0	8	0																																																																									4266.95996	None	return	6.517006801	4266.95996	None	105	1	18	0	2019_Dec_05_1118	Test	3.1.2	59.98406794		"
"Pictures/IA100_G80.bmp	Pictures/IA100_G80.bmp	Pictures/IA100.bmp	"""

"Why not gamble?""""""""""	1	risk					9	0	9	0	0	0	0	10													4273.580847	None	4273.580847	None	4273.580847	None	left	2.199860853	4273.580847	None	4273.580847	None	4273.580847	None	return	3.559898884	4273.580847	None	4277.194605	None	4279.197183	4280.679063	4280.695703	None	4282.196155	None	1	4284.21327	None	4284.21327	None	4284.21327	None	4285.997019	None	4285.997019	4286.980866	4288.064014	None	4288.064014	None	right	4288.064014	None	None	None	4288.848062	4289.965015	1.687133277	0.76442244													105	1	18	0	2019_Dec_05_1118	Test	3.1.2	59.98406794		"
"Pictures/IA25_L20.bmp	Pictures/IA25_L20.bmp	Pictures/IA25.bmp	"""

"Don't be tempted to gamble.""""""""""	0	safe					9	0	9	0	0	1	1	18																															4289.981629	None	4292.002693	4293.482696	4293.499306	None	4294.999629	None	2	4297.018844	None	4297.018844	None	4297.018844	None	None	None	None	None	4297.436954	None	4297.436954	None	right	4297.436954	None	None	None	4297.700512	4299.38441	0.313420326	0.247276306													105	1	18	0	2019_Dec_05_1118	Test	3.1.2	59.98406794		"
"Pictures/IA50_L30.bmp	Pictures/IA50_L30.bmp	Pictures/IA50.bmp	"""

"Take a leap""	1	risk					9	0	9	0	0	2	2	15																															4299.401083	None	4301.4229	4302.902014	4302.918649	None	4304.418993	None	1	4306.43829	None	4306.43829	None	4306.43829	None	4306.836009	None	4306.836009	4307.820119	4308.886605	None	4308.886605	None	None	4308.886605	None	None	None	None	None	0.28555327														105	1	18	0	2019_Dec_05_1118	Test	3.1.2	59.98406794		"
"Pictures/IA25_L10.bmp	Pictures/IA25_L10.bmp	Pictures/IA25.bmp	"""

"Dont be afraid to take the risk!""""""""""	1	risk					9	0	9	0	0	3	3	16																															4310.820986	None	4312.841886	4314.32199	4314.338667	None	4315.83905	None	2	4317.872876	None	4317.872876	None	4317.872876	None	None	None	None	None	4318.291577	None	4318.291577	None	right	4318.291577	None	None	None	4318.489838	4320.240337	0.314744618	0.176052825													105	1	18	0	2019_Dec_05_1118	Test	3.1.2	59.98406794		"
"Pictures/IA50_L10.bmp	Pictures/IA50_L10.bmp	Pictures/IA50.bmp	"""

"Play it safe""	0	safe					9	0	9	0	0	4	4	9																															4320.257011	None	4322.275584	4323.758017	4323.77462	None	4325.274947	None	2	4327.29224	None	4327.29224	None	4327.29224	None	None	None	None	None	4327.630893	None	4327.630893	None	right	4327.630893	None	None	None	4327.775814	4329.576321	0.231109551	0.124369033													105	1	18	0	2019_Dec_05_1118	Test	3.1.2	59.98406794		"
"Pictures/IA100_L80.bmp	Pictures/IA100_L80.bmp	Pictures/IA100.bmp	"""

