Choice,Choice2,Amount,AdviceVar1,GambleAdviceNum,GambleAdviceType,practice.thisRepN,practice.thisTrialN,practice.thisN,practice.thisIndex,trials_2.thisRepN,trials_2.thisTrialN,trials_2.thisN,trials_2.thisIndex,trials.thisRepN,trials.thisTrialN,trials.thisN,trials.thisIndex,text.started,text.stopped,key_resp_4.keys,key_resp_4.rt,key_resp_4.started,key_resp_4.stopped,instructions.started,instructions.stopped,space.keys,space.rt,space.started,space.stopped,chooseInst.started,chooseInst.stopped,Ad1.started,Ad1.stopped,Ad2.started,Ad2.stopped,key_resp_3.keys,key_resp_3.rt,key_resp_3.started,key_resp_3.stopped,Ad1pic.started,Ad1pic.stopped,Ad2pic.started,Ad2pic.stopped,enter.keys,enter.rt,enter.started,enter.stopped,iSi.started,iSi.stopped,receiveMoneyPicture.started,receiveMoneyPicture.stopped,ISI2.started,ISI2.stopped,ChoicePic.started,ChoicePic.stopped,response.keys,response.started,response.stopped,yesNo.started,yesNo.stopped,ask.started,ask.stopped,getAdv.started,getAdv.stopped,textForCode.started,textForCode.stopped,blank.started,blank.stopped,ChoicePic2.started,ChoicePic2.stopped,resp.keys,resp.started,resp.stopped,checkL1.started,checkL1.stopped,checkR1.started,checkR1.stopped,response.rt,resp.rt,EndPrac.started,EndPrac.stopped,key_resp.keys,key_resp.rt,key_resp.started,key_resp.stopped,endText.started,endText.stopped,key_resp_2.keys,key_resp_2.rt,key_resp_2.started,key_resp_2.stopped,participant,session,age,gender (0=male, 1 = female, 2 = other),date,expName,psychopyVersion,frameRate,
,,,,,,,,,,,,,,,,,,1972.4049896401643,None,space,113.53227783890907,1972.4049896401643,None,,,,,,,,,,,,,,,,,,,,,,,,,,,,,,,,,,,,,,,,,,,,,,,,,,,,,,,,,,,,,,,,,,,,, 105,001,18,0,2019_Dec_05_1118,Test,3.1.2,59.98406793692176,
,,,,,,,,,,,,,,,,,,,,,,,,2085.953740892768,None,space,3.847113583731698,2085.953740892768,None,,,,,,,,,,,,,,,,,,,,,,,,,,,,,,,,,,,,,,,,,,,,,,,,,,,,,,,,,,,,,,, 105,001,18,0,2019_Dec_05_1118,Test,3.1.2,59.98406793692176,
,,,,,,,,,,,,,,,,,,,,,,,,,,,,,,2092.459559319778,None,2092.459559319778,None,2092.459559319778,None,left,9.524985522355564,2092.459559319778,None,,,,,,,,,,,,,,,,,,,,,,,,,,,,,,,,,,,,,,,,,,,,,,,,,,,,, 105,001,18,0,2019_Dec_05_1118,Test,3.1.2,59.98406793692176,
,,,,,,,,,,,,,,,,,,,,,,,,,,,,,,,,,,,,,,,,2092.459559319778,None,2092.459559319778,None,return,11.828906584824836,2092.459559319778,None,,,,,,,,,,,,,,,,,,,,,,,,,,,,,,,,,,,,,,,,,,,,, 105,001,18,0,2019_Dec_05_1118,Test,3.1.2,59.98406793692176,
Pictures/IA100_G20.bmp,Pictures/IA100_G20.bmp,Pictures/IA100.bmp,"

"Go ahead and gamble!"",1,risk,0,0,0,4,,,,,,,,,,,,,,,,,,,,,,,,,,,,,,,,,,,,,,,2104.3754651973595,None,2106.542753682236,2107.8266206409226,2107.843226235047,None,2109.443296461732,None,None,2111.810615301455,None,2111.810615301455,None,2111.810615301455,None,None,None,None,None,2114.778151787919,None,2114.778151787919,None,None,2114.778151787919,None,None,None,None,None,,,,,,,,,,,,,,, 105,001,18,0,2019_Dec_05_1118,Test,3.1.2,59.98406793692176,
Pictures/IA50_G40.bmp,Pictures/IA50_G40.bmp,Pictures/IA50.bmp,"

"It would probably be best to play it safe."",0,safe,0,1,1,3,,,,,,,,,,,,,,,,,,,,,,,,,,,,,,,,,,,,,,,2116.595786647724,None,2118.6658758648487,2120.0967815775934,2120.1133324334696,None,2121.6318905658004,None,1,2123.6476467840344,None,2123.6476467840344,None,2123.6476467840344,None,2124.8309984567545,None,2124.8309984567545,2125.8317548398254,2126.966935298768,None,2126.966935298768,None,left,2126.966935298768,None,2128.2824677122085,None,None,None,1.0723278870850663,1.2967721228051232,,,,,,,,,,,,, 105,001,18,0,2019_Dec_05_1118,Test,3.1.2,59.98406793692176,
Pictures/IA50_G20.bmp,Pictures/IA50_G20.bmp,Pictures/IA50.bmp,"

"Let's venture and take a risk!"",1,risk,0,2,2,1,,,,,,,,,,,,,,,,,,,,,,,,,,,,,,,,,,,,,,,2128.8326322068656,None,2130.8691093402736,2132.3336243376207,2132.35028653607,None,2133.8840432407283,None,1,2135.884190349771,None,2135.884190349771,None,2135.884190349771,None,2137.1514392738222,None,2137.1514392738222,2138.151939382366,2139.253412898695,None,2139.253412898695,None,None,2139.253412898695,None,None,None,None,None,1.1712803338537014,,,,,,,,,,,,,, 105,001,18,0,2019_Dec_05_1118,Test,3.1.2,59.98406793692176,
Pictures/IA50_G30.bmp,Pictures/IA50_G30.bmp,Pictures/IA50.bmp,"

"I think you should gamble."",1,risk,0,3,3,2,,,,,,,,,,,,,,,,,,,,,,,,,,,,,,,,,,,,,,,2141.152818926496,None,2143.186762238819,2144.653802970918,2144.670471389624,None,2146.2042159647835,None,1,2148.187908009885,None,2148.187908009885,None,2148.187908009885,None,2149.354872108436,None,2149.354872108436,2150.3554254001647,2151.4429994445313,None,2151.4429994445313,None,right,2151.4429994445313,None,None,None,2152.3893248596864,None,1.08325780906398,0.9241573575359325,,,,,,,,,,,,, 105,001,18,0,2019_Dec_05_1118,Test,3.1.2,59.98406793692176,
Pictures/IA50_G10.bmp,Pictures/IA50_G10.bmp,Pictures/IA50.bmp,"

"Go with the safe option here!"",0,safe,0,4,4,0,,,,,,,,,,,,,,,,,,,,,,,,,,,,,,,,,,,,,,,2153.3562909487196,None,2155.390020595266,2156.8572771702316,2156.873935636528,None,2158.407672747381,None,1,2160.3914652496096,None,2160.3914652496096,None,2160.3914652496096,None,2161.0079709464303,None,2161.0079709464303,2162.0087435021655,2163.0752165737463,None,2163.0752165737463,None,left,2163.0752165737463,None,2163.5591341031104,2164.992928502517,None,None,0.5274534087311622,0.4596355179078273,,,,,,,,,,,,, 105,001,18,0,2019_Dec_05_1118,Test,3.1.2,59.98406793692176,
Pictures/IA100_G40.bmp,Pictures/IA100_G40.bmp,Pictures/IA100.bmp,"

"Try your luck and gamble!"",1,risk,0,5,5,5,,,,,,,,,,,,,,,,,,,,,,,,,,,,,,,,,,,,,,,2165.009600342363,None,2167.0308291413994,2168.510612688948,2168.5272154839577,None,2170.048215377591,None,2,2172.044826893399,None,2172.044826893399,None,2172.044826893399,None,None,None,None,None,2174.01553166701,None,2174.01553166701,None,right,2174.01553166701,None,None,None,2174.578993201883,2175.962714233375,1.8577415123058927,0.5349628122021386,,,,,,,,,,,,, 105,001,18,0,2019_Dec_05_1118,Test,3.1.2,59.98406793692176,
,,,,,,,,,,,,,,,,,,,,,,,,,,,,,,,,,,,,,,,,,,,,,,,,,,,,,,,,,,,,,,,,,,,,,,,,,,,,,,,,2175.979396958668,None,space,17.290505215373287,2175.979396958668,None,,,,,,, 105,001,18,0,2019_Dec_05_1118,Test,3.1.2,59.98406793692176,
Pictures/IA100_L40.bmp,Pictures/IA100_L40.bmp,Pictures/IA100.bmp,"

"Think of the payoff, gamble!"",1,risk,,,,,0,0,0,0,0,0,0,6,,,,,,,,,,,,,2193.3841356115227,None,2193.3841356115227,None,2193.3841356115227,None,left,3.5178686170074798,2193.3841356115227,None,2193.3841356115227,None,2193.3841356115227,None,return,7.453654120204192,2193.3841356115227,None,2200.8862672930877,None,2202.8911713425364,2204.370806536991,2204.387403111745,None,2205.937893547791,None,1,2207.906421853997,None,2207.906421853997,None,2207.906421853997,None,2208.3050270239,None,2208.3050270239,2209.3055461042227,2210.37798066869,None,2210.37798066869,None,left,2210.37798066869,None,2211.889587976495,None,None,None,0.3152033619235226,1.4834942409765972,,,,,,,,,,,,, 105,001,18,0,2019_Dec_05_1118,Test,3.1.2,59.98406793692176,
Pictures/IA25_G5.bmp,Pictures/IA25_G5.bmp,Pictures/IA25.bmp,"

"Let's stay with the certain option."",0,safe,,,,,0,0,0,0,0,1,1,16,,,,,,,,,,,,,,,,,,,,,,,,,,,,,,,2212.3063177269196,None,2214.35888261818,2215.807417157082,2215.8240435890625,None,2217.3578186434743,None,2,2219.3415019802183,None,2219.3415019802183,None,2219.3415019802183,None,None,None,None,None,2221.025071361881,None,2221.025071361881,None,left,2221.025071361881,None,2221.3756054641212,2222.9594526423957,None,None,1.567822867027644,0.32415213252124886,,,,,,,,,,,,, 105,001,18,0,2019_Dec_05_1118,Test,3.1.2,59.98406793692176,
Pictures/IA25_G15.bmp,Pictures/IA25_G15.bmp,Pictures/IA25.bmp,"

"I think you should take a gamble."",1,risk,,,,,0,0,0,0,0,2,2,11,,,,,,,,,,,,,,,,,,,,,,,,,,,,,,,2222.976115462871,None,2224.998501851459,2226.4771051055236,2226.4937766343564,None,2228.0274107999808,None,1,2230.0279811974115,None,2230.0279811974115,None,2230.0279811974115,None,2230.3943800613442,None,2230.3943800613442,2231.395170966833,2232.4641035274444,None,2232.4641035274444,None,right,2232.4641035274444,None,None,None,2232.8288549567037,2234.3793593883247,0.28102305786524084,0.3488397046371574,,,,,,,,,,,,, 105,001,18,0,2019_Dec_05_1118,Test,3.1.2,59.98406793692176,
Pictures/IA75_G30.bmp,Pictures/IA75_G30.bmp,Pictures/IA75.bmp,"

"Be bold, gamble!"",1,risk,,,,,0,0,0,0,0,3,3,7,,,,,,,,,,,,,,,,,,,,,,,,,,,,,,,2234.3960330942473,None,2236.4632171410335,2237.8970410866536,2237.913660676353,None,2239.4482291243557,None,1,2241.431463358652,None,2241.431463358652,None,2241.431463358652,None,2242.114417868057,None,2242.114417868057,2243.0984977460903,2244.1664257354364,None,2244.1664257354364,None,right,2244.1664257354364,None,None,None,2244.9823319862335,2246.082692076825,0.5892706190584249,0.7902340122327587,,,,,,,,,,,,, 105,001,18,0,2019_Dec_05_1118,Test,3.1.2,59.98406793692176,
Pictures/IA100_G20.bmp,Pictures/IA100_G20.bmp,Pictures/IA100.bmp,"

"Go ahead and gamble!"",1,risk,,,,,0,0,0,0,0,4,4,10,,,,,,,,,,,,,,,,,,,,,,,,,,,,,,,2246.0993701369266,None,2248.1331367939933,2249.6003277452633,2249.6170002071344,None,2251.133949470376,None,1,2253.1512200098155,None,2253.1512200098155,None,2253.1512200098155,None,2254.8846876591997,None,2254.8846876591997,2255.8688051697786,2256.9408223551004,None,2256.9408223551004,None,left,2256.9408223551004,None,2257.2524500031413,2258.8529970124114,None,None,1.6450818616726792,0.29553055980431964,,,,,,,,,,,,, 105,001,18,0,2019_Dec_05_1118,Test,3.1.2,59.98406793692176,
Pictures/IA50_L10.bmp,Pictures/IA50_L10.bmp,Pictures/IA50.bmp,"

"Play it safe, don’t gamble!"",0,safe,,,,,0,0,0,0,0,5,5,15,,,,,,,,,,,,,,,,,,,,,,,,,,,,,,,2258.8696909341643,None,2260.903363976385,2262.370680265804,2262.387339043113,None,2263.954267437398,None,1,2265.904893226204,None,2265.904893226204,None,2265.904893226204,None,2266.4088757447976,None,2266.4088757447976,2267.405420081846,2268.4885932954353,None,2268.4885932954353,None,right,2268.4885932954353,None,None,None,2268.705820790706,2270.3896150346063,0.40301844119176167,0.19537076143978993,,,,,,,,,,,,, 105,001,18,0,2019_Dec_05_1118,Test,3.1.2,59.98406793692176,
Pictures/IA50_L30.bmp,Pictures/IA50_L30.bmp,Pictures/IA50.bmp,"

"Take a leap, I think you should gamble."",1,risk,,,,,0,0,0,0,0,6,6,14,,,,,,,,,,,,,,,,,,,,,,,,,,,,,,,2270.4062930947075,None,2272.4400221192286,2273.907245104814,2273.923894862753,None,2275.4742546734333,None,1,2277.4445485991673,None,2277.4445485991673,None,2277.4445485991673,None,2277.89127708688,None,2277.89127708688,2278.8753647402327,2279.9606512856335,None,2279.9606512856335,None,None,2279.9606512856335,None,None,None,None,None,0.3431621664153681,,,,,,,,,,,,,, 105,001,18,0,2019_Dec_05_1118,Test,3.1.2,59.98406793692176,
Pictures/IA80_40_G95p.bmp,Pictures/IA80_40_G95p.bmp,Pictures/IA80.bmp,"

"Think of the payoff, gamble!"",1,risk,,,,,0,0,0,0,0,7,7,9,,,,,,,,,,,,,,,,,,,,,,,,,,,,,,,2281.8762234465066,None,2283.960399365285,2285.3772211754913,2285.393893015337,None,2286.960564513069,None,1,2288.9122188211245,None,2288.9122188211245,None,2288.9122188211245,None,2290.4450602151833,None,2290.4450602151833,2291.428947887321,2292.512088444569,None,2292.512088444569,None,left,2292.512088444569,None,2292.9627291619886,2294.4131440841325,None,None,1.4431151412836698,0.41920945528636366,,,,,,,,,,,,, 105,001,18,0,2019_Dec_05_1118,Test,3.1.2,59.98406793692176,
Pictures/IA75_L45.bmp,Pictures/IA75_L45.bmp,Pictures/IA75.bmp,"

"Don't gamble for this one, play it safe."",0,safe,,,,,0,0,0,0,0,8,8,3,,,,,,,,,,,,,,,,,,,,,,,,,,,,,,,2294.429813746889,None,2296.468042193237,2297.930822050308,2297.947477095464,None,2299.497763818142,None,None,2301.481684457634,None,2301.481684457634,None,2301.481684457634,None,None,None,None,None,2304.548914223298,None,2304.548914223298,None,right,2304.548914223298,None,None,None,2305.432948444656,2306.483206243146,,0.8539166771893179,,,,,,,,,,,,, 105,001,18,0,2019_Dec_05_1118,Test,3.1.2,59.98406793692176,
Pictures/IA110_55_L95p.bmp,Pictures/IA110_55_L95p.bmp,Pictures/IA110.bmp,"

"Trust me, gamble!"",1,risk,,,,,0,0,0,0,0,9,9,13,,,,,,,,,,,,,,,,,,,,,,,,,,,,,,,2306.4999135384483,None,2308.5702441014873,2310.000905980216,2310.017574398921,None,2311.567886313634,None,1,2313.53522250787,None,2313.53522250787,None,2313.53522250787,None,2314.138355588371,None,2314.138355588371,2315.1357122907893,2316.2188584462674,None,2316.2188584462674,None,right,2316.2188584462674,None,None,None,2316.569406233069,2318.1198904488597,0.5235442891525963,0.3196769696901356,,,,,,,,,,,,, 105,001,18,0,2019_Dec_05_1118,Test,3.1.2,59.98406793692176,
Pictures/IA75_L30.bmp,Pictures/IA75_L30.bmp,Pictures/IA75.bmp,"

"Hold back, stay with the safe choice."",0,safe,,,,,0,0,0,0,0,10,10,2,,,,,,,,,,,,,,,,,,,,,,,,,,,,,,,2318.136543938952,None,2320.1763585504564,2321.637553797435,2321.654223460191,None,2323.2045011634987,None,1,2325.188407807416,None,2325.188407807416,None,2325.188407807416,None,2326.0552501755665,None,2326.0552501755665,2327.055760236519,2328.1428024490388,None,2328.1428024490388,None,None,2328.1428024490388,None,None,None,None,None,0.7659656853384149,,,,,,,,,,,,,, 105,001,18,0,2019_Dec_05_1118,Test,3.1.2,59.98406793692176,
Pictures/IA50_L20.bmp,Pictures/IA50_L20.bmp,Pictures/IA50.bmp,"

"Certainty is boring, take a risk!"",1,risk,,,,,0,0,0,0,0,11,11,5,,,,,,,,,,,,,,,,,,,,,,,,,,,,,,,2330.0566139665884,None,2332.106729010214,2333.5576085854455,2333.5742869565597,None,2335.1412187719848,None,1,2337.0918243449605,None,2337.0918243449605,None,2337.0918243449605,None,2337.508518017903,None,2337.508518017903,2338.4923481526776,2339.577159781569,None,2339.577159781569,None,left,2339.577159781569,None,2340.4429328877973,2341.476542794425,None,None,0.3262408943232913,0.8408460542741523,,,,,,,,,,,,, 105,001,18,0,2019_Dec_05_1118,Test,3.1.2,59.98406793692176,
Pictures/IA50_G20.bmp,Pictures/IA50_G20.bmp,Pictures/IA50.bmp,"

"Let's venture and take a risk!"",1,risk,,,,,0,0,0,0,0,12,12,4,,,,,,,,,,,,,,,,,,,,,,,,,,,,,,,2341.4931804228654,None,2343.5435946607813,2344.9942332011115,2345.010749534569,None,2346.5327113907183,None,1,2348.52839671048,None,2348.52839671048,None,2348.52839671048,None,2349.2785492622465,None,2349.2785492622465,2350.262383129174,2351.3622325367883,None,2351.3622325367883,None,right,2351.3622325367883,None,None,None,2351.929461680427,2353.2465283198903,0.6653446550276385,0.5514464893190052,,,,,,,,,,,,, 105,001,18,0,2019_Dec_05_1118,Test,3.1.2,59.98406793692176,
Pictures/IA75_G15.bmp,Pictures/IA75_G15.bmp,Pictures/IA75.bmp,"

"Take a chance!"",1,risk,,,,,0,0,0,0,0,13,13,8,,,,,,,,,,,,,,,,,,,,,,,,,,,,,,,2353.263243390512,None,2355.296966816803,2356.7642265018962,2356.780901140857,None,2358.3312062132886,None,2,2360.30193680096,None,2360.30193680096,None,2360.30193680096,None,None,None,None,None,2362.0030342406403,None,2362.0030342406403,None,left,2362.0030342406403,None,2362.915946620255,2363.932920453506,None,None,1.5875025114282835,0.886288752969449,,,,,,,,,,,,, 105,001,18,0,2019_Dec_05_1118,Test,3.1.2,59.98406793692176,
Pictures/IA100_L60.bmp,Pictures/IA100_L60.bmp,Pictures/IA100.bmp,"

"You'd have a lot to lose, don't gamble."",0,safe,,,,,0,0,0,0,0,14,14,1,,,,,,,,,,,,,,,,,,,,,,,,,,,,,,,2363.9496156193104,None,2365.983282441276,2367.4506124152567,2367.4672827000386,None,2369.0035443015927,None,1,2370.984810758056,None,2370.984810758056,None,2370.984810758056,None,2372.3183893767987,None,2372.3183893767987,2373.3022686515915,2374.385442798219,None,2374.385442798219,None,left,2374.385442798219,None,2375.58622207183,None,None,None,1.2243164094693384,1.1756006123218867,,,,,,,,,,,,, 105,001,18,0,2019_Dec_05_1118,Test,3.1.2,59.98406793692176,
Pictures/IA40_20_G95p.bmp,Pictures/IA40_20_G95p.bmp,Pictures/IA40.bmp,"

"Hold back, stay with the safe choice."",0,safe,,,,,0,0,0,0,0,15,15,19,,,,,,,,,,,,,,,,,,,,,,,,,,,,,,,2376.3031345111594,None,2378.3702069043593,2379.8041123353264,2379.8207701795973,None,2381.3566557667054,None,1,2383.341391570683,None,2383.341391570683,None,2383.341391570683,None,2383.988244028088,None,2383.988244028088,2384.988921102901,2386.0585226519934,None,2386.0585226519934,None,left,2386.0585226519934,None,2386.489324486471,2387.973124453006,None,None,0.5633122487406581,0.406213164424571,,,,,,,,,,,,, 105,001,18,0,2019_Dec_05_1118,Test,3.1.2,59.98406793692176,
Pictures/IA25_L15.bmp,Pictures/IA25_L15.bmp,Pictures/IA25.bmp,"

"There's not much on the line here, gamble!"",1,risk,,,,,0,0,0,0,0,16,16,12,,,,,,,,,,,,,,,,,,,,,,,,,,,,,,,2387.9897872734814,None,2390.0235660600465,2391.4907859355044,2391.5074456458524,None,2393.0417024590533,None,1,2395.024916166506,None,2395.024916166506,None,2395.024916166506,None,2395.174693388055,None,2395.174693388055,2396.1587493181046,2397.1975870384804,None,2397.1975870384804,None,right,2397.1975870384804,None,None,None,2397.775871442247,2399.142966041759,0.04754638911026632,0.5547684167768239,,,,,,,,,,,,, 105,001,18,0,2019_Dec_05_1118,Test,3.1.2,59.98406793692176,
Pictures/IA110_55_G95p.bmp,Pictures/IA110_55_G95p.bmp,Pictures/IA110.bmp,"

"Take a chance!"",1,risk,,,,,0,0,0,0,0,17,17,17,,,,,,,,,,,,,,,,,,,,,,,,,,,,,,,2399.15964970009,None,2401.1827638585737,2402.660644940973,2402.6773180248697,None,2404.1989452312723,None,1,2406.2115061042477,None,2406.2115061042477,None,2406.2115061042477,None,2406.7448703107825,None,2406.7448703107825,2407.7287523846903,2408.796299694399,None,2408.796299694399,None,left,2408.796299694399,None,2409.762638470663,None,None,None,0.4365409532292688,0.9477862421631471,,,,,,,,,,,,, 105,001,18,0,2019_Dec_05_1118,Test,3.1.2,59.98406793692176,
Pictures/IA100_G40.bmp,Pictures/IA100_G40.bmp,Pictures/IA100.bmp,"

"Try your luck and gamble!"",1,risk,,,,,0,0,0,0,0,18,18,18,,,,,,,,,,,,,,,,,,,,,,,,,,,,,,,2410.7296250865393,None,2412.7519470954826,2414.2306050877955,2414.247198552422,None,2415.7476905746335,None,2,2417.7647841478033,None,2417.7647841478033,None,2417.7647841478033,None,None,None,None,None,2418.716446231178,None,2418.716446231178,None,right,2418.716446231178,None,None,None,2418.981959081915,2420.665769498479,0.835049398159299,0.24338335870197625,,,,,,,,,,,,, 105,001,18,0,2019_Dec_05_1118,Test,3.1.2,59.98406793692176,
Pictures/IA50_L40.bmp,Pictures/IA50_L40.bmp,Pictures/IA50.bmp,"

"That gamble doesn't sound too good, play it safe."",0,safe,,,,,0,0,0,0,0,19,19,0,,,,,,,,,,,,,,,,,,,,,,,,,,,,,,,2420.682438850223,None,2422.70138419346,2424.1834437325015,2424.2001152613348,None,2425.733856415354,None,1,2427.717653582774,None,2427.717653582774,None,2427.717653582774,None,2429.234380782894,None,2429.234380782894,2430.218524729559,2431.3018954362606,None,2431.3018954362606,None,right,2431.3018954362606,None,None,None,2431.952325162613,2433.2026553026744,1.4098887134086908,0.6336568073543276,,,,,,,,,,,,, 105,001,18,0,2019_Dec_05_1118,Test,3.1.2,59.98406793692176,
,,,,,,,,,,0,0,0,0,,,,,,,,,,,,,,,,,,,,,,,,,,,,,,,,,,,,,,,,,,,,,,,,,,,,,,,,,,,,,,,,,,,,,,,,,2433.6856951539853,None,return,11.009477492316364,2433.6856951539853,None, 105,001,18,0,2019_Dec_05_1118,Test,3.1.2,59.98406793692176,
Pictures/IA25_G5.bmp,Pictures/IA25_G5.bmp,Pictures/IA25.bmp,"

"Let's stay with the certain option."",0,safe,,,,,1,0,1,0,0,0,0,3,,,,,,,,,,,,,2444.8054739492586,None,2444.8054739492586,None,2444.8054739492586,None,right,3.577561921088545,2444.8054739492586,None,2444.8054739492586,None,2444.8054739492586,None,return,5.977509111119616,2444.8054739492586,None,2450.840875600488,None,2452.8465039986913,2454.3253747237427,2454.3419563698835,None,2455.8422875984897,None,1,2457.8594359099084,None,2457.8594359099084,None,2457.8594359099084,None,2458.7430505750312,None,2458.7430505750312,2459.726902169687,2460.810300867539,None,2460.810300867539,None,right,2460.810300867539,None,None,None,2462.511028824042,None,0.7793062673426903,1.6763395786774709,,,,,,,,,,,,, 105,001,18,0,2019_Dec_05_1118,Test,3.1.2,59.98406793692176,
Pictures/IA20_10_L95p.bmp,Pictures/IA20_10_L95p.bmp,Pictures/IA20.bmp,"

"Don't be tempted to gamble."",0,safe,,,,,1,0,1,0,0,1,1,19,,,,,,,,,,,,,,,,,,,,,,,,,,,,,,,2462.727623719327,None,2464.79482642688,2466.2287579829203,2466.2454077408593,None,2467.7791915036287,None,2,2469.7795756044065,None,2469.7795756044065,None,2469.7795756044065,None,None,None,None,None,2471.6964720576793,None,2471.6964720576793,None,right,2471.6964720576793,None,None,None,2472.247081922631,2473.6308685778195,1.7866822463333847,0.525892124596794,,,,,,,,,,,,, 105,001,18,0,2019_Dec_05_1118,Test,3.1.2,59.98406793692176,
Pictures/IA50_L30.bmp,Pictures/IA50_L30.bmp,Pictures/IA50.bmp,"

"Take a leap, I think you should gamble."",1,risk,,,,,1,0,1,0,0,2,2,5,,,,,,,,,,,,,,,,,,,,,,,,,,,,,,,2473.6475313982946,None,2475.6697560602393,2477.1485188638576,2477.165148405966,None,2478.665614303104,None,1,2480.699401798027,None,2480.699401798027,None,2480.699401798027,None,2481.0491499709824,None,2481.0491499709824,2482.033243222565,2483.1013326275415,None,2483.1013326275415,None,None,2483.1013326275415,None,None,None,None,None,0.23462119576970508,,,,,,,,,,,,,, 105,001,18,0,2019_Dec_05_1118,Test,3.1.2,59.98406793692176,
Pictures/IA50_G40.bmp,Pictures/IA50_G40.bmp,Pictures/IA50.bmp,"

"It would probably be best to play it safe."",0,safe,,,,,1,0,1,0,0,3,3,1,,,,,,,,,,,,,,,,,,,,,,,,,,,,,,,2485.0341193455542,None,2487.0560849338567,2488.5351369793566,2488.551783005142,None,2490.0521860777,None,2,2492.0693499397566,None,2492.0693499397566,None,2492.0693499397566,None,None,None,None,None,2494.052845424784,None,2494.052845424784,None,left,2494.052845424784,None,2494.9535654815627,2495.9872295044133,None,None,1.8564486321965887,0.8728523790300642,,,,,,,,,,,,, 105,001,18,0,2019_Dec_05_1118,Test,3.1.2,59.98406793692176,
Pictures/IA75_L45.bmp,Pictures/IA75_L45.bmp,Pictures/IA75.bmp,"

"Don't gamble for this one, play it safe."",0,safe,,,,,1,0,1,0,0,4,4,13,,,,,,,,,,,,,,,,,,,,,,,,,,,,,,,2496.003900722234,None,2498.0257922894957,2499.5048975181803,2499.521451173171,None,2501.021859221933,None,1,2503.040403669702,None,2503.040403669702,None,2503.040403669702,None,2504.1726767812165,None,2504.1726767812165,2505.1565283758728,2506.2396894599638,None,2506.2396894599638,None,left,2506.2396894599638,None,2507.023723432511,2508.140697825585,None,None,1.0211233657055345,0.7576610221994997,,,,,,,,,,,,, 105,001,18,0,2019_Dec_05_1118,Test,3.1.2,59.98406793692176,
Pictures/IA75_G60.bmp,Pictures/IA75_G60.bmp,Pictures/IA75.bmp,"

"Make it exciting, take a chance!"",1,risk,,,,,1,0,1,0,0,5,5,10,,,,,,,,,,,,,,,,,,,,,,,,,,,,,,,2508.157376818725,None,2510.177359389569,2511.6583596190962,2511.675037057172,None,2513.208777278153,None,2,2515.192566048228,None,2515.192566048228,None,2515.192566048228,None,None,None,None,None,2516.609334364237,None,2516.609334364237,None,left,2516.609334364237,None,2516.909864454412,2518.5436668157454,None,None,1.2765855275806643,0.27581359387068005,,,,,,,,,,,,, 105,001,18,0,2019_Dec_05_1118,Test,3.1.2,59.98406793692176,
Pictures/IA50_L20.bmp,Pictures/IA50_L20.bmp,Pictures/IA50.bmp,"

"Certainty is boring, take a risk!"",1,risk,,,,,1,0,1,0,0,6,6,15,,,,,,,,,,,,,,,,,,,,,,,,,,,,,,,2518.560300090007,None,2520.582192590307,2522.0613208339373,2522.0779422897135,None,2523.5783127059294,None,1,2525.598299941965,None,2525.598299941965,None,2525.598299941965,None,2526.530478318988,None,2526.530478318988,2527.529562075351,2528.612716006148,None,2528.612716006148,None,right,2528.612716006148,None,None,None,2528.9299670761875,2530.5137181515142,0.8464912471672505,0.2960863396347122,,,,,,,,,,,,, 105,001,18,0,2019_Dec_05_1118,Test,3.1.2,59.98406793692176,
Pictures/IA20_10_G95p.bmp,Pictures/IA20_10_G95p.bmp,Pictures/IA20.bmp,"

"Take a leap, I think you should gamble."",1,risk,,,,,1,0,1,0,0,7,7,18,,,,,,,,,,,,,,,,,,,,,,,,,,,,,,,2530.5304136283307,None,2532.5525163732673,2534.0314020269325,2534.048070134625,None,2535.5817910728138,None,1,2537.568191417167,None,2537.568191417167,None,2537.568191417167,None,2539.6494040062175,None,2539.6494040062175,2540.6332919893684,2541.6999837029307,None,2541.6999837029307,None,left,2541.6999837029307,None,2542.1169821683934,2543.618078177415,None,None,1.980294541539024,0.3924878596162671,,,,,,,,,,,,, 105,001,18,0,2019_Dec_05_1118,Test,3.1.2,59.98406793692176,
Pictures/IA40_20_L95p.bmp,Pictures/IA40_20_L95p.bmp,Pictures/IA40.bmp,"

"Trust me, gamble!"",1,risk,,,,,1,0,1,0,0,8,8,0,,,,,,,,,,,,,,,,,,,,,,,,,,,,,,,2543.6341251925946,None,2545.655862186507,2547.13512634272,2547.1517776557225,None,2548.685572614952,None,2,2550.686022028413,None,2550.686022028413,None,2550.686022028413,None,None,None,None,None,2551.9555295272417,None,2551.9555295272417,None,right,2551.9555295272417,None,None,None,2552.203209838454,2553.8870656628833,1.1581599488945358,0.2245913447636667,,,,,,,,,,,,, 105,001,18,0,2019_Dec_05_1118,Test,3.1.2,59.98406793692176,
Pictures/IA50_L40.bmp,Pictures/IA50_L40.bmp,Pictures/IA50.bmp,"

"That gamble doesn't sound too good, play it safe."",0,safe,,,,,1,0,1,0,0,9,9,7,,,,,,,,,,,,,,,,,,,,,,,,,,,,,,,2553.9037424789335,None,2555.9243001124,2557.40472807842,2557.4213930759847,None,2558.921644063295,None,2,2560.9388791472775,None,2560.9388791472775,None,2560.9388791472775,None,None,None,None,None,2563.3226250597922,None,2563.3226250597922,None,None,2563.3226250597922,None,None,None,None,None,2.257030910315734,,,,,,,,,,,,,, 105,001,18,0,2019_Dec_05_1118,Test,3.1.2,59.98406793692176,
Pictures/IA75_L30.bmp,Pictures/IA75_L30.bmp,Pictures/IA75.bmp,"

"Hold back, stay with the safe choice."",0,safe,,,,,1,0,1,0,0,10,10,11,,,,,,,,,,,,,,,,,,,,,,,,,,,,,,,2565.290308344286,None,2567.3122646022052,2568.7913135375775,2568.8079769800784,None,2570.3083803636487,None,2,2572.341881415805,None,2572.341881415805,None,2572.341881415805,None,None,None,None,None,2573.3754291198775,None,2573.3754291198775,None,right,2573.3754291198775,None,None,None,2573.5093163876986,2575.309853009142,0.9096968185258447,0.11605721639853073,,,,,,,,,,,,, 105,001,18,0,2019_Dec_05_1118,Test,3.1.2,59.98406793692176,
Pictures/IA40_20_G95p.bmp,Pictures/IA40_20_G95p.bmp,Pictures/IA40.bmp,"

"Hold back, stay with the safe choice."",0,safe,,,,,1,0,1,0,0,11,11,16,,,,,,,,,,,,,,,,,,,,,,,,,,,,,,,2575.3265015230295,None,2577.345776228796,2578.8275045392315,2578.8441664266684,None,2580.3444282994255,None,2,2582.3617262079892,None,2582.3617262079892,None,2582.3617262079892,None,None,None,None,None,2583.094911457773,None,2583.094911457773,None,left,2583.094911457773,None,2583.3620848057194,2585.012615300211,None,None,0.6495212580343832,0.24439974845290635,,,,,,,,,,,,, 105,001,18,0,2019_Dec_05_1118,Test,3.1.2,59.98406793692176,
Pictures/IA110_55_G95p.bmp,Pictures/IA110_55_G95p.bmp,Pictures/IA110.bmp,"

"Take a chance!"",1,risk,,,,,1,0,1,0,0,12,12,14,,,,,,,,,,,,,,,,,,,,,,,,,,,,,,,2585.0292255595273,None,2587.0507933624895,2588.5302686963773,2588.546899482537,None,2590.047351695113,None,1,2592.0811472763676,None,2592.0811472763676,None,2592.0811472763676,None,2592.7142989989743,None,2592.7142989989743,2593.698294903558,2594.7649262806417,None,2594.7649262806417,None,left,2594.7649262806417,None,2596.365826600425,None,None,None,0.537777477823056,1.573999580754844,,,,,,,,,,,,, 105,001,18,0,2019_Dec_05_1118,Test,3.1.2,59.98406793692176,
Pictures/IA100_G60.bmp,Pictures/IA100_G60.bmp,Pictures/IA100.bmp,"

"Be cautious, don't gamble for this one."",0,safe,,,,,1,0,1,0,0,13,13,2,,,,,,,,,,,,,,,,,,,,,,,,,,,,,,,2596.699254999997,None,2598.7212411151427,2600.200262059365,2600.216929234019,None,2601.7506906038684,None,2,2603.750831181643,None,2603.750831181643,None,2603.750831181643,None,None,None,None,None,2604.7177313359675,None,2604.7177313359675,None,right,2604.7177313359675,None,None,None,2605.0182785318457,2606.6520936447027,0.8357864984377557,0.26887925302207805,,,,,,,,,,,,, 105,001,18,0,2019_Dec_05_1118,Test,3.1.2,59.98406793692176,
Pictures/IA75_L15.bmp,Pictures/IA75_L15.bmp,Pictures/IA75.bmp,"

"Trust me, gamble!"",1,risk,,,,,1,0,1,0,0,14,14,17,,,,,,,,,,,,,,,,,,,,,,,,,,,,,,,2606.6687822792383,None,2608.690849257706,2610.1697569932776,2610.1864151485615,None,2611.720174652334,None,1,2613.705845049703,None,2613.705845049703,None,2613.705845049703,None,2614.8541701526015,None,2614.8541701526015,2615.8380550256243,2616.9045290302433,None,2616.9045290302433,None,right,2616.9045290302433,None,None,None,2617.2384450978475,2618.8221967952,1.064529863757798,0.30580393381387694,,,,,,,,,,,,, 105,001,18,0,2019_Dec_05_1118,Test,3.1.2,59.98406793692176,
Pictures/IA100_G40.bmp,Pictures/IA100_G40.bmp,Pictures/IA100.bmp,"

"Try your luck and gamble!"",1,risk,,,,,1,0,1,0,0,15,15,12,,,,,,,,,,,,,,,,,,,,,,,,,,,,,,,2618.838904090502,None,2620.8608186727092,2622.33990555164,2622.356563395911,None,2623.8569487407403,None,2,2625.8904703197395,None,2625.8904703197395,None,2625.8904703197395,None,None,None,None,None,2626.2907462502744,None,2626.2907462502744,None,right,2626.2907462502744,None,None,None,2627.0912029414344,2628.224916664127,0.2795628528829184,0.7833593858367749,,,,,,,,,,,,, 105,001,18,0,2019_Dec_05_1118,Test,3.1.2,59.98406793692176,
Pictures/IA100_L20.bmp,Pictures/IA100_L20.bmp,Pictures/IA100.bmp,"

"Try to win as much money as you can, gamble!"",1,risk,,,,,1,0,1,0,0,16,16,9,,,,,,,,,,,,,,,,,,,,,,,,,,,,,,,2628.2415639339633,None,2630.261448535783,2631.742576902574,2631.7758957012434,None,2633.293010423282,None,None,2635.2769139570714,None,2635.2769139570714,None,2635.2769139570714,None,None,None,None,None,2638.343972976722,None,2638.343972976722,None,right,2638.343972976722,None,None,None,2640.1282893488697,None,,1.7617586155206482,,,,,,,,,,,,, 105,001,18,0,2019_Dec_05_1118,Test,3.1.2,59.98406793692176,
Pictures/IA50_G30.bmp,Pictures/IA50_G30.bmp,Pictures/IA50.bmp,"

"I think you should gamble."",1,risk,,,,,1,0,1,0,0,17,17,6,,,,,,,,,,,,,,,,,,,,,,,,,,,,,,,2640.2950049482133,None,2642.3165755502905,2643.7959908587122,2643.81260236208,None,2645.31291275283,None,1,2647.333870970752,None,2647.333870970752,None,2647.333870970752,None,2648.2970806474787,None,2648.2970806474787,2649.2808818580647,2650.3486574511508,None,2650.3486574511508,None,left,2650.3486574511508,None,2651.564899968961,None,None,None,0.8516624565904749,1.1887337488046796,,,,,,,,,,,,, 105,001,18,0,2019_Dec_05_1118,Test,3.1.2,59.98406793692176,
Pictures/IA25_L20.bmp,Pictures/IA25_L20.bmp,Pictures/IA25.bmp,"

"Don't be tempted to gamble."",0,safe,,,,,1,0,1,0,0,18,18,4,,,,,,,,,,,,,,,,,,,,,,,,,,,,,,,2652.2817670004247,None,2654.3039170193033,2655.7827298959787,2655.7994207076035,None,2657.333170258968,None,2,2659.316946277519,None,2659.316946277519,None,2659.316946277519,None,None,None,None,None,2661.45062174564,None,2661.45062174564,None,right,2661.45062174564,None,None,None,2661.684371483612,2663.384935225369,2.0361157365623512,0.21442589218668218,,,,,,,,,,,,, 105,001,18,0,2019_Dec_05_1118,Test,3.1.2,59.98406793692176,
Pictures/IA75_G30.bmp,Pictures/IA75_G30.bmp,Pictures/IA75.bmp,"

"Be bold, gamble!"",1,risk,,,,,1,0,1,0,0,19,19,8,,,,,,,,,,,,,,,,,,,,,,,,,,,,,,,2663.401579385078,None,2665.4218250727304,2666.9025845783694,2666.919224694912,None,2668.419497764129,None,1,2670.4197552827072,None,2670.4197552827072,None,2670.4197552827072,None,2672.0371542082203,None,2672.0371542082203,2673.0372932309315,2674.0758441975277,None,2674.0758441975277,None,left,2674.0758441975277,None,2674.4375943535006,2676.021653642488,None,None,1.564848340840399,0.332829699978447,,,,,,,,,,,,, 105,001,18,0,2019_Dec_05_1118,Test,3.1.2,59.98406793692176,
,,,,,,,,,,1,0,1,0,,,,,,,,,,,,,,,,,,,,,,,,,,,,,,,,,,,,,,,,,,,,,,,,,,,,,,,,,,,,,,,,,,,,,,,,,2676.1381021129587,None,return,16.246062422751947,2676.1381021129587,None, 105,001,18,0,2019_Dec_05_1118,Test,3.1.2,59.98406793692176,
Pictures/IA25_L5.bmp,Pictures/IA25_L5.bmp,Pictures/IA25.bmp,"

"It would be smarter to choose the safe option."",0,safe,,,,,2,0,2,0,0,0,0,17,,,,,,,,,,,,,2692.4805007430095,None,2692.4805007430095,None,2692.4805007430095,None,left,1.0878038828077479,2692.4805007430095,None,2692.4805007430095,None,2692.4805007430095,None,return,1.9676369435906054,2692.4805007430095,None,2694.5103150497216,None,2696.515172447254,2697.9944160766236,2698.011039709489,None,2699.5618881212404,None,2,2701.528988567792,None,2701.528988567792,None,2701.528988567792,None,None,None,None,None,2702.6956547161044,None,2702.6956547161044,None,right,2702.6956547161044,None,None,None,2702.912848310983,2704.6300111155965,1.0230911435378403,0.19238130663961783,,,,,,,,,,,,, 105,001,18,0,2019_Dec_05_1118,Test,3.1.2,59.98406793692176,
Pictures/IA100_L80.bmp,Pictures/IA100_L80.bmp,Pictures/IA100.bmp,"

"Go all in!"",1,risk,,,,,2,0,2,0,0,1,1,9,,,,,,,,,,,,,,,,,,,,,,,,,,,,,,,2704.6466863765827,None,2706.6683285115987,2708.147684727593,2708.1643571894647,None,2709.6980970994327,None,1,2711.6985427807404,None,2711.6985427807404,None,2711.6985427807404,None,2713.33220580835,None,2713.33220580835,2714.332774650717,2715.416188588195,None,2715.416188588195,None,right,2715.416188588195,None,None,None,2716.4667185228636,None,1.5652007183152818,1.0314632964491466,,,,,,,,,,,,, 105,001,18,0,2019_Dec_05_1118,Test,3.1.2,59.98406793692176,
Pictures/IA25_L10.bmp,Pictures/IA25_L10.bmp,Pictures/IA25.bmp,"

"Dont be afraid to take the risk!"",1,risk,,,,,2,0,2,0,0,2,2,6,,,,,,,,,,,,,,,,,,,,,,,,,,,,,,,2717.3336286917993,None,2719.3558981395836,2720.834604338877,2720.8512167752824,None,2722.3902165333147,None,2,2724.3721522892715,None,2724.3721522892715,None,2724.3721522892715,None,None,None,None,None,2725.15206534254,None,2725.15206534254,None,right,2725.15206534254,None,None,None,2725.269232252522,2727.086392817844,0.6511777120781517,0.08723721753040081,,,,,,,,,,,,, 105,001,18,0,2019_Dec_05_1118,Test,3.1.2,59.98406793692176,
Pictures/IA50_G30.bmp,Pictures/IA50_G30.bmp,Pictures/IA50.bmp,"

"I think you should gamble."",1,risk,,,,,2,0,2,0,0,3,3,18,,,,,,,,,,,,,,,,,,,,,,,,,,,,,,,2727.1030833184564,None,2729.1225990591242,2730.60408540162,2730.6207479110826,None,2732.1211587589596,None,2,2734.1383167117738,None,2734.1383167117738,None,2734.1383167117738,None,None,None,None,None,2734.9715193160705,None,2734.9715193160705,None,right,2734.9715193160705,None,None,None,2735.08866352212,2736.905872605435,0.7168293989179801,0.09956140978374606,,,,,,,,,,,,, 105,001,18,0,2019_Dec_05_1118,Test,3.1.2,59.98406793692176,
Pictures/IA100_G40.bmp,Pictures/IA100_G40.bmp,Pictures/IA100.bmp,"

"Try your luck and gamble!"",1,risk,,,,,2,0,2,0,0,4,4,15,,,,,,,,,,,,,,,,,,,,,,,,,,,,,,,2736.922555019715,None,2738.944568192972,2740.423517915269,2740.440198774485,None,2741.940514763465,None,1,2743.9744275965368,None,2743.9744275965368,None,2743.9744275965368,None,2744.774512316417,None,2744.774512316417,2745.7583947013372,2746.8263929795708,None,2746.8263929795708,None,None,2746.8263929795708,None,None,None,None,None,0.7124500280219763,,,,,,,,,,,,,, 105,001,18,0,2019_Dec_05_1118,Test,3.1.2,59.98406793692176,
Pictures/IA75_L60.bmp,Pictures/IA75_L60.bmp,Pictures/IA75.bmp,"

"Why not take the gamble?"",1,risk,,,,,2,0,2,0,0,5,5,2,,,,,,,,,,,,,,,,,,,,,,,,,,,,,,,2748.7592474983685,None,2750.781838533363,2752.2602461603915,2752.2769257755567,None,2753.8105459456065,None,2,2755.7944501014213,None,2755.7944501014213,None,2755.7944501014213,None,None,None,None,None,2756.78237596344,None,2756.78237596344,None,right,2756.78237596344,None,None,None,2757.011613839073,2758.72872657063,0.8760856678468372,0.20011526133475854,,,,,,,,,,,,, 105,001,18,0,2019_Dec_05_1118,Test,3.1.2,59.98406793692176,
Pictures/IA100_L20.bmp,Pictures/IA100_L20.bmp,Pictures/IA100.bmp,"

"Try to win as much money as you can, gamble!"",1,risk,,,,,2,0,2,0,0,6,6,19,,,,,,,,,,,,,,,,,,,,,,,,,,,,,,,2758.7454363540346,None,2760.7632409024095,2762.246405469844,2762.2631018796988,None,2763.763347268779,None,1,2765.7806492205086,None,2765.7806492205086,None,2765.7806492205086,None,2766.9819960924356,None,2766.9819960924356,2767.964714356536,2769.0336046194107,None,2769.0336046194107,None,right,2769.0336046194107,None,None,None,2769.981974321541,None,1.0975836795423675,0.9166041012631467,,,,,,,,,,,,, 105,001,18,0,2019_Dec_05_1118,Test,3.1.2,59.98406793692176,
Pictures/IA100_G60.bmp,Pictures/IA100_G60.bmp,Pictures/IA100.bmp,"

"Be cautious, don't gamble for this one."",0,safe,,,,,2,0,2,0,0,7,7,4,,,,,,,,,,,,,,,,,,,,,,,,,,,,,,,2770.965592967628,None,2772.9873551535748,2774.466584165344,2774.483254761139,None,2775.983657211671,None,1,2778.017458080143,None,2778.017458080143,None,2778.017458080143,None,2778.9509374236072,None,2778.9509374236072,2779.9348033248507,2781.0029452909866,None,2781.0029452909866,None,left,2781.0029452909866,None,2782.235456887098,None,None,None,0.8284929378328343,1.2109105147819719,,,,,,,,,,,,, 105,001,18,0,2019_Dec_05_1118,Test,3.1.2,59.98406793692176,
Pictures/IA50_G10.bmp,Pictures/IA50_G10.bmp,Pictures/IA50.bmp,"

"Go with the safe option here!"",0,safe,,,,,2,0,2,0,0,8,8,1,,,,,,,,,,,,,,,,,,,,,,,,,,,,,,,2782.9354847538425,None,2784.95762233221,2786.4366594490966,2786.453315116278,None,2787.9537421368195,None,1,2789.9538820925686,None,2789.9538820925686,None,2789.9538820925686,None,2791.3044420088686,None,2791.3044420088686,2792.304988147303,2793.35529601885,None,2793.35529601885,None,left,2793.35529601885,None,2794.1721878691333,2795.272514370345,None,None,1.2597385875415057,0.7861115378896102,,,,,,,,,,,,, 105,001,18,0,2019_Dec_05_1118,Test,3.1.2,59.98406793692176,
Pictures/IA50_L40.bmp,Pictures/IA50_L40.bmp,Pictures/IA50.bmp,"

"That gamble doesn't sound too good, play it safe."",0,safe,,,,,2,0,2,0,0,9,9,5,,,,,,,,,,,,,,,,,,,,,,,,,,,,,,,2795.2891914974084,None,2797.31090827549,2798.790169943601,2798.806855156996,None,2800.307236458659,None,1,2802.3243611331063,None,2802.3243611331063,None,2802.3243611331063,None,2803.657720798855,None,2803.657720798855,2804.6418364433575,2805.710662015574,None,2805.710662015574,None,left,2805.710662015574,None,2806.142271550231,2807.626034817258,None,None,1.2327930626734087,0.41443914133105864,,,,,,,,,,,,, 105,001,18,0,2019_Dec_05_1118,Test,3.1.2,59.98406793692176,
Pictures/IA75_L45.bmp,Pictures/IA75_L45.bmp,Pictures/IA75.bmp,"

"Don't gamble for this one, play it safe."",0,safe,,,,,2,0,2,0,0,10,10,7,,,,,,,,,,,,,,,,,,,,,,,,,,,,,,,2807.642660627213,None,2809.6605395076417,2811.1435868232593,2811.160374048845,None,2812.660665467816,None,1,2814.677927920923,None,2814.677927920923,None,2814.677927920923,None,2815.9114807878077,None,2815.9114807878077,2816.8953308273994,2817.964263388011,None,2817.964263388011,None,left,2817.964263388011,None,2818.8458371873,2819.8794806833075,None,None,1.1270123304125264,0.8645041741024215,,,,,,,,,,,,, 105,001,18,0,2019_Dec_05_1118,Test,3.1.2,59.98406793692176,
Pictures/IA100_L60.bmp,Pictures/IA100_L60.bmp,Pictures/IA100.bmp,"

"You'd have a lot to lose, don't gamble."",0,safe,,,,,2,0,2,0,0,11,11,10,,,,,,,,,,,,,,,,,,,,,,,,,,,,,,,2819.8961814473414,None,2821.91753931668,2823.3971642477127,2823.413740295624,None,2824.9142637301256,None,1,2826.9146630705295,None,2826.9146630705295,None,2826.9146630705295,None,2827.9481737640817,None,2827.9481737640817,2828.931894422359,2829.982308660275,None,2829.982308660275,None,None,2829.982308660275,None,None,None,None,None,0.9538267322946012,,,,,,,,,,,,,, 105,001,18,0,2019_Dec_05_1118,Test,3.1.2,59.98406793692176,
Pictures/IA25_G10.bmp,Pictures/IA25_G10.bmp,Pictures/IA25.bmp,"

"What's life without a little risk?"",1,risk,,,,,2,0,2,0,0,12,12,11,,,,,,,,,,,,,,,,,,,,,,,,,,,,,,,2831.933084668252,None,2833.9367583511594,2835.433603437562,2835.433603437562,None,2836.955704316422,None,2,2838.9400917860903,None,2838.9400917860903,None,2838.9400917860903,None,None,None,None,None,2839.7188099282744,None,2839.7188099282744,None,right,2839.7188099282744,None,None,None,2840.1850090598023,2841.6520491698757,0.6799398625698814,0.44516222737411226,,,,,,,,,,,,, 105,001,18,0,2019_Dec_05_1118,Test,3.1.2,59.98406793692176,
Pictures/IA40_20_L95p.bmp,Pictures/IA40_20_L95p.bmp,Pictures/IA40.bmp,"

"Trust me, gamble!"",1,risk,,,,,2,0,2,0,0,13,13,12,,,,,,,,,,,,,,,,,,,,,,,,,,,,,,,2841.66865134286,None,2843.6727106816093,2845.169914676755,2845.1866316134533,None,2846.687139808329,None,1,2848.704250798214,None,2848.704250798214,None,2848.704250798214,None,2849.704427142458,None,2849.704427142458,2850.6883054842124,2851.759042851962,None,2851.759042851962,None,right,2851.759042851962,None,None,None,2852.2387436701124,2853.6724795991167,0.9157242461205897,0.46087054964073104,,,,,,,,,,,,, 105,001,18,0,2019_Dec_05_1118,Test,3.1.2,59.98406793692176,
Pictures/IA20_10_L95p.bmp,Pictures/IA20_10_L95p.bmp,Pictures/IA20.bmp,"

"Don't be tempted to gamble."",0,safe,,,,,2,0,2,0,0,14,14,0,,,,,,,,,,,,,,,,,,,,,,,,,,,,,,,2853.68913993149,None,2855.707640215445,2857.1901295741427,2857.206771245749,None,2858.7070119696377,None,2,2860.724365549488,None,2860.724365549488,None,2860.724365549488,None,None,None,None,None,2861.979301477746,None,2861.979301477746,None,right,2861.979301477746,None,None,None,2862.675051052747,2863.925383369898,1.1352936675930323,0.6723486627383863,,,,,,,,,,,,, 105,001,18,0,2019_Dec_05_1118,Test,3.1.2,59.98406793692176,
Pictures/IA100_G80.bmp,Pictures/IA100_G80.bmp,Pictures/IA100.bmp,"

"Why not gamble?"",1,risk,,,,,2,0,2,0,0,15,15,14,,,,,,,,,,,,,,,,,,,,,,,,,,,,,,,2863.9420822678553,None,2865.9634986075957,2867.443069111393,2867.4597412622516,None,2868.9934699757596,None,1,2870.979093721212,None,2870.979093721212,None,2870.979093721212,None,2872.160776499377,None,2872.160776499377,2873.1446952727924,2874.227842983334,None,2874.227842983334,None,left,2874.227842983334,None,2874.561755318785,2876.128870009722,None,None,1.0883204750284676,0.3113545788232841,,,,,,,,,,,,, 105,001,18,0,2019_Dec_05_1118,Test,3.1.2,59.98406793692176,
Pictures/IA80_40_G95p.bmp,Pictures/IA80_40_G95p.bmp,Pictures/IA80.bmp,"

"Think of the payoff, gamble!"",1,risk,,,,,2,0,2,0,0,16,16,13,,,,,,,,,,,,,,,,,,,,,,,,,,,,,,,2876.145532208172,None,2878.166524948512,2879.64653366931,2879.663194001683,None,2881.163629730582,None,1,2883.1974327761436,None,2883.1974327761436,None,2883.1974327761436,None,2884.1501115602828,None,2884.1501115602828,2885.1481123701597,2886.2312840286854,None,2886.2312840286854,None,left,2886.2312840286854,None,2886.5651848566636,2888.1322902172174,None,None,0.8535002310827622,0.30768338401821893,,,,,,,,,,,,, 105,001,18,0,2019_Dec_05_1118,Test,3.1.2,59.98406793692176,
Pictures/IA75_G45.bmp,Pictures/IA75_G45.bmp,Pictures/IA75.bmp,"

"Don't gamble for this one."",0,safe,,,,,2,0,2,0,0,17,17,3,,,,,,,,,,,,,,,,,,,,,,,,,,,,,,,2888.1489698323826,None,2890.170035038699,2891.649965384278,2891.666644999443,None,2893.200383354347,None,1,2895.1875621636786,None,2895.1875621636786,None,2895.1875621636786,None,2896.150976797825,None,2896.150976797825,2897.1515291565147,2898.2347459118923,None,2898.2347459118923,None,right,2898.2347459118923,None,None,None,2898.8853218142494,2900.1357116687636,0.8711732210535956,0.6318886997241862,,,,,,,,,,,,, 105,001,18,0,2019_Dec_05_1118,Test,3.1.2,59.98406793692176,
Pictures/IA110_55_L95p.bmp,Pictures/IA110_55_L95p.bmp,Pictures/IA110.bmp,"

"Trust me, gamble!"",1,risk,,,,,2,0,2,0,0,18,18,8,,,,,,,,,,,,,,,,,,,,,,,,,,,,,,,2900.152387551776,None,2902.1731401902525,2903.6533849697475,2903.670025397303,None,2905.1703084189294,None,2,2907.187537282656,None,2907.187537282656,None,2907.187537282656,None,None,None,None,None,2908.5710107479795,None,2908.5710107479795,None,right,2908.5710107479795,None,None,None,2908.854811149932,2910.50535128582,1.2708196617300018,0.2552372996374288,,,,,,,,,,,,, 105,001,18,0,2019_Dec_05_1118,Test,3.1.2,59.98406793692176,
Pictures/IA75_L15.bmp,Pictures/IA75_L15.bmp,Pictures/IA75.bmp,"

"Trust me, gamble!"",1,risk,,,,,2,0,2,0,0,19,19,16,,,,,,,,,,,,,,,,,,,,,,,,,,,,,,,2910.5219696314684,None,2912.5434764759266,2914.023009658191,2914.0396665694234,None,2915.540085814645,None,1,2917.573880462862,None,2917.573880462862,None,2917.573880462862,None,2918.7741785997086,None,2918.7741785997086,2919.7413123246274,2920.824707290326,None,2920.824707290326,None,right,2920.824707290326,None,None,None,2921.241741833271,2922.725464046612,1.1242197466990547,0.3933789112188606,,,,,,,,,,,,, 105,001,18,0,2019_Dec_05_1118,Test,3.1.2,59.98406793692176,
,,,,,,,,,,2,0,2,0,,,,,,,,,,,,,,,,,,,,,,,,,,,,,,,,,,,,,,,,,,,,,,,,,,,,,,,,,,,,,,,,,,,,,,,,,2922.841713157893,None,return,7.592095859114124,2922.841713157893,None, 105,001,18,0,2019_Dec_05_1118,Test,3.1.2,59.98406793692176,
Pictures/IA25_G15.bmp,Pictures/IA25_G15.bmp,Pictures/IA25.bmp,"

"I think you should take a gamble."",1,risk,,,,,3,0,3,0,0,0,0,5,,,,,,,,,,,,,2930.5479227145693,None,2930.5479227145693,None,2930.5479227145693,None,left,1.5498065189522094,2930.5479227145693,None,2930.5479227145693,None,2930.5479227145693,None,return,6.053559199104711,2930.5479227145693,None,2936.662612718805,None,2938.6628786347283,2940.1471165072517,2940.163783992919,None,2941.664200128013,None,1,2943.681280638646,None,2943.681280638646,None,2943.681280638646,None,2944.8481694721054,None,2944.8481694721054,2945.848724940923,2946.91675276537,None,2946.91675276537,None,right,2946.91675276537,None,None,None,2947.3157921091083,2948.8329264249514,1.0721499877772658,0.38055523244747747,,,,,,,,,,,,, 105,001,18,0,2019_Dec_05_1118,Test,3.1.2,59.98406793692176,
Pictures/IA25_L15.bmp,Pictures/IA25_L15.bmp,Pictures/IA25.bmp,"

"There's not much on the line here, gamble!"",1,risk,,,,,3,0,3,0,0,1,1,13,,,,,,,,,,,,,,,,,,,,,,,,,,,,,,,2948.84960977227,None,2950.8679091419717,2952.350589151501,2952.3672793411006,None,2953.8675654728545,None,1,2955.8848556060984,None,2955.8848556060984,None,2955.8848556060984,None,2956.851360463185,None,2956.851360463185,2957.835459001985,2958.9189074618807,None,2958.9189074618807,None,right,2958.9189074618807,None,None,None,2959.302546697013,2960.8196726155115,0.8601885608259181,0.36207485331078715,,,,,,,,,,,,, 105,001,18,0,2019_Dec_05_1118,Test,3.1.2,59.98406793692176,
Pictures/IA75_G15.bmp,Pictures/IA75_G15.bmp,Pictures/IA75.bmp,"

"Take a chance!"",1,risk,,,,,3,0,3,0,0,2,2,0,,,,,,,,,,,,,,,,,,,,,,,,,,,,,,,2960.8363382351017,None,2962.8580494149537,2964.3373294328185,2964.3539539987223,None,2965.854284916316,None,1,2967.875153562558,None,2967.875153562558,None,2967.875153562558,None,2969.1385008313373,None,2969.1385008313373,2970.1223291000347,2971.189007129035,None,2971.189007129035,None,left,2971.189007129035,None,2971.7061106546134,2973.106478022904,None,None,1.1735323773632444,0.4995605389476623,,,,,,,,,,,,, 105,001,18,0,2019_Dec_05_1118,Test,3.1.2,59.98406793692176,
Pictures/IA50_G40.bmp,Pictures/IA50_G40.bmp,Pictures/IA50.bmp,"

"It would probably be best to play it safe."",0,safe,,,,,3,0,3,0,0,3,3,16,,,,,,,,,,,,,,,,,,,,,,,,,,,,,,,2973.1231862512445,None,2975.1442051166578,2976.624149457811,2976.6408539539984,None,2978.1412601366837,None,1,2980.1583418913683,None,2980.1583418913683,None,2980.1583418913683,None,2981.9588187983586,None,2981.9588187983586,2982.9426591965544,2984.0258087731727,None,2984.0258087731727,None,left,2984.0258087731727,None,2984.3597046249465,2985.92674156269,None,None,1.6900602182936382,0.3025040882630492,,,,,,,,,,,,, 105,001,18,0,2019_Dec_05_1118,Test,3.1.2,59.98406793692176,
Pictures/IA75_L30.bmp,Pictures/IA75_L30.bmp,Pictures/IA75.bmp,"

"Hold back, stay with the safe choice."",0,safe,,,,,3,0,3,0,0,4,4,3,,,,,,,,,,,,,,,,,,,,,,,,,,,,,,,2985.943496131934,None,2987.9646888534885,2989.444496349021,2989.4611573034194,None,2990.961575615603,None,2,2992.995350047989,None,2992.995350047989,None,2992.995350047989,None,None,None,None,None,2993.5118794439836,None,2993.5118794439836,None,right,2993.5118794439836,None,None,None,2994.695937115705,None,0.3887326913618381,1.1601361240718688,,,,,,,,,,,,, 105,001,18,0,2019_Dec_05_1118,Test,3.1.2,59.98406793692176,
Pictures/IA80_40_L95p.bmp,Pictures/IA80_40_L95p.bmp,Pictures/IA80.bmp,"

"Let's stay with the certain option."",0,safe,,,,,3,0,3,0,0,5,5,6,,,,,,,,,,,,,,,,,,,,,,,,,,,,,,,2995.462882491287,None,2997.482350024974,2998.9635847581344,2998.9805492610026,None,3000.514282950715,None,2,3002.498074519905,None,3002.498074519905,None,3002.498074519905,None,None,None,None,None,3003.2312768753914,None,3003.2312768753914,None,right,3003.2312768753914,None,None,None,3003.498496253229,3005.165642605267,0.6057403005997912,0.24849143253095463,,,,,,,,,,,,, 105,001,18,0,2019_Dec_05_1118,Test,3.1.2,59.98406793692176,
Pictures/IA20_10_G95p.bmp,Pictures/IA20_10_G95p.bmp,Pictures/IA20.bmp,"

"Take a leap, I think you should gamble."",1,risk,,,,,3,0,3,0,0,6,6,10,,,,,,,,,,,,,,,,,,,,,,,,,,,,,,,3005.182325019547,None,3007.2028954045372,3008.683298800548,3008.6999725064707,None,3010.200240910496,None,1,3012.217492478156,None,3012.217492478156,None,3012.217492478156,None,3013.287337550252,None,3013.287337550252,3014.2849160047795,3015.351727147248,None,3015.351727147248,None,left,3015.351727147248,None,3015.852019499257,3017.2691115795656,None,None,0.9820100880106111,0.4796622525659586,,,,,,,,,,,,, 105,001,18,0,2019_Dec_05_1118,Test,3.1.2,59.98406793692176,
Pictures/IA50_L20.bmp,Pictures/IA50_L20.bmp,Pictures/IA50.bmp,"

"Certainty is boring, take a risk!"",1,risk,,,,,3,0,3,0,0,7,7,2,,,,,,,,,,,,,,,,,,,,,,,,,,,,,,,3017.285722460907,None,3019.306465457988,3020.7867500471184,3020.803344444783,None,3022.3038414431985,None,1,3024.337629560147,None,3024.337629560147,None,3024.337629560147,None,3025.571174962725,None,3025.571174962725,3026.5717316755936,3027.65501996391,None,3027.65501996391,None,left,3027.65501996391,None,3028.7223548518923,None,None,None,1.1494938889100013,1.0400208129749444,,,,,,,,,,,,, 105,001,18,0,2019_Dec_05_1118,Test,3.1.2,59.98406793692176,
Pictures/IA100_L20.bmp,Pictures/IA100_L20.bmp,Pictures/IA100.bmp,"

"Try to win as much money as you can, gamble!"",1,risk,,,,,3,0,3,0,0,8,8,9,,,,,,,,,,,,,,,,,,,,,,,,,,,,,,,3029.572596913136,None,3031.5912701201937,3033.073611747823,3033.0902456441104,None,3034.5905106269956,None,2,3036.6078166218913,None,3036.6078166218913,None,3036.6078166218913,None,None,None,None,None,3037.4910562056066,None,3037.4910562056066,None,right,3037.4910562056066,None,None,None,3037.7415888149853,3039.4253606659654,0.758956701423358,0.21966117024157938,,,,,,,,,,,,, 105,001,18,0,2019_Dec_05_1118,Test,3.1.2,59.98406793692176,
Pictures/IA110_55_L95p.bmp,Pictures/IA110_55_L95p.bmp,Pictures/IA110.bmp,"

"Trust me, gamble!"",1,risk,,,,,3,0,3,0,0,9,9,14,,,,,,,,,,,,,,,,,,,,,,,,,,,,,,,3039.4420915982387,None,3041.4617295669273,3042.9430887051976,3042.9597496595966,None,3044.459990383485,None,1,3046.4772786506524,None,3046.4772786506524,None,3046.4772786506524,None,3046.8638454490433,None,3046.8638454490433,3047.861133728651,3048.944318449713,None,3048.944318449713,None,right,3048.944318449713,None,None,None,3049.39489727559,3050.8453358347056,0.3053315054075938,0.4221342194296085,,,,,,,,,,,,, 105,001,18,0,2019_Dec_05_1118,Test,3.1.2,59.98406793692176,
Pictures/IA50_L10.bmp,Pictures/IA50_L10.bmp,Pictures/IA50.bmp,"

"Play it safe, don’t gamble!"",0,safe,,,,,3,0,3,0,0,10,10,1,,,,,,,,,,,,,,,,,,,,,,,,,,,,,,,3050.8619890137848,None,3052.8836236844936,3054.362996695178,3054.3795360435815,None,3055.880063832262,None,1,3057.9138572364277,None,3057.9138572364277,None,3057.9138572364277,None,3059.266841497315,None,3059.266841497315,3060.264684623715,3061.33438507487,None,3061.33438507487,None,left,3061.33438507487,None,3061.815065272251,3063.248860604696,None,None,1.2682167958096215,0.4557867348075888,,,,,,,,,,,,, 105,001,18,0,2019_Dec_05_1118,Test,3.1.2,59.98406793692176,
Pictures/IA100_G40.bmp,Pictures/IA100_G40.bmp,Pictures/IA100.bmp,"

"Try your luck and gamble!"",1,risk,,,,,3,0,3,0,0,11,11,15,,,,,,,,,,,,,,,,,,,,,,,,,,,,,,,3063.265436341594,None,3065.284208139702,3066.766536082769,3066.7831727781713,None,3068.283529198812,None,2,3070.300759928616,None,3070.300759928616,None,3070.300759928616,None,None,None,None,None,3071.168470644437,None,3071.168470644437,None,left,3071.168470644437,None,3072.2681045201975,None,None,None,0.7611527626331736,1.0774067257134448,,,,,,,,,,,,, 105,001,18,0,2019_Dec_05_1118,Test,3.1.2,59.98406793692176,
Pictures/IA20_10_L95p.bmp,Pictures/IA20_10_L95p.bmp,Pictures/IA20.bmp,"

"Don't be tempted to gamble."",0,safe,,,,,3,0,3,0,0,12,12,18,,,,,,,,,,,,,,,,,,,,,,,,,,,,,,,3073.135008468878,None,3075.153377816454,3076.6360077529266,3076.6526820808745,None,3078.1529731888327,None,2,3080.1702039186366,None,3080.1702039186366,None,3080.1702039186366,None,None,None,None,None,3081.0736167240275,None,3081.0736167240275,None,right,3081.0736167240275,None,None,None,3081.587325545159,3083.021168773571,0.7873098701147683,0.4920032395089038,,,,,,,,,,,,, 105,001,18,0,2019_Dec_05_1118,Test,3.1.2,59.98406793692176,
Pictures/IA40_20_L95p.bmp,Pictures/IA40_20_L95p.bmp,Pictures/IA40.bmp,"

"Trust me, gamble!"",1,risk,,,,,3,0,3,0,0,13,13,11,,,,,,,,,,,,,,,,,,,,,,,,,,,,,,,3083.037827239867,None,3085.0583963808062,3086.5388119063155,3086.5554778369187,None,3088.0559008142936,None,1,3090.073031086971,None,3090.073031086971,None,3090.073031086971,None,3090.973129118198,None,3090.973129118198,3091.9570391832553,3093.026050741112,None,3093.026050741112,None,right,3093.026050741112,None,None,None,3093.30739787429,3094.9412201404407,0.8123395562843143,0.2592400340618042,,,,,,,,,,,,, 105,001,18,0,2019_Dec_05_1118,Test,3.1.2,59.98406793692176,
Pictures/IA100_L40.bmp,Pictures/IA100_L40.bmp,Pictures/IA100.bmp,"

"Think of the payoff, gamble!"",1,risk,,,,,3,0,3,0,0,14,14,19,,,,,,,,,,,,,,,,,,,,,,,,,,,,,,,3094.9579022437083,None,3096.9787030891653,3098.4588772687603,3098.47551925138,None,3099.9759730190194,None,2,3102.0097676672362,None,3102.0097676672362,None,3102.0097676672362,None,None,None,None,None,3103.2767089996523,None,3103.2767089996523,None,right,3103.2767089996523,None,None,None,3103.6436723517727,3105.1941522133848,1.1312576548020843,0.3442615965782352,,,,,,,,,,,,, 105,001,18,0,2019_Dec_05_1118,Test,3.1.2,59.98406793692176,
Pictures/IA50_G10.bmp,Pictures/IA50_G10.bmp,Pictures/IA50.bmp,"

"Go with the safe option here!"",0,safe,,,,,3,0,3,0,0,15,15,7,,,,,,,,,,,,,,,,,,,,,,,,,,,,,,,3105.2108172109492,None,3107.2318541151035,3108.7118174280363,3108.728479626486,None,3110.228877411826,None,2,3112.2459971100693,None,3112.2459971100693,None,3112.2459971100693,None,None,None,None,None,3113.045891801143,None,3113.045891801143,None,left,3113.045891801143,None,3113.2797684323277,3114.9802777468494,None,None,0.6787549038940597,0.21485042462563797,,,,,,,,,,,,, 105,001,18,0,2019_Dec_05_1118,Test,3.1.2,59.98406793692176,
Pictures/IA25_G20.bmp,Pictures/IA25_G20.bmp,Pictures/IA25.bmp,"

"I wouldn't gamble for this one. "",0,safe,,,,,3,0,3,0,0,16,16,12,,,,,,,,,,,,,,,,,,,,,,,,,,,,,,,3114.9969502087206,None,3117.018228769801,3118.4979286549133,3118.5145124781434,None,3120.0483715060045,None,2,3122.0488383361812,None,3122.0488383361812,None,3122.0488383361812,None,None,None,None,None,3123.1520871134344,None,3123.1520871134344,None,right,3123.1520871134344,None,None,None,3123.3826533246333,3125.0998304358345,0.9955777093414326,0.21244100865169457,,,,,,,,,,,,, 105,001,18,0,2019_Dec_05_1118,Test,3.1.2,59.98406793692176,
Pictures/IA75_L15.bmp,Pictures/IA75_L15.bmp,Pictures/IA75.bmp,"

"Trust me, gamble!"",1,risk,,,,,3,0,3,0,0,17,17,17,,,,,,,,,,,,,,,,,,,,,,,,,,,,,,,3125.1164773946584,None,3127.137057110032,3128.617498449601,3128.6341544277957,None,3130.134403860042,None,2,3132.152808974087,None,3132.152808974087,None,3132.152808974087,None,None,None,None,None,3132.518122403432,None,3132.518122403432,None,right,3132.518122403432,None,None,None,3132.685305143965,3134.452483468116,0.2434269004897942,0.15000892606667549,,,,,,,,,,,,, 105,001,18,0,2019_Dec_05_1118,Test,3.1.2,59.98406793692176,
Pictures/IA50_L40.bmp,Pictures/IA50_L40.bmp,Pictures/IA50.bmp,"

"That gamble doesn't sound too good, play it safe."",0,safe,,,,,3,0,3,0,0,18,18,8,,,,,,,,,,,,,,,,,,,,,,,,,,,,,,,3134.4691099000966,None,3136.490036394715,3137.9701639223936,3137.9868550450315,None,3139.4872295044133,None,1,3141.521037837192,None,3141.521037837192,None,3141.521037837192,None,3142.6712386581416,None,3142.6712386581416,3143.6551026933084,3144.7384908167255,None,3144.7384908167255,None,left,3144.7384908167255,None,3146.02239447492,None,None,None,1.0508605412492216,1.2653520571316221,,,,,,,,,,,,, 105,001,18,0,2019_Dec_05_1118,Test,3.1.2,59.98406793692176,
Pictures/IA100_L80.bmp,Pictures/IA100_L80.bmp,Pictures/IA100.bmp,"

"Go all in!"",1,risk,,,,,3,0,3,0,0,19,19,4,,,,,,,,,,,,,,,,,,,,,,,,,,,,,,,3146.6559601555314,None,3148.676599274345,3150.1569765452823,3150.173568143832,None,3151.6738723143267,None,1,3153.6916457614243,None,3153.6916457614243,None,3153.6916457614243,None,3155.274764547778,None,3155.274764547778,3156.2753741328183,3157.3585417481777,None,3157.3585417481777,None,left,3157.3585417481777,None,3159.192812059334,None,None,None,1.5038612236112385,1.804824554582865,,,,,,,,,,,,, 105,001,18,0,2019_Dec_05_1118,Test,3.1.2,59.98406793692176,
,,,,,,,,,,3,0,3,0,,,,,,,,,,,,,,,,,,,,,,,,,,,,,,,,,,,,,,,,,,,,,,,,,,,,,,,,,,,,,,,,,,,,,,,,,3159.3757892726717,None,return,6.0355867038306314,3159.3757892726717,None, 105,001,18,0,2019_Dec_05_1118,Test,3.1.2,59.98406793692176,
Pictures/IA75_L15.bmp,Pictures/IA75_L15.bmp,Pictures/IA75.bmp,"

"Trust me, gamble!"",1,risk,,,,,4,0,4,0,0,0,0,19,,,,,,,,,,,,,3165.511055571141,None,3165.511055571141,None,3165.511055571141,None,left,1.3001428792690604,3165.511055571141,None,3165.511055571141,None,3165.511055571141,None,return,2.2842504374393684,3165.511055571141,None,3167.8489973881146,None,3169.848756664226,3171.329626268388,3171.346308993681,None,3172.846716109404,None,1,3174.8802355113144,None,3174.8802355113144,None,3174.8802355113144,None,3176.3332256192416,None,3176.3332256192416,3177.3313461690377,3178.397828571002,None,3178.397828571002,None,right,3178.397828571002,None,None,None,3178.7483726256505,3180.315535834581,1.3546643519021018,0.3251604359411431,,,,,,,,,,,,, 105,001,18,0,2019_Dec_05_1118,Test,3.1.2,59.98406793692176,
Pictures/IA50_G20.bmp,Pictures/IA50_G20.bmp,Pictures/IA50.bmp,"

"Let's venture and take a risk!"",1,risk,,,,,4,0,4,0,0,1,1,11,,,,,,,,,,,,,,,,,,,,,,,,,,,,,,,3180.3322257131676,None,3182.3531833090638,3183.8332193989863,3183.849870711989,None,3185.35029990962,None,1,3187.383788521265,None,3187.383788521265,None,3187.383788521265,None,3188.937461551045,None,3188.937461551045,3189.934945768702,3191.0181230254575,None,3191.0181230254575,None,left,3191.0181230254575,None,3191.468635916626,3192.919133568169,None,None,1.4668152478370757,0.42443944612296036,,,,,,,,,,,,, 105,001,18,0,2019_Dec_05_1118,Test,3.1.2,59.98406793692176,
Pictures/IA100_L60.bmp,Pictures/IA100_L60.bmp,Pictures/IA100.bmp,"

"You'd have a lot to lose, don't gamble."",0,safe,,,,,4,0,4,0,0,2,2,10,,,,,,,,,,,,,,,,,,,,,,,,,,,,,,,3192.935792656491,None,3194.9564056502313,3196.4368112233315,3196.45343858835,None,3197.953885513709,None,1,3199.987662434198,None,3199.987662434198,None,3199.987662434198,None,3201.6213179975002,None,3201.6213179975002,3202.605225885469,3203.688400032096,None,3203.688400032096,None,right,3203.688400032096,None,None,None,3204.8058580500365,None,1.5346682831041107,1.0978306236866047,,,,,,,,,,,,, 105,001,18,0,2019_Dec_05_1118,Test,3.1.2,59.98406793692176,
Pictures/IA25_G10.bmp,Pictures/IA25_G10.bmp,Pictures/IA25.bmp,"

"What's life without a little risk?"",1,risk,,,,,4,0,4,0,0,3,3,3,,,,,,,,,,,,,,,,,,,,,,,,,,,,,,,3205.606099520356,None,3207.625391331825,3209.1070154529807,3209.1237267914494,None,3210.6239777787587,None,1,3212.6411413298038,None,3212.6411413298038,None,3212.6411413298038,None,3213.8583103546725,None,3213.8583103546725,3214.8420518508055,3215.925444017389,None,3215.925444017389,None,left,3215.925444017389,None,3217.476141587944,None,None,None,1.1046884553925338,1.5243557214844259,,,,,,,,,,,,, 105,001,18,0,2019_Dec_05_1118,Test,3.1.2,59.98406793692176,
Pictures/IA25_L15.bmp,Pictures/IA25_L15.bmp,Pictures/IA25.bmp,"

"There's not much on the line here, gamble!"",1,risk,,,,,4,0,4,0,0,4,4,17,,,,,,,,,,,,,,,,,,,,,,,,,,,,,,,3217.8429186434123,None,3219.8644705847228,3221.343910152141,3221.3605692404635,None,3222.860799078904,None,2,3224.877981290715,None,3224.877981290715,None,3224.877981290715,None,None,None,None,None,3225.8280842670456,None,3225.8280842670456,None,right,3225.8280842670456,None,None,None,3226.4953752400243,3227.76240396703,0.835472375534664,0.6455418495679623,,,,,,,,,,,,, 105,001,18,0,2019_Dec_05_1118,Test,3.1.2,59.98406793692176,
Pictures/IA80_40_L95p.bmp,Pictures/IA80_40_L95p.bmp,Pictures/IA80.bmp,"

"Let's stay with the certain option."",0,safe,,,,,4,0,4,0,0,5,5,1,,,,,,,,,,,,,,,,,,,,,,,,,,,,,,,3227.779072696748,None,3229.7978382746005,3231.280067626618,3231.2966890823936,None,3232.7969805013654,None,2,3234.8142647253662,None,3234.8142647253662,None,3234.8142647253662,None,None,None,None,None,3235.380774807468,None,3235.380774807468,None,right,3235.380774807468,None,None,None,3236.2815010845015,3237.315079578839,0.4358486387909579,0.8685865277975608,,,,,,,,,,,,, 105,001,18,0,2019_Dec_05_1118,Test,3.1.2,59.98406793692176,
Pictures/IA110_55_G95p.bmp,Pictures/IA110_55_G95p.bmp,Pictures/IA110.bmp,"

"Take a chance!"",1,risk,,,,,4,0,4,0,0,6,6,0,,,,,,,,,,,,,,,,,,,,,,,,,,,,,,,3237.3317878071794,None,3239.352844305138,3240.8327827370495,3240.8494536438566,None,3242.3498676018617,None,2,3244.3833633668,None,3244.3833633668,None,3244.3833633668,None,None,None,None,None,3245.2168642323486,None,3245.2168642323486,None,left,3245.2168642323486,None,3246.0175967918412,3247.151268216796,None,None,0.729754156841409,0.7844445094115144,,,,,,,,,,,,, 105,001,18,0,2019_Dec_05_1118,Test,3.1.2,59.98406793692176,
Pictures/IA20_10_G95p.bmp,Pictures/IA20_10_G95p.bmp,Pictures/IA20.bmp,"

"Take a leap, I think you should gamble."",1,risk,,,,,4,0,4,0,0,7,7,7,,,,,,,,,,,,,,,,,,,,,,,,,,,,,,,3247.1679307262584,None,3249.189130290094,3250.668937474614,3250.685591586731,None,3252.185972577381,None,2,3254.2195034867646,None,3254.2195034867646,None,3254.2195034867646,None,None,None,None,None,3255.41980037956,None,3255.41980037956,None,left,3255.41980037956,None,3256.187164378338,3257.3541384292985,None,None,1.0693374992451936,0.7490907541505294,,,,,,,,,,,,, 105,001,18,0,2019_Dec_05_1118,Test,3.1.2,59.98406793692176,
Pictures/IA50_L10.bmp,Pictures/IA50_L10.bmp,Pictures/IA50.bmp,"

"Play it safe, don’t gamble!"",0,safe,,,,,4,0,4,0,0,8,8,15,,,,,,,,,,,,,,,,,,,,,,,,,,,,,,,3257.3708485237157,None,3259.3914580963155,3260.8717908924264,3260.9713398616987,None,3262.3888981501577,None,2,3264.4227130142053,None,3264.4227130142053,None,3264.4227130142053,None,None,None,None,None,3266.7563491703113,None,3266.7563491703113,None,left,3266.7563491703113,None,3267.6737161859137,3268.690738226145,None,None,2.2176986796266647,0.8921933305173297,,,,,,,,,,,,, 105,001,18,0,2019_Dec_05_1118,Test,3.1.2,59.98406793692176,
Pictures/IA75_L60.bmp,Pictures/IA75_L60.bmp,Pictures/IA75.bmp,"

"Why not take the gamble?"",1,risk,,,,,4,0,4,0,0,9,9,12,,,,,,,,,,,,,,,,,,,,,,,,,,,,,,,3268.7074489425877,None,3270.7287520736772,3272.2083978425662,3272.2249841538987,None,3273.725466845727,None,1,3275.759270202301,None,3275.759270202301,None,3275.759270202301,None,3276.642481172841,None,3276.642481172841,3277.6432440871804,3278.7097641216906,None,3278.7097641216906,None,right,3278.7097641216906,None,None,None,3279.877193184341,None,0.7930163325245303,1.1464024219185376,,,,,,,,,,,,, 105,001,18,0,2019_Dec_05_1118,Test,3.1.2,59.98406793692176,
Pictures/IA110_55_L95p.bmp,Pictures/IA110_55_L95p.bmp,Pictures/IA110.bmp,"

"Trust me, gamble!"",1,risk,,,,,4,0,4,0,0,10,10,14,,,,,,,,,,,,,,,,,,,,,,,,,,,,,,,3280.6441354497956,None,3282.665148094953,3284.1451580598023,3284.1618103058436,None,3285.6622049810558,None,1,3287.6793308995548,None,3287.6793308995548,None,3287.6793308995548,None,3288.5461440325043,None,3288.5461440325043,3289.529926582324,3290.5964547031663,None,3290.5964547031663,None,right,3290.5964547031663,None,None,None,3291.7305895371574,None,0.7765951689762005,1.1073544569062506,,,,,,,,,,,,, 105,001,18,0,2019_Dec_05_1118,Test,3.1.2,59.98406793692176,
Pictures/IA100_L80.bmp,Pictures/IA100_L80.bmp,Pictures/IA100.bmp,"

"Go all in!"",1,risk,,,,,4,0,4,0,0,11,11,13,,,,,,,,,,,,,,,,,,,,,,,,,,,,,,,3292.530855266473,None,3294.5514511545107,3296.031813185822,3296.048438684764,None,3297.5488747246754,None,1,3299.5827334415244,None,3299.5827334415244,None,3299.5827334415244,None,3302.1500092370798,None,3302.1500092370798,3303.1505382698106,3304.2191744352476,None,3304.2191744352476,None,None,3304.2191744352476,None,None,None,None,None,2.4888439717333313,,,,,,,,,,,,,, 105,001,18,0,2019_Dec_05_1118,Test,3.1.2,59.98406793692176,
Pictures/IA50_L20.bmp,Pictures/IA50_L20.bmp,Pictures/IA50.bmp,"

"Certainty is boring, take a risk!"",1,risk,,,,,4,0,4,0,0,12,12,5,,,,,,,,,,,,,,,,,,,,,,,,,,,,,,,3306.1514056844426,None,3308.172802741391,3309.6523909729167,3309.6690708990945,None,3311.1694752157027,None,2,3313.203292878865,None,3313.203292878865,None,3313.203292878865,None,None,None,None,None,3314.336560298224,None,3314.336560298224,None,right,3314.336560298224,None,None,None,3314.5537688217155,3316.270949976083,1.0119220527340076,0.19060573470233066,,,,,,,,,,,,, 105,001,18,0,2019_Dec_05_1118,Test,3.1.2,59.98406793692176,
Pictures/IA25_G20.bmp,Pictures/IA25_G20.bmp,Pictures/IA25.bmp,"

"I wouldn't gamble for this one. "",0,safe,,,,,4,0,4,0,0,13,13,18,,,,,,,,,,,,,,,,,,,,,,,,,,,,,,,3316.287626792133,None,3318.309105956454,3319.7886164347856,3319.8051582712915,None,3321.305688237061,None,1,3323.3394934597127,None,3323.3394934597127,None,3323.3394934597127,None,3323.8895403915403,None,3323.8895403915403,3324.8900762665526,3325.957222680793,None,3325.957222680793,None,right,3325.957222680793,None,None,None,3326.2904339934476,3327.8742584677893,0.4594971172227815,0.3056244794415761,,,,,,,,,,,,, 105,001,18,0,2019_Dec_05_1118,Test,3.1.2,59.98406793692176,
Pictures/IA40_20_L95p.bmp,Pictures/IA40_20_L95p.bmp,Pictures/IA40.bmp,"

"Trust me, gamble!"",1,risk,,,,,4,0,4,0,0,14,14,9,,,,,,,,,,,,,,,,,,,,,,,,,,,,,,,3327.8909299966226,None,3329.9124614110897,3331.391920883326,3331.4085205682077,None,3332.909034672326,None,2,3334.9261114508063,None,3334.9261114508063,None,3334.9261114508063,None,None,None,None,None,3335.7610009883983,None,3335.7610009883983,None,right,3335.7610009883983,None,None,None,3336.0098538177754,3337.7104010758558,0.7204072898903178,0.2295762575331537,,,,,,,,,,,,, 105,001,18,0,2019_Dec_05_1118,Test,3.1.2,59.98406793692176,
Pictures/IA20_10_L95p.bmp,Pictures/IA20_10_L95p.bmp,Pictures/IA20.bmp,"

"Don't be tempted to gamble."",0,safe,,,,,4,0,4,0,0,15,15,16,,,,,,,,,,,,,,,,,,,,,,,,,,,,,,,3337.727029995938,None,3339.7450270612217,3341.2280650464563,3341.2447045409726,None,3342.744832678237,None,2,3344.7623072420565,None,3344.7623072420565,None,3344.7623072420565,None,None,None,None,None,3345.1124787034005,None,3345.1124787034005,None,right,3345.1124787034005,None,None,None,3345.4792128391045,3347.046379469176,0.2280734438008949,0.3419038087249646,,,,,,,,,,,,, 105,001,18,0,2019_Dec_05_1118,Test,3.1.2,59.98406793692176,
Pictures/IA50_L30.bmp,Pictures/IA50_L30.bmp,Pictures/IA50.bmp,"

"Take a leap, I think you should gamble."",1,risk,,,,,4,0,4,0,0,16,16,2,,,,,,,,,,,,,,,,,,,,,,,,,,,,,,,3347.063090496631,None,3349.084017613275,3350.564059923454,3350.5807249210184,None,3352.0811379459847,None,1,3354.098250179921,None,3354.098250179921,None,3354.098250179921,None,3354.468463615548,None,3354.468463615548,3355.4654635863135,3356.531919241179,None,3356.531919241179,None,left,3356.531919241179,None,3357.6160382446187,None,None,None,0.2758372308417165,1.0580688843538155,,,,,,,,,,,,, 105,001,18,0,2019_Dec_05_1118,Test,3.1.2,59.98406793692176,
Pictures/IA50_G10.bmp,Pictures/IA50_G10.bmp,Pictures/IA50.bmp,"

"Go with the safe option here!"",0,safe,,,,,4,0,4,0,0,17,17,4,,,,,,,,,,,,,,,,,,,,,,,,,,,,,,,3358.4663157613186,None,3360.4873595077534,3361.9672998057413,3361.98397755483,None,3363.4843678758634,None,1,3365.502371161402,None,3365.502371161402,None,3365.502371161402,None,3368.085488703705,None,3368.085488703705,3369.069330345952,3370.152478989532,None,3370.152478989532,None,right,3370.152478989532,None,None,None,3371.63673085763,None,2.4793792309401397,1.4610923017489768,,,,,,,,,,,,, 105,001,18,0,2019_Dec_05_1118,Test,3.1.2,59.98406793692176,
Pictures/IA25_L5.bmp,Pictures/IA25_L5.bmp,Pictures/IA25.bmp,"

"It would be smarter to choose the safe option."",0,safe,,,,,4,0,4,0,0,18,18,8,,,,,,,,,,,,,,,,,,,,,,,,,,,,,,,3372.0701797218426,None,3374.0901538953412,3375.571165632342,3375.587838094213,None,3377.088101522034,None,1,3379.1053303857616,None,3379.1053303857616,None,3379.1053303857616,None,3380.858065898631,None,3380.858065898631,3381.8562617135185,3382.9243402330476,None,3382.9243402330476,None,left,3382.9243402330476,None,3383.4067303786705,3384.8404824803392,None,None,1.6520588112725818,0.4570018617223468,,,,,,,,,,,,, 105,001,18,0,2019_Dec_05_1118,Test,3.1.2,59.98406793692176,
Pictures/IA100_G80.bmp,Pictures/IA100_G80.bmp,Pictures/IA100.bmp,"

"Why not gamble?"",1,risk,,,,,4,0,4,0,0,19,19,6,,,,,,,,,,,,,,,,,,,,,,,,,,,,,,,3384.857156808287,None,3386.875539529413,3388.358192791843,3388.374846903961,None,3389.8750960251946,None,2,3391.8921034478253,None,3391.8921034478253,None,3391.8921034478253,None,None,None,None,None,3393.2257315175993,None,3393.2257315175993,None,left,3393.2257315175993,None,3394.9433807461946,None,None,None,1.2249664261707949,1.6912165637932048,,,,,,,,,,,,, 105,001,18,0,2019_Dec_05_1118,Test,3.1.2,59.98406793692176,
,,,,,,,,,,4,0,4,0,,,,,,,,,,,,,,,,,,,,,,,,,,,,,,,,,,,,,,,,,,,,,,,,,,,,,,,,,,,,,,,,,,,,,,,,,3395.28034909318,None,return,12.628321383185721,3395.28034909318,None, 105,001,18,0,2019_Dec_05_1118,Test,3.1.2,59.98406793692176,
Pictures/IA25_L15.bmp,Pictures/IA25_L15.bmp,Pictures/IA25.bmp,"

"There's not much on the line here, gamble!"",1,risk,,,,,5,0,5,0,0,0,0,10,,,,,,,,,,,,,3408.015654206043,None,3408.015654206043,None,3408.015654206043,None,left,5.540859303418074,3408.015654206043,None,3408.015654206043,None,3408.015654206043,None,return,6.1248330638927655,3408.015654206043,None,3414.2020712206813,None,3416.2029943066,3417.683186524936,3417.6998449912326,None,3419.200260504301,None,1,3421.2197666035727,None,3421.2197666035727,None,3421.2197666035727,None,3422.7176594920165,None,3422.7176594920165,3423.7015278813624,3424.772672053822,None,3424.772672053822,None,left,3424.772672053822,None,3425.985497474265,None,None,None,1.3924695098621669,1.1833672233588004,,,,,,,,,,,,, 105,001,18,0,2019_Dec_05_1118,Test,3.1.2,59.98406793692176,
Pictures/IA100_L20.bmp,Pictures/IA100_L20.bmp,Pictures/IA100.bmp,"

"Try to win as much money as you can, gamble!"",1,risk,,,,,5,0,5,0,0,1,1,17,,,,,,,,,,,,,,,,,,,,,,,,,,,,,,,3426.7023785013043,None,3428.720962758708,3430.203435633729,3430.2200763722967,None,3431.7202937702277,None,1,3433.737637708682,None,3433.737637708682,None,3433.737637708682,None,3434.858302579353,None,3434.858302579353,3435.855018284441,3436.92292979011,None,3436.92292979011,None,right,3436.92292979011,None,None,None,3437.3554795163873,3438.8392085720097,1.0341445375888725,0.40087742924242775,,,,,,,,,,,,, 105,001,18,0,2019_Dec_05_1118,Test,3.1.2,59.98406793692176,
Pictures/IA100_L40.bmp,Pictures/IA100_L40.bmp,Pictures/IA100.bmp,"

"Think of the payoff, gamble!"",1,risk,,,,,5,0,5,0,0,2,2,3,,,,,,,,,,,,,,,,,,,,,,,,,,,,,,,3438.8558779237537,None,3440.874063773792,3442.356884983121,3442.373563043223,None,3443.87388649651,None,2,3445.8910848809846,None,3445.8910848809846,None,3445.8910848809846,None,None,None,None,None,3446.424414565102,None,3446.424414565102,None,right,3446.424414565102,None,None,None,3446.6580650899978,3448.3584565306774,0.4324253211671021,0.21119820159947267,,,,,,,,,,,,, 105,001,18,0,2019_Dec_05_1118,Test,3.1.2,59.98406793692176,
Pictures/IA50_G10.bmp,Pictures/IA50_G10.bmp,Pictures/IA50.bmp,"

"Go with the safe option here!"",0,safe,,,,,5,0,5,0,0,3,3,14,,,,,,,,,,,,,,,,,,,,,,,,,,,,,,,3448.3752213633434,None,3450.3926897069077,3451.8762716534866,3451.892857342794,None,3453.393317952715,None,2,3455.4270703031934,None,3455.4270703031934,None,3455.4270703031934,None,None,None,None,None,3457.1645621468842,None,3457.1645621468842,None,left,3457.1645621468842,None,3457.42784970121,3459.1116442561224,None,None,1.6242312541717183,0.2468754101482773,,,,,,,,,,,,, 105,001,18,0,2019_Dec_05_1118,Test,3.1.2,59.98406793692176,
Pictures/IA50_L20.bmp,Pictures/IA50_L20.bmp,Pictures/IA50.bmp,"

"Certainty is boring, take a risk!"",1,risk,,,,,5,0,5,0,0,4,4,11,,,,,,,,,,,,,,,,,,,,,,,,,,,,,,,3459.1282989902656,None,3461.148600038192,3462.6293271985023,3462.6459987273356,None,3464.14637567482,None,2,3466.163523364213,None,3466.163523364213,None,3466.163523364213,None,None,None,None,None,3466.6966642635743,None,3466.6966642635743,None,left,3466.6966642635743,None,3466.980464354515,3468.6310275053474,None,None,0.41553639440371626,0.25838101677618397,,,,,,,,,,,,, 105,001,18,0,2019_Dec_05_1118,Test,3.1.2,59.98406793692176,
Pictures/IA25_G15.bmp,Pictures/IA25_G15.bmp,Pictures/IA25.bmp,"

"I think you should take a gamble."",1,risk,,,,,5,0,5,0,0,5,5,12,,,,,,,,,,,,,,,,,,,,,,,,,,,,,,,3468.6477009002574,None,3470.6685334690173,3472.1486805905015,3472.1653490092067,None,3473.6657778958242,None,2,3475.682891373812,None,3475.682891373812,None,3475.682891373812,None,None,None,None,None,3476.1183111259843,None,3476.1183111259843,None,left,3476.1183111259843,None,3476.349786427527,3478.067046579139,None,None,0.3278970373539778,0.2124235919363855,,,,,,,,,,,,, 105,001,18,0,2019_Dec_05_1118,Test,3.1.2,59.98406793692176,
Pictures/IA100_G80.bmp,Pictures/IA100_G80.bmp,Pictures/IA100.bmp,"

"Why not gamble?"",1,risk,,,,,5,0,5,0,0,6,6,13,,,,,,,,,,,,,,,,,,,,,,,,,,,,,,,3478.0837237062024,None,3480.1050846856688,3481.5847257893656,3481.6013316945036,None,3483.101638664113,None,2,3485.120974017371,None,3485.120974017371,None,3485.120974017371,None,None,None,None,None,3486.1055465396403,None,3486.1055465396403,None,left,3486.1055465396403,None,3486.3527429149735,3488.0365611068573,None,None,0.8735764167722664,0.2249452773021403,,,,,,,,,,,,, 105,001,18,0,2019_Dec_05_1118,Test,3.1.2,59.98406793692176,
Pictures/IA25_G5.bmp,Pictures/IA25_G5.bmp,Pictures/IA25.bmp,"

"Let's stay with the certain option."",0,safe,,,,,5,0,5,0,0,7,7,15,,,,,,,,,,,,,,,,,,,,,,,,,,,,,,,3488.0532376118945,None,3490.0713528620327,3491.5542076607426,3491.5708987833805,None,3493.07121135122,None,2,3495.0884330616536,None,3495.0884330616536,None,3495.0884330616536,None,None,None,None,None,3496.4217989476574,None,3496.4217989476574,None,right,3496.4217989476574,None,None,None,3497.355878545779,3498.356165921584,1.2017745144939909,0.9162610541716276,,,,,,,,,,,,, 105,001,18,0,2019_Dec_05_1118,Test,3.1.2,59.98406793692176,
Pictures/IA80_40_L95p.bmp,Pictures/IA80_40_L95p.bmp,Pictures/IA80.bmp,"

"Let's stay with the certain option."",0,safe,,,,,5,0,5,0,0,8,8,0,,,,,,,,,,,,,,,,,,,,,,,,,,,,,,,3498.372824076868,None,3500.390651951201,3501.8738155855963,3501.8904463717563,None,3503.3905984570038,None,1,3505.4080344552394,None,3505.4080344552394,None,3505.4080344552394,None,3506.0245171371153,None,3506.0245171371153,3506.991912112766,3508.058642391912,None,3508.058642391912,None,None,3508.058642391912,None,None,None,None,None,0.5459113949482344,,,,,,,,,,,,,, 105,001,18,0,2019_Dec_05_1118,Test,3.1.2,59.98406793692176,
Pictures/IA20_10_L95p.bmp,Pictures/IA20_10_L95p.bmp,Pictures/IA20.bmp,"

"Don't be tempted to gamble."",0,safe,,,,,5,0,5,0,0,9,9,8,,,,,,,,,,,,,,,,,,,,,,,,,,,,,,,3509.9928296004546,None,3512.013713797335,3513.493811467787,3513.510426392295,None,3515.0108866912033,None,2,3517.044386188296,None,3517.044386188296,None,3517.044386188296,None,None,None,None,None,3517.4277476890193,None,3517.4277476890193,None,right,3517.4277476890193,None,None,None,3518.0117581490013,3519.3621339457377,0.25314604973391397,0.5659779392417477,,,,,,,,,,,,, 105,001,18,0,2019_Dec_05_1118,Test,3.1.2,59.98406793692176,
Pictures/IA75_G45.bmp,Pictures/IA75_G45.bmp,Pictures/IA75.bmp,"

"Don't gamble for this one."",0,safe,,,,,5,0,5,0,0,10,10,7,,,,,,,,,,,,,,,,,,,,,,,,,,,,,,,3519.3788499493985,None,3521.4000274313266,3522.8797920070956,3522.8964853068237,None,3524.39685914418,None,1,3526.414011498764,None,3526.414011498764,None,3526.414011498764,None,3527.664228430175,None,3527.664228430175,3528.648126365735,3529.7148342519613,None,3529.7148342519613,None,left,3529.7148342519613,None,3529.965179942662,3531.632319141406,None,None,1.1633488860452417,0.2304222122838837,,,,,,,,,,,,, 105,001,18,0,2019_Dec_05_1118,Test,3.1.2,59.98406793692176,
Pictures/IA20_10_G95p.bmp,Pictures/IA20_10_G95p.bmp,Pictures/IA20.bmp,"

"Take a leap, I think you should gamble."",1,risk,,,,,5,0,5,0,0,11,11,16,,,,,,,,,,,,,,,,,,,,,,,,,,,,,,,3531.6489863160596,None,3533.6703563148967,3535.1499740926356,3535.1665849739775,None,3536.6670592684604,None,2,3538.684042121082,None,3538.684042121082,None,3538.684042121082,None,None,None,None,None,3539.6841323147873,None,3539.6841323147873,None,left,3539.6841323147873,None,3539.784550875781,3541.618480005922,None,None,0.8689774708564073,0.07695669022632501,,,,,,,,,,,,, 105,001,18,0,2019_Dec_05_1118,Test,3.1.2,59.98406793692176,
Pictures/IA75_L15.bmp,Pictures/IA75_L15.bmp,Pictures/IA75.bmp,"

"Trust me, gamble!"",1,risk,,,,,5,0,5,0,0,12,12,4,,,,,,,,,,,,,,,,,,,,,,,,,,,,,,,3541.635159621087,None,3543.656622923756,3545.1361501967776,3545.1527106940503,None,3546.653235683615,None,2,3548.6703261466573,None,3548.6703261466573,None,3548.6703261466573,None,None,None,None,None,3549.1368362909607,None,3549.1368362909607,None,right,3549.1368362909607,None,None,None,3549.3706964384683,3551.071156923984,0.34640043143735966,0.2158503307000501,,,,,,,,,,,,, 105,001,18,0,2019_Dec_05_1118,Test,3.1.2,59.98406793692176,
Pictures/IA75_L60.bmp,Pictures/IA75_L60.bmp,Pictures/IA75.bmp,"

"Why not take the gamble?"",1,risk,,,,,5,0,5,0,0,13,13,6,,,,,,,,,,,,,,,,,,,,,,,,,,,,,,,3551.087862975235,None,3553.1089356458588,3554.58912288799,3554.6055191705163,None,3556.1059346835846,None,2,3558.122982537877,None,3558.122982537877,None,3558.122982537877,None,None,None,None,None,3559.0086421120004,None,3559.0086421120004,None,right,3559.0086421120004,None,None,None,3559.0901433209074,3560.958953777903,0.7815079267829788,0.06373709219224111,,,,,,,,,,,,, 105,001,18,0,2019_Dec_05_1118,Test,3.1.2,59.98406793692176,
Pictures/IA80_40_G95p.bmp,Pictures/IA80_40_G95p.bmp,Pictures/IA80.bmp,"

"Think of the payoff, gamble!"",1,risk,,,,,5,0,5,0,0,14,14,9,,,,,,,,,,,,,,,,,,,,,,,,,,,,,,,3560.9740136385326,None,3562.994598641123,3564.4750063913125,3564.491658637354,None,3565.991924864289,None,2,3568.0101464807967,None,3568.0101464807967,None,3568.0101464807967,None,None,None,None,None,3568.344852209839,None,3568.344852209839,None,left,3568.344852209839,None,3568.5094330174898,3570.293329833403,None,None,0.23011710875016433,0.13537453091430507,,,,,,,,,,,,, 105,001,18,0,2019_Dec_05_1118,Test,3.1.2,59.98406793692176,
Pictures/IA75_G60.bmp,Pictures/IA75_G60.bmp,Pictures/IA75.bmp,"

"Make it exciting, take a chance!"",1,risk,,,,,5,0,5,0,0,15,15,5,,,,,,,,,,,,,,,,,,,,,,,,,,,,,,,3570.309998252108,None,3572.3287277524787,3573.8109857176714,3573.827543104816,None,3575.327969814344,None,2,3577.3451862375605,None,3577.3451862375605,None,3577.3451862375605,None,None,None,None,None,3578.428470793723,None,3578.428470793723,None,left,3578.428470793723,None,3578.545704571452,3580.3628794433616,None,None,0.9588215974736158,0.09145423975769518,,,,,,,,,,,,, 105,001,18,0,2019_Dec_05_1118,Test,3.1.2,59.98406793692176,
Pictures/IA100_L60.bmp,Pictures/IA100_L60.bmp,Pictures/IA100.bmp,"

"You'd have a lot to lose, don't gamble."",0,safe,,,,,5,0,5,0,0,16,16,19,,,,,,,,,,,,,,,,,,,,,,,,,,,,,,,3580.3795142726876,None,3582.4010111647367,3583.8805552324475,3583.8971073323746,None,3585.397505739741,None,2,3587.418027917751,None,3587.418027917751,None,3587.418027917751,None,None,None,None,None,3587.7978031301573,None,3587.7978031301573,None,right,3587.7978031301573,None,None,None,3587.948310920716,3589.7322102247317,0.25370680576816085,0.12186320289674768,,,,,,,,,,,,, 105,001,18,0,2019_Dec_05_1118,Test,3.1.2,59.98406793692176,
Pictures/IA50_L10.bmp,Pictures/IA50_L10.bmp,Pictures/IA50.bmp,"

"Play it safe, don’t gamble!"",0,safe,,,,,5,0,5,0,0,17,17,2,,,,,,,,,,,,,,,,,,,,,,,,,,,,,,,3589.7488702460923,None,3591.7673014852107,3593.249855223553,3593.2665351497308,None,3594.7668386981995,None,2,3596.7840961751026,None,3596.7840961751026,None,3596.7840961751026,None,None,None,None,None,3598.069693919887,None,3598.069693919887,None,left,3598.069693919887,None,3598.901409883115,3600.0184682496383,None,None,1.1832484164788184,0.8097027899711975,,,,,,,,,,,,, 105,001,18,0,2019_Dec_05_1118,Test,3.1.2,59.98406793692176,
Pictures/IA75_G30.bmp,Pictures/IA75_G30.bmp,Pictures/IA75.bmp,"

"Be bold, gamble!"",1,risk,,,,,5,0,5,0,0,18,18,1,,,,,,,,,,,,,,,,,,,,,,,,,,,,,,,3600.035139467459,None,3602.0547855224795,3603.5361347083417,3603.5527667385522,None,3605.053104809439,None,1,3607.0702904423906,None,3607.0702904423906,None,3607.0702904423906,None,3608.0871212097654,None,3608.0871212097654,3609.087721775435,3610.137970554554,None,3610.137970554554,None,right,3610.137970554554,None,None,None,3610.5381248790936,3612.0552308927745,0.9288648469100735,0.3811041699964335,,,,,,,,,,,,, 105,001,18,0,2019_Dec_05_1118,Test,3.1.2,59.98406793692176,
Pictures/IA100_L80.bmp,Pictures/IA100_L80.bmp,Pictures/IA100.bmp,"

"Go all in!"",1,risk,,,,,5,0,5,0,0,19,19,18,,,,,,,,,,,,,,,,,,,,,,,,,,,,,,,3612.0719098859145,None,3614.0888942936,3615.57289983958,3615.5894394989955,None,3617.0899834603406,None,2,3619.107119331248,None,3619.107119331248,None,3619.107119331248,None,None,None,None,None,3620.078421249388,None,3620.078421249388,None,right,3620.078421249388,None,None,None,3620.407621430273,3622.0080707815314,0.8596368241614982,0.3123796769323235,,,,,,,,,,,,, 105,001,18,0,2019_Dec_05_1118,Test,3.1.2,59.98406793692176,
,,,,,,,,,,5,0,5,0,,,,,,,,,,,,,,,,,,,,,,,,,,,,,,,,,,,,,,,,,,,,,,,,,,,,,,,,,,,,,,,,,,,,,,,,,3622.1282324335316,None,return,4.91038757790011,3622.1282324335316,None, 105,001,18,0,2019_Dec_05_1118,Test,3.1.2,59.98406793692176,
Pictures/IA100_L80.bmp,Pictures/IA100_L80.bmp,Pictures/IA100.bmp,"

"Go all in!"",1,risk,,,,,6,0,6,0,0,0,0,12,,,,,,,,,,,,,3627.1423508584885,None,3627.1423508584885,None,3627.1423508584885,None,right,4.576156143341905,3627.1423508584885,None,3627.1423508584885,None,3627.1423508584885,None,return,5.0001200509314,3627.1423508584885,None,3632.194203530493,None,3634.196065874994,3635.6786034406723,3635.6952012594775,None,3637.195690171561,None,1,3639.2128101808166,None,3639.2128101808166,None,3639.2128101808166,None,3640.663112205323,None,3640.663112205323,3641.6469977003717,3642.7213089159277,None,3642.7213089159277,None,right,3642.7213089159277,None,None,None,3642.7213089159277,3644.6311854998376,1.3533391264645616,0.3169891972820551,,,,,,,,,,,,, 105,001,18,0,2019_Dec_05_1118,Test,3.1.2,59.98406793692176,
Pictures/IA25_G5.bmp,Pictures/IA25_G5.bmp,Pictures/IA25.bmp,"

"Let's stay with the certain option."",0,safe,,,,,6,0,6,0,0,1,1,19,,,,,,,,,,,,,,,,,,,,,,,,,,,,,,,3644.647741331918,None,3646.665879908015,3648.148842317145,3648.165526286489,None,3649.665831701034,None,2,3651.683055588557,None,3651.683055588557,None,3651.683055588557,None,None,None,None,None,3652.4662520037,None,3652.4662520037,None,right,3652.4662520037,None,None,None,3652.566780352203,3654.4005950296423,0.6668592872456429,0.08374236696818116,,,,,,,,,,,,, 105,001,18,0,2019_Dec_05_1118,Test,3.1.2,59.98406793692176,
Pictures/IA75_G15.bmp,Pictures/IA75_G15.bmp,Pictures/IA75.bmp,"

"Take a chance!"",1,risk,,,,,6,0,6,0,0,2,2,15,,,,,,,,,,,,,,,,,,,,,,,,,,,,,,,3654.4172833531657,None,3656.438171904226,3657.9182848143037,3657.9349526109836,None,3659.435200177153,None,1,3661.455733551623,None,3661.455733551623,None,3661.455733551623,None,3663.5360336291897,None,3663.5360336291897,3664.5201869062375,3665.5886482824944,None,3665.5886482824944,None,left,3665.5886482824944,None,3665.870512007892,3667.5043520017716,None,None,1.9978820029964481,0.2569254769850886,,,,,,,,,,,,, 105,001,18,0,2019_Dec_05_1118,Test,3.1.2,59.98406793692176,
Pictures/IA50_G40.bmp,Pictures/IA50_G40.bmp,Pictures/IA50.bmp,"

"It would probably be best to play it safe."",0,safe,,,,,6,0,6,0,0,3,3,11,,,,,,,,,,,,,,,,,,,,,,,,,,,,,,,3667.520956040832,None,3669.542525398858,3671.022042408458,3671.0386865681667,None,3672.5391129666823,None,1,3674.572906992873,None,3674.572906992873,None,3674.572906992873,None,3675.4896911705337,None,3675.4896911705337,3676.47358319685,3677.544875722405,None,3677.544875722405,None,left,3677.544875722405,None,3677.840565209737,3679.457776594547,None,None,0.8083924931461297,0.2683094776175494,,,,,,,,,,,,, 105,001,18,0,2019_Dec_05_1118,Test,3.1.2,59.98406793692176,
Pictures/IA25_G20.bmp,Pictures/IA25_G20.bmp,Pictures/IA25.bmp,"

"I wouldn't gamble for this one. "",0,safe,,,,,6,0,6,0,0,4,4,1,,,,,,,,,,,,,,,,,,,,,,,,,,,,,,,3679.4744316397027,None,3681.493017763183,3682.975432167803,3682.9921114719546,None,3684.492351884831,None,2,3686.509655080611,None,3686.509655080611,None,3686.509655080611,None,None,None,None,None,3687.9123637530784,None,3687.9123637530784,None,right,3687.9123637530784,None,None,None,3688.1269165384774,3689.8439639573517,1.2792925827807267,0.18853283455246128,,,,,,,,,,,,, 105,001,18,0,2019_Dec_05_1118,Test,3.1.2,59.98406793692176,
Pictures/IA75_L60.bmp,Pictures/IA75_L60.bmp,Pictures/IA75.bmp,"

"Why not take the gamble?"",1,risk,,,,,6,0,6,0,0,5,5,2,,,,,,,,,,,,,,,,,,,,,,,,,,,,,,,3689.8605051718314,None,3691.881928664866,3693.361735849385,3693.3783989808735,None,3694.878794278111,None,2,3696.8959550300406,None,3696.8959550300406,None,3696.8959550300406,None,None,None,None,None,3697.84585740313,None,3697.84585740313,None,right,3697.84585740313,None,None,None,3698.1797678725043,3699.78022251098,0.8206264916952932,0.3108311443211278,,,,,,,,,,,,, 105,001,18,0,2019_Dec_05_1118,Test,3.1.2,59.98406793692176,
Pictures/IA25_L20.bmp,Pictures/IA25_L20.bmp,Pictures/IA25.bmp,"

"Don't be tempted to gamble."",0,safe,,,,,6,0,6,0,0,6,6,3,,,,,,,,,,,,,,,,,,,,,,,,,,,,,,,3699.7968327702965,None,3701.818090804534,3703.2979032762705,3703.3145066933057,None,3704.814974145508,None,1,3706.8484786188046,None,3706.8484786188046,None,3706.8484786188046,None,3708.8992458562216,None,3708.8992458562216,3709.899747830841,3710.966402844896,None,3710.966402844896,None,left,3710.966402844896,None,3711.266769964376,3712.8839598893046,None,None,1.9639097664858127,0.27790733187703154,,,,,,,,,,,,, 105,001,18,0,2019_Dec_05_1118,Test,3.1.2,59.98406793692176,
Pictures/IA50_G30.bmp,Pictures/IA50_G30.bmp,Pictures/IA50.bmp,"

"I think you should gamble."",1,risk,,,,,6,0,6,0,0,7,7,5,,,,,,,,,,,,,,,,,,,,,,,,,,,,,,,3712.900626441933,None,3714.9216061197358,3716.4016331902885,3716.4182994319044,None,3717.9186990833205,None,2,3719.935867921582,None,3719.935867921582,None,3719.935867921582,None,None,None,None,None,3721.11912971161,None,3721.11912971161,None,right,3721.11912971161,None,None,None,3722.886808144305,None,1.0918775281443232,1.7488581165935102,,,,,,,,,,,,, 105,001,18,0,2019_Dec_05_1118,Test,3.1.2,59.98406793692176,
Pictures/IA50_G20.bmp,Pictures/IA50_G20.bmp,Pictures/IA50.bmp,"

"Let's venture and take a risk!"",1,risk,,,,,6,0,6,0,0,8,8,8,,,,,,,,,,,,,,,,,,,,,,,,,,,,,,,3723.070155151833,None,3725.0908717128277,3726.571190513364,3726.587817256357,None,3728.0882501861415,None,1,3730.1054165363003,None,3730.1054165363003,None,3730.1054165363003,None,3730.4220418486348,None,3730.4220418486348,3731.405894687342,3732.474794902625,None,3732.474794902625,None,left,3732.474794902625,None,3732.7561939749357,3734.3900753335147,None,None,0.2183763764651303,0.2569285871122702,,,,,,,,,,,,, 105,001,18,0,2019_Dec_05_1118,Test,3.1.2,59.98406793692176,
Pictures/IA100_L40.bmp,Pictures/IA100_L40.bmp,Pictures/IA100.bmp,"

"Think of the payoff, gamble!"",1,risk,,,,,6,0,6,0,0,9,9,7,,,,,,,,,,,,,,,,,,,,,,,,,,,,,,,3734.4067593028585,None,3736.425601389854,3737.907748323486,3737.9243026005024,None,3739.42472588889,None,2,3741.441950709451,None,3741.441950709451,None,3741.441950709451,None,None,None,None,None,3742.5789443728772,None,3742.5789443728772,None,right,3742.5789443728772,None,None,None,3742.992441767523,3744.526306704627,1.0254999374865292,0.39245924644092156,,,,,,,,,,,,, 105,001,18,0,2019_Dec_05_1118,Test,3.1.2,59.98406793692176,
Pictures/IA100_G60.bmp,Pictures/IA100_G60.bmp,Pictures/IA100.bmp,"

"Be cautious, don't gamble for this one."",0,safe,,,,,6,0,6,0,0,10,10,4,,,,,,,,,,,,,,,,,,,,,,,,,,,,,,,3744.542972324217,None,3746.5610583391544,3748.043961655857,3748.0605062914774,None,3749.5608888371917,None,1,3751.57817275018,None,3751.57817275018,None,3751.57817275018,None,3752.7950811463434,None,3752.7950811463434,3753.778946425561,3754.8623264626467,None,3754.8623264626467,None,left,3754.8623264626467,None,3755.1793333876567,3756.7631015686866,None,None,1.1129912524547763,0.30067937630701635,,,,,,,,,,,,, 105,001,18,0,2019_Dec_05_1118,Test,3.1.2,59.98406793692176,
Pictures/IA100_G40.bmp,Pictures/IA100_G40.bmp,Pictures/IA100.bmp,"

"Try your luck and gamble!"",1,risk,,,,,6,0,6,0,0,11,11,10,,,,,,,,,,,,,,,,,,,,,,,,,,,,,,,3756.779797978541,None,3758.800308649079,3760.280832096021,3760.297459772052,None,3761.797708582273,None,2,3763.81494522132,None,3763.81494522132,None,3763.81494522132,None,None,None,None,None,3764.681580143949,None,3764.681580143949,None,left,3764.681580143949,None,3764.782088898648,3766.6159396535686,None,None,0.7399482225928296,0.08126079603061953,,,,,,,,,,,,, 105,001,18,0,2019_Dec_05_1118,Test,3.1.2,59.98406793692176,
Pictures/IA40_20_L95p.bmp,Pictures/IA40_20_L95p.bmp,Pictures/IA40.bmp,"

"Trust me, gamble!"",1,risk,,,,,6,0,6,0,0,12,12,13,,,,,,,,,,,,,,,,,,,,,,,,,,,,,,,3766.6326186467086,None,3768.654162501687,3770.133583719352,3770.150282617309,None,3771.650664852011,None,2,3773.6677848612662,None,3773.6677848612662,None,3773.6677848612662,None,None,None,None,None,3774.467676442213,None,3774.467676442213,None,right,3774.467676442213,None,None,None,3774.568199814512,3776.4020617658934,0.6787757417496323,0.07889927602445823,,,,,,,,,,,,, 105,001,18,0,2019_Dec_05_1118,Test,3.1.2,59.98406793692176,
Pictures/IA50_L30.bmp,Pictures/IA50_L30.bmp,Pictures/IA50.bmp,"

"Take a leap, I think you should gamble."",1,risk,,,,,6,0,6,0,0,13,13,9,,,,,,,,,,,,,,,,,,,,,,,,,,,,,,,3776.4186981502826,None,3778.439447678632,3779.919737865992,3779.936318268082,None,3781.436801270923,None,1,3783.4706152019307,None,3783.4706152019307,None,3783.4706152019307,None,3783.9203225700103,None,3783.9203225700103,3784.9044845554163,3785.970975354726,None,3785.970975354726,None,left,3785.970975354726,None,3786.288204342858,3787.8886592923463,None,None,0.33976683994205814,0.2952727302126732,,,,,,,,,,,,, 105,001,18,0,2019_Dec_05_1118,Test,3.1.2,59.98406793692176,
Pictures/IA25_G15.bmp,Pictures/IA25_G15.bmp,Pictures/IA25.bmp,"

"I think you should take a gamble."",1,risk,,,,,6,0,6,0,0,14,14,16,,,,,,,,,,,,,,,,,,,,,,,,,,,,,,,3787.9053267780137,None,3789.9268168277813,3791.4063210858576,3791.4230016340607,None,3792.923398486363,None,2,3794.957195622682,None,3794.957195622682,None,3794.957195622682,None,None,None,None,None,3795.340307069134,None,3795.340307069134,None,right,3795.340307069134,None,None,None,3795.6742138063546,3797.274686172558,0.25269383715749427,0.3015732270250737,,,,,,,,,,,,, 105,001,18,0,2019_Dec_05_1118,Test,3.1.2,59.98406793692176,
Pictures/IA75_G30.bmp,Pictures/IA75_G30.bmp,Pictures/IA75.bmp,"

"Be bold, gamble!"",1,risk,,,,,6,0,6,0,0,15,15,14,,,,,,,,,,,,,,,,,,,,,,,,,,,,,,,3797.2913110494756,None,3799.312088568974,3800.792342678852,3800.8089625795646,None,3802.309407638847,None,2,3804.326517384681,None,3804.326517384681,None,3804.326517384681,None,None,None,None,None,3804.7596944237275,None,3804.7596944237275,None,left,3804.7596944237275,None,3804.9434899116786,3806.694006970418,None,None,0.3312096344288875,0.1539311081824053,,,,,,,,,,,,, 105,001,18,0,2019_Dec_05_1118,Test,3.1.2,59.98406793692176,
Pictures/IA100_G80.bmp,Pictures/IA100_G80.bmp,Pictures/IA100.bmp,"

"Why not gamble?"",1,risk,,,,,6,0,6,0,0,16,16,6,,,,,,,,,,,,,,,,,,,,,,,,,,,,,,,3806.7106732120337,None,3808.7313372118697,3810.2116435718945,3810.2282432567763,None,3811.7287452313967,None,2,3813.745876437112,None,3813.745876437112,None,3813.745876437112,None,None,None,None,None,3814.480014008015,None,3814.480014008015,None,left,3814.480014008015,None,3814.9296694369614,3816.413453852857,None,None,0.6315335231338395,0.43335027316243213,,,,,,,,,,,,, 105,001,18,0,2019_Dec_05_1118,Test,3.1.2,59.98406793692176,
Pictures/IA80_40_L95p.bmp,Pictures/IA80_40_L95p.bmp,Pictures/IA80.bmp,"

"Let's stay with the certain option."",0,safe,,,,,6,0,6,0,0,17,17,0,,,,,,,,,,,,,,,,,,,,,,,,,,,,,,,3816.4301291138436,None,3818.4515852632194,3819.9311224886496,3819.9644524837795,None,3821.448192113836,None,2,3823.4653192763853,None,3823.4653192763853,None,3823.4653192763853,None,None,None,None,None,3824.015145700155,None,3824.015145700155,None,right,3824.015145700155,None,None,None,3824.365714324813,3825.949326066416,0.431970309476128,0.32195669333668775,,,,,,,,,,,,, 105,001,18,0,2019_Dec_05_1118,Test,3.1.2,59.98406793692176,
Pictures/IA110_55_L95p.bmp,Pictures/IA110_55_L95p.bmp,Pictures/IA110.bmp,"

"Trust me, gamble!"",1,risk,,,,,6,0,6,0,0,18,18,18,,,,,,,,,,,,,,,,,,,,,,,,,,,,,,,3825.966145948343,None,3827.984345793957,3829.467170735439,3829.483808985906,None,3830.98422294391,None,2,3833.0014073328102,None,3833.0014073328102,None,3833.0014073328102,None,None,None,None,None,3833.917947676455,None,3833.917947676455,None,right,3833.917947676455,None,None,None,3834.235202478647,3835.8523345551985,0.7994838431968674,0.2990406499920937,,,,,,,,,,,,, 105,001,18,0,2019_Dec_05_1118,Test,3.1.2,59.98406793692176,
Pictures/IA100_L60.bmp,Pictures/IA100_L60.bmp,Pictures/IA100.bmp,"

"You'd have a lot to lose, don't gamble."",0,safe,,,,,6,0,6,0,0,19,19,17,,,,,,,,,,,,,,,,,,,,,,,,,,,,,,,3835.8690278549266,None,3837.8902351940815,3839.369975199841,3839.386601942834,None,3840.8870398488225,None,1,3842.9042394773496,None,3842.9042394773496,None,3842.9042394773496,None,3844.604286937899,None,3844.604286937899,3845.58843834887,3846.655114200781,None,3846.655114200781,None,left,3846.655114200781,None,3847.7723918313113,None,None,None,1.6004916489955576,1.097452743163558,,,,,,,,,,,,, 105,001,18,0,2019_Dec_05_1118,Test,3.1.2,59.98406793692176,
,,,,,,,,,,6,0,6,0,,,,,,,,,,,,,,,,,,,,,,,,,,,,,,,,,,,,,,,,,,,,,,,,,,,,,,,,,,,,,,,,,,,,,,,,,3848.6888121240245,None,return,5.071457984351582,3848.6888121240245,None, 105,001,18,0,2019_Dec_05_1118,Test,3.1.2,59.98406793692176,
Pictures/IA75_G30.bmp,Pictures/IA75_G30.bmp,Pictures/IA75.bmp,"

"Be bold, gamble!"",1,risk,,,,,7,0,7,0,0,0,0,17,,,,,,,,,,,,,3853.8736588351576,None,3853.8736588351576,None,3853.8736588351576,None,left,1.1107193041270875,3853.8736588351576,None,3853.8736588351576,None,3853.8736588351576,None,return,3.7426378610780375,3853.8736588351576,None,3857.6769348571297,None,3859.680081684395,3861.1595396015673,3861.1761078741592,None,3862.6766331747376,None,2,3864.710396099651,None,3864.710396099651,None,3864.710396099651,None,None,None,None,None,3865.8103848409883,None,3865.8103848409883,None,left,3865.8103848409883,None,3866.144229064642,3867.744756480107,None,None,0.9776618183923347,0.31754933129195706,,,,,,,,,,,,, 105,001,18,0,2019_Dec_05_1118,Test,3.1.2,59.98406793692176,
Pictures/IA75_G15.bmp,Pictures/IA75_G15.bmp,Pictures/IA75.bmp,"

"Take a chance!"",1,risk,,,,,7,0,7,0,0,1,1,0,,,,,,,,,,,,,,,,,,,,,,,,,,,,,,,3867.761372648665,None,3869.7820590414212,3871.262416718554,3871.2789912114013,None,3872.7794518213223,None,2,3874.8130104108413,None,3874.8130104108413,None,3874.8130104108413,None,None,None,None,None,3875.9466050156407,None,3875.9466050156407,None,right,3875.9466050156407,None,None,None,3876.763995108391,3877.8809716785545,1.0347712283328292,0.7971584006727426,,,,,,,,,,,,, 105,001,18,0,2019_Dec_05_1118,Test,3.1.2,59.98406793692176,
Pictures/IA25_G20.bmp,Pictures/IA25_G20.bmp,Pictures/IA25.bmp,"

"I wouldn't gamble for this one. "",0,safe,,,,,7,0,7,0,0,2,2,4,,,,,,,,,,,,,,,,,,,,,,,,,,,,,,,3877.8976155272503,None,3879.9183610124337,3881.398656487011,3881.41523906619,None,3882.915715848775,None,2,3884.9328115990347,None,3884.9328115990347,None,3884.9328115990347,None,None,None,None,None,3886.316235924339,None,3886.316235924339,None,left,3886.316235924339,None,3886.416664437742,3888.2506010321895,None,None,1.2586839432187844,0.07528064237794752,,,,,,,,,,,,, 105,001,18,0,2019_Dec_05_1118,Test,3.1.2,59.98406793692176,
Pictures/IA100_G60.bmp,Pictures/IA100_G60.bmp,Pictures/IA100.bmp,"

"Be cautious, don't gamble for this one."",0,safe,,,,,7,0,7,0,0,3,3,9,,,,,,,,,,,,,,,,,,,,,,,,,,,,,,,3888.267268517856,None,3890.2872199874228,3891.768254739368,3891.784862199569,None,3893.2851763224726,None,2,3895.302385281382,None,3895.302385281382,None,3895.302385281382,None,None,None,None,None,3895.6355483870566,None,3895.6355483870566,None,left,3895.6355483870566,None,3895.9027752292004,3897.569909762753,None,None,0.20892843036199338,0.23570072111397167,,,,,,,,,,,,, 105,001,18,0,2019_Dec_05_1118,Test,3.1.2,59.98406793692176,
Pictures/IA50_G10.bmp,Pictures/IA50_G10.bmp,Pictures/IA50.bmp,"

"Go with the safe option here!"",0,safe,,,,,7,0,7,0,0,4,4,10,,,,,,,,,,,,,,,,,,,,,,,,,,,,,,,3897.5865924880463,None,3899.607832794555,3901.0875858628524,3901.104185858747,None,3902.6046701056384,None,2,3904.638456045497,None,3904.638456045497,None,3904.638456045497,None,None,None,None,None,3905.024593646258,None,3905.024593646258,None,right,3905.024593646258,None,None,None,3905.205388171935,3906.9725829797635,0.2805378779348757,0.15025929135117622,,,,,,,,,,,,, 105,001,18,0,2019_Dec_05_1118,Test,3.1.2,59.98406793692176,
Pictures/IA100_G80.bmp,Pictures/IA100_G80.bmp,Pictures/IA100.bmp,"

"Why not gamble?"",1,risk,,,,,7,0,7,0,0,5,5,6,,,,,,,,,,,,,,,,,,,,,,,,,,,,,,,3906.9892517094813,None,3909.008426580147,3910.4902634340415,3910.506925943504,None,3912.007172265622,None,2,3914.0244826146964,None,3914.0244826146964,None,3914.0244826146964,None,None,None,None,None,3914.3742027965027,None,3914.3742027965027,None,left,3914.3742027965027,None,3914.8247893976986,3916.3085927853745,None,None,0.23815150178688782,0.4245190653937243,,,,,,,,,,,,, 105,001,18,0,2019_Dec_05_1118,Test,3.1.2,59.98406793692176,
Pictures/IA80_40_G95p.bmp,Pictures/IA80_40_G95p.bmp,Pictures/IA80.bmp,"

"Think of the payoff, gamble!"",1,risk,,,,,7,0,7,0,0,6,6,19,,,,,,,,,,,,,,,,,,,,,,,,,,,,,,,3916.3252668023097,None,3918.3464691652607,3919.8262564449624,3919.8427653141134,None,3921.343322649008,None,2,3923.360506415883,None,3923.360506415883,None,3923.360506415883,None,None,None,None,None,3923.610217018495,None,3923.610217018495,None,left,3923.610217018495,None,3924.0441174732578,3925.5445476039267,None,None,0.1500487357016027,0.4042428984894286,,,,,,,,,,,,, 105,001,18,0,2019_Dec_05_1118,Test,3.1.2,59.98406793692176,
Pictures/IA75_G45.bmp,Pictures/IA75_G45.bmp,Pictures/IA75.bmp,"

"Don't gamble for this one."",0,safe,,,,,7,0,7,0,0,7,7,8,,,,,,,,,,,,,,,,,,,,,,,,,,,,,,,3925.5612197547853,None,3927.580250315523,3929.062212818578,3929.078859466389,None,3930.578941262749,None,1,3932.5963816151643,None,3932.5963816151643,None,3932.5963816151643,None,3935.297039282779,None,3935.297039282779,3936.2809393954285,3937.347418376252,None,3937.347418376252,None,left,3937.347418376252,None,3937.614654548779,3939.2650491306886,None,None,2.5937687968344108,0.24266678526601027,,,,,,,,,,,,, 105,001,18,0,2019_Dec_05_1118,Test,3.1.2,59.98406793692176,
Pictures/IA75_G60.bmp,Pictures/IA75_G60.bmp,Pictures/IA75.bmp,"

"Make it exciting, take a chance!"",1,risk,,,,,7,0,7,0,0,8,8,1,,,,,,,,,,,,,,,,,,,,,,,,,,,,,,,3939.28179779069,None,3941.3031298459673,3942.7828020509423,3942.7994682925582,None,3944.299885671703,None,2,3946.333670678524,None,3946.333670678524,None,3946.333670678524,None,None,None,None,None,3947.483648503313,None,3947.483648503313,None,right,3947.483648503313,None,None,None,3947.6341877061623,3949.4180304058527,1.0322258997757672,0.12207064841823012,,,,,,,,,,,,, 105,001,18,0,2019_Dec_05_1118,Test,3.1.2,59.98406793692176,
