Choice,Choice2,Amount,AdviceVar1,GambleAdviceNum,GambleAdviceType,trials_2.thisRepN,trials_2.thisTrialN,trials_2.thisN,trials_2.thisIndex,trials.thisRepN,trials.thisTrialN,trials.thisN,trials.thisIndex,instructions.started,instructions.stopped,space.keys,space.rt,space.started,space.stopped,chooseInst.started,chooseInst.stopped,Ad1.started,Ad1.stopped,Ad2.started,Ad2.stopped,key_resp_3.keys,key_resp_3.rt,key_resp_3.started,key_resp_3.stopped,Ad1pic.started,Ad1pic.stopped,Ad2pic.started,Ad2pic.stopped,enter.keys,enter.rt,enter.started,enter.stopped,iSi.started,iSi.stopped,receiveMoneyPicture.started,receiveMoneyPicture.stopped,ISI2.started,ISI2.stopped,ChoicePic.started,ChoicePic.stopped,response.keys,response.started,response.stopped,yesNo.started,yesNo.stopped,ask.started,ask.stopped,getAdv.started,getAdv.stopped,textForCode.started,textForCode.stopped,blank.started,blank.stopped,ChoicePic2.started,ChoicePic2.stopped,resp.keys,resp.started,resp.stopped,checkL1.started,checkL1.stopped,checkR1.started,checkR1.stopped,resp.rt,response.rt,endText.started,endText.stopped,key_resp_2.keys,key_resp_2.rt,key_resp_2.started,key_resp_2.stopped,participant,session,date,expName,psychopyVersion,frameRate,
,,,,,,,,,,,,,,18.532863889189684,None,space,5.1193571221529055,18.532863889189684,None,,,,,,,,,,,,,,,,,,,,,,,,,,,,,,,,,,,,,,,,,,,,,,,,,,,,,,,,,0,001,2019_Nov_05_1146,Test,3.1.2,59.98097199500592,
Pictures/IA75_L15.bmp,Pictures/IA75_L15.bmp,Pictures/IA75.bmp,"

"Trust me, gamble!"",1,risk,0,0,0,0,0,0,0,10,,,,,,,26.372342232059054,None,26.372342232059054,None,26.372342232059054,None,left,96.84542430360943,26.372342232059054,None,26.372342232059054,None,26.372342232059054,None,return,103.2772587995114,26.372342232059054,None,129.69965465034056,None,131.8154814554946,133.1826086091096,133.19930973609917,None,134.78612922247885,None,None,137.07035566287686,None,137.07035566287686,None,137.07035566287686,None,None,None,None,None,140.13428889195802,None,140.13428889195802,None,None,140.13428889195802,None,None,None,None,None,,,,,,,,,0,001,2019_Nov_05_1146,Test,3.1.2,59.98097199500592,
Pictures/IA50_G40.bmp,Pictures/IA50_G40.bmp,Pictures/IA50.bmp,"

"It would probably be best to play it safe."",0,safe,0,0,0,0,0,1,1,18,,,,,,,,,,,,,,,,,,,,,,,,,141.9351579887616,None,143.97371342944916,145.4361504336157,145.45284316323432,None,146.98656918251982,None,None,148.97034172946042,None,148.97034172946042,None,148.97034172946042,None,None,None,None,None,152.07244194306531,None,152.07244194306531,None,right,152.07244194306531,None,None,None,153.87191054498362,None,1.7686079522482032,,,,,,,,0,001,2019_Nov_05_1146,Test,3.1.2,59.98097199500592,
Pictures/IA25_G20.bmp,Pictures/IA25_G20.bmp,Pictures/IA25.bmp,"

"I wouldn't gamble for this one. "",0,safe,0,0,0,0,0,2,2,17,,,,,,,,,,,,,,,,,,,,,,,,,154.0052763481517,None,156.03937278480498,157.5062799895004,157.52298236054503,None,159.05780221516488,None,y,161.04047221838664,None,161.04047221838664,None,161.04047221838664,None,163.90791816108776,None,163.90791816108776,164.90844470735556,166.01389049579393,None,166.01389049579393,None,None,166.01389049579393,None,None,None,None,None,,2.776378008591564,,,,,,,0,001,2019_Nov_05_1146,Test,3.1.2,59.98097199500592,
Pictures/IA25_L5.bmp,Pictures/IA25_L5.bmp,Pictures/IA25.bmp,"

"It would be smarter to choose the safe option."",0,safe,0,0,0,0,0,3,3,6,,,,,,,,,,,,,,,,,,,,,,,,,167.90930186123114,None,169.92685952006923,171.41030861271702,171.4269705519755,None,172.96605471602652,None,None,174.94448466888934,None,174.94448466888934,None,174.94448466888934,None,None,None,None,None,178.04515608535712,None,178.04515608535712,None,None,178.04515608535712,None,None,None,None,None,,,,,,,,,0,001,2019_Nov_05_1146,Test,3.1.2,59.98097199500592,
Pictures/IA100_L20.bmp,Pictures/IA100_L20.bmp,Pictures/IA100.bmp,"

"Try to win as much money as you can, gamble!"",1,risk,0,0,0,0,0,4,4,19,,,,,,,,,,,,,,,,,,,,,,,,,179.9627719659684,None,181.98302051571136,183.46377529630354,183.48044469989054,None,185.0524885453642,None,y,186.9979948943992,None,186.9979948943992,None,186.9979948943992,None,188.9649820296263,None,188.9649820296263,189.96566283871016,191.06559808564907,None,191.06559808564907,None,right,191.06559808564907,None,None,None,192.61642426255548,None,1.5264849973191303,1.8581907957350268,,,,,,,0,001,2019_Nov_05_1146,Test,3.1.2,59.98097199500592,
Pictures/IA110_55_L95p.bmp,Pictures/IA110_55_L95p.bmp,Pictures/IA110.bmp,"

"Trust me, gamble!"",1,risk,0,0,0,0,0,5,5,15,,,,,,,,,,,,,,,,,,,,,,,,,192.9665237247509,None,195.0173079148026,196.46752456697595,196.48420889922363,None,198.03462858116836,None,y,200.00169969010676,None,200.00169969010676,None,200.00169969010676,None,201.3544309505951,None,201.3544309505951,202.35256238002694,203.43582853439148,None,203.43582853439148,None,right,203.43582853439148,None,None,None,204.73630761996174,None,1.2677315155206088,1.3099127544246585,,,,,,,0,001,2019_Nov_05_1146,Test,3.1.2,59.98097199500592,
Pictures/IA20_10_G95p.bmp,Pictures/IA20_10_G95p.bmp,Pictures/IA20.bmp,"

"Take a leap, I think you should gamble."",1,risk,0,0,0,0,0,6,6,8,,,,,,,,,,,,,,,,,,,,,,,,,205.35335795318133,None,207.38715550562756,208.85443126160862,208.87107733916582,None,210.40487582465357,None,None,212.38852863130342,None,212.38852863130342,None,212.38852863130342,None,None,None,None,None,215.46041137165776,None,215.46041137165776,None,left,215.46041137165776,None,216.8062928654699,None,None,None,1.3228080062399385,,,,,,,,0,001,2019_Nov_05_1146,Test,3.1.2,59.98097199500592,
Pictures/IA80_40_L95p.bmp,Pictures/IA80_40_L95p.bmp,Pictures/IA80.bmp,"

"Let's stay with the certain option."",0,safe,0,0,0,0,0,7,7,12,,,,,,,,,,,,,,,,,,,,,,,,,217.40676958733457,None,219.42395247461263,220.9076494452138,220.92421994643155,None,222.59456497263727,None,y,224.42573427234674,None,224.42573427234674,None,224.42573427234674,None,226.8592261604863,None,226.8592261604863,227.84291535574448,228.92650496440183,None,228.92650496440183,None,right,228.92650496440183,None,None,None,229.84368449273097,None,0.8886063847394325,2.3413979196911896,,,,,,,0,001,2019_Nov_05_1146,Test,3.1.2,59.98097199500592,
Pictures/IA100_L60.bmp,Pictures/IA100_L60.bmp,Pictures/IA100.bmp,"

"You'd have a lot to lose, don't gamble."",0,safe,0,0,0,0,0,8,8,5,,,,,,,,,,,,,,,,,,,,,,,,,230.8440617524011,None,232.85087761858085,234.34502589500426,234.36161163589531,None,235.9814312354838,None,y,237.87921128158814,None,237.87921128158814,None,237.87921128158814,None,240.0001200513052,None,240.0001200513052,240.9968503638247,242.04855328847316,None,242.04855328847316,None,right,242.04855328847316,None,None,None,242.947412241253,243.98106081811602,0.8781510357384832,2.0555909074510055,,,,,,,0,001,2019_Nov_05_1146,Test,3.1.2,59.98097199500592,
Pictures/IA50_L40.bmp,Pictures/IA50_L40.bmp,Pictures/IA50.bmp,"

"That gamble doesn't sound too good, play it safe."",0,safe,0,0,0,0,0,9,9,7,,,,,,,,,,,,,,,,,,,,,,,,,243.9977516816516,None,246.03163165273963,247.4988346315049,247.51556126162177,None,249.16596719675908,None,None,251.0351492181744,None,251.0351492181744,None,251.0351492181744,None,None,None,None,None,254.0866434526015,None,254.0866434526015,None,None,254.0866434526015,None,None,None,None,None,,,,,,,,,0,001,2019_Nov_05_1146,Test,3.1.2,59.98097199500592,
Pictures/IA40_20_G95p.bmp,Pictures/IA40_20_G95p.bmp,Pictures/IA40.bmp,"

"Hold back, stay with the safe choice."",0,safe,0,0,0,0,0,10,10,4,,,,,,,,,,,,,,,,,,,,,,,,,256.05125693094215,None,258.085094604161,259.55215265052175,259.56895330190855,None,261.1524452522517,None,y,263.06991060221026,None,263.06991060221026,None,263.06991060221026,None,265.33729160524217,None,265.33729160524217,266.3374166327667,267.3877538960696,None,267.3877538960696,None,left,267.3877538960696,None,269.2050407863426,None,None,None,1.7862275028201111,2.200374025126621,,,,,,,0,001,2019_Nov_05_1146,Test,3.1.2,59.98097199500592,
Pictures/IA40_20_L95p.bmp,Pictures/IA40_20_L95p.bmp,Pictures/IA40.bmp,"

"Trust me, gamble!"",1,risk,0,0,0,0,0,11,11,1,,,,,,,,,,,,,,,,,,,,,,,,,269.33840316835995,None,271.35547129156566,272.839384105705,272.85618506810624,None,274.44264626665336,None,n,276.3736839453468,None,276.3736839453468,None,276.3736839453468,None,None,None,None,None,278.1115170877174,None,278.1115170877174,None,right,278.1115170877174,None,None,None,279.3244762839586,None,1.1822705371705524,1.6640917838876703,,,,,,,0,001,2019_Nov_05_1146,Test,3.1.2,59.98097199500592,
Pictures/IA75_L60.bmp,Pictures/IA75_L60.bmp,Pictures/IA75.bmp,"

"Why not take the gamble?"",1,risk,0,0,0,0,0,12,12,16,,,,,,,,,,,,,,,,,,,,,,,,,280.0747807664129,None,282.07798980621374,283.57568706046004,283.59229395028524,None,None,None,None,None,None,None,None,None,None,None,None,None,None,295.76258672618314,None,295.76258672618314,None,None,295.76258672618314,None,None,None,None,None,,,,,,,,,0,001,2019_Nov_05_1146,Test,3.1.2,59.98097199500592,
Pictures/IA50_L10.bmp,Pictures/IA50_L10.bmp,Pictures/IA50.bmp,"

"Play it safe, don’t gamble!"",0,safe,0,0,0,0,0,13,13,14,,,,,,,,,,,,,,,,,,,,,,,,,297.7130571655707,None,299.7149926040938,301.2140937743761,301.23076970925194,None,302.7478966140561,None,None,304.7199134635366,None,304.7199134635366,None,304.7199134635366,None,None,None,None,None,307.7827049611669,None,307.7827049611669,None,None,307.7827049611669,None,None,None,None,None,,,,,,,,,0,001,2019_Nov_05_1146,Test,3.1.2,59.98097199500592,
Pictures/IA100_L40.bmp,Pictures/IA100_L40.bmp,Pictures/IA100.bmp,"

"Think of the payoff, gamble!"",1,risk,0,0,0,0,0,14,14,9,,,,,,,,,,,,,,,,,,,,,,,,,309.7332553310871,None,311.7366512901481,313.2342294261307,313.2508926094433,None,314.82313612573944,None,None,316.75184679960694,None,316.75184679960694,None,316.75184679960694,None,None,None,None,None,319.8029351610994,None,319.8029351610994,None,right,319.8029351610994,None,None,None,321.15355028408067,None,1.3297915088269292,,,,,,,,0,001,2019_Nov_05_1146,Test,3.1.2,59.98097199500592,
Pictures/IA25_L10.bmp,Pictures/IA25_L10.bmp,Pictures/IA25.bmp,"

"Dont be afraid to take the risk!"",1,risk,0,0,0,0,0,15,15,2,,,,,,,,,,,,,,,,,,,,,,,,,321.7533262919824,None,323.7567922291355,325.25436010166504,325.270999336919,None,326.7882226559832,None,n,328.77202288314766,None,328.77202288314766,None,328.77202288314766,None,None,None,None,None,330.25584736938436,None,330.25584736938436,None,right,330.25584736938436,None,None,None,331.25606974421044,None,0.9806891566922786,1.3925127173524743,,,,,,,0,001,2019_Nov_05_1146,Test,3.1.2,59.98097199500592,
Pictures/IA50_L20.bmp,Pictures/IA50_L20.bmp,Pictures/IA50.bmp,"

"Certainty is boring, take a risk!"",1,risk,0,0,0,0,0,16,16,0,,,,,,,,,,,,,,,,,,,,,,,,,332.20641017985326,None,334.20897137802785,335.7073142968047,335.7240552335534,None,337.34464490316986,None,n,339.22513569529656,None,339.22513569529656,None,339.22513569529656,None,None,None,None,None,340.5254312827583,None,340.5254312827583,None,right,340.5254312827583,None,None,None,341.242353105099,342.45938098312763,0.6868741625958137,1.2032512132645934,,,,,,,0,001,2019_Nov_05_1146,Test,3.1.2,59.98097199500592,
Pictures/IA20_10_L95p.bmp,Pictures/IA20_10_L95p.bmp,Pictures/IA20.bmp,"

"Don't be tempted to gamble."",0,safe,0,0,0,0,0,17,17,11,,,,,,,,,,,,,,,,,,,,,,,,,342.47597107821,None,344.479674940877,345.9770338121707,345.99362515130906,None,347.59404837880993,None,None,349.4947678158005,None,349.4947678158005,None,349.4947678158005,None,None,None,None,None,352.5455025546671,None,352.5455025546671,None,right,352.5455025546671,None,None,None,353.4291572896027,354.4793253614298,0.8584710191171325,,,,,,,,0,001,2019_Nov_05_1146,Test,3.1.2,59.98097199500592,
Pictures/IA100_G60.bmp,Pictures/IA100_G60.bmp,Pictures/IA100.bmp,"

"Be cautious, don't gamble for this one."",0,safe,0,0,0,0,0,18,18,13,,,,,,,,,,,,,,,,,,,,,,,,,354.49601840206196,None,356.4979109206879,357.9970671404035,357.9970671404035,None,359.6475769541312,None,n,361.5015239673412,None,361.5015239673412,None,361.5015239673412,None,None,None,None,None,362.8484342946149,None,362.8484342946149,None,left,362.8484342946149,None,363.66536196401466,364.7824623704473,None,None,0.7872936579324232,1.262192671770208,,,,,,,0,001,2019_Nov_05_1146,Test,3.1.2,59.98097199500592,
Pictures/IA100_G20.bmp,Pictures/IA100_G20.bmp,Pictures/IA100.bmp,"

"Go ahead and gamble!"",1,risk,0,0,0,0,0,19,19,3,,,,,,,,,,,,,,,,,,,,,,,,,364.7991389273511,None,366.8021339896968,368.3003360192488,368.3168228577688,None,369.850494449649,None,n,371.8049834976109,None,371.8049834976109,None,371.8049834976109,None,None,None,None,None,373.12379311117,None,373.12379311117,None,left,373.12379311117,None,374.0017457201402,375.0687278169453,None,None,0.8476511620101519,1.2465082487069594,,,,,,,0,001,2019_Nov_05_1146,Test,3.1.2,59.98097199500592,
,,,,,,0,0,0,0,,,,,,,,,,,,,,,,,,,,,,,,,,,,,,,,,,,,,,,,,,,,,,,,,,,,,,,,,,,,,375.3854564375497,None,return,50.77696706862116,375.3854564375497,None,0,001,2019_Nov_05_1146,Test,3.1.2,59.98097199500592,
Pictures/IA75_G30.bmp,Pictures/IA75_G30.bmp,Pictures/IA75.bmp,"

"Be bold, gamble!"",1,risk,1,0,1,0,0,0,0,11,,,,,,,426.26661435415554,None,426.26661435415554,None,426.26661435415554,None,right,10.215469388161182,426.26661435415554,None,426.26661435415554,None,426.26661435415554,None,return,15.159329852466726,426.26661435415554,None,441.48794293022274,None,443.47489061646684,444.9722158982768,444.9722158982768,None,446.5895057120788,None,y,448.50668555142147,None,448.50668555142147,None,448.50668555142147,None,449.95701821172133,None,449.95701821172133,450.94047850086463,452.0241100963776,None,452.0241100963776,None,None,452.0241100963776,None,None,None,None,None,,1.3670811235806468,,,,,,,0,001,2019_Nov_05_1146,Test,3.1.2,59.98097199500592,
Pictures/IA75_L60.bmp,Pictures/IA75_L60.bmp,Pictures/IA75.bmp,"

"Why not take the gamble?"",1,risk,1,0,1,0,0,1,1,5,,,,,,,,,,,,,,,,,,,,,,,,,453.9415586515943,None,455.9428891683874,457.4427056702789,457.45937009764657,None,458.9596350813554,None,y,460.978991643683,None,460.978991643683,None,460.978991643683,None,461.76232174247343,None,461.76232174247343,462.76089729953037,463.84432953523356,None,463.84432953523356,None,right,463.84432953523356,None,None,None,464.4612585730947,465.74510588773956,0.5970474843343254,0.6864658015501846,,,,,,,0,001,2019_Nov_05_1146,Test,3.1.2,59.98097199500592,
Pictures/IA100_L60.bmp,Pictures/IA100_L60.bmp,Pictures/IA100.bmp,"

"You'd have a lot to lose, don't gamble."",0,safe,1,0,1,0,0,2,2,15,,,,,,,,,,,,,,,,,,,,,,,,,465.7617553864475,None,467.7834691219341,469.2627671141536,469.27931522238123,None,470.77968035251615,None,n,472.76688835726327,None,472.76688835726327,None,472.76688835726327,None,None,None,None,None,474.1474130498882,None,474.1474130498882,None,right,474.1474130498882,None,None,None,474.980887894475,476.08140753623684,0.8057489024331517,1.2661409912379895,,,,,,,0,001,2019_Nov_05_1146,Test,3.1.2,59.98097199500592,
Pictures/IA100_G20.bmp,Pictures/IA100_G20.bmp,Pictures/IA100.bmp,"

"Go ahead and gamble!"",1,risk,1,0,1,0,0,3,3,12,,,,,,,,,,,,,,,,,,,,,,,,,476.09806885346734,None,478.11927656959324,479.5990740498846,479.615723237579,None,481.11616301101185,None,n,483.1330818476208,None,483.1330818476208,None,483.1330818476208,None,None,None,None,None,484.35008266745353,None,484.35008266745353,None,right,484.35008266745353,None,None,None,485.25064379844844,486.2843480467718,0.8828162418840293,1.099875221286311,,,,,,,0,001,2019_Nov_05_1146,Test,3.1.2,59.98097199500592,
Pictures/IA50_G30.bmp,Pictures/IA50_G30.bmp,Pictures/IA50.bmp,"

"I think you should gamble."",1,risk,1,0,1,0,0,4,4,0,,,,,,,,,,,,,,,,,,,,,,,,,486.300993502301,None,488.3217222572639,489.80202202474993,489.8186967155707,None,491.3690912054026,None,n,493.35294492693083,None,493.35294492693083,None,493.35294492693083,None,None,None,None,None,494.58633430494046,None,494.58633430494046,None,right,494.58633430494046,None,None,None,495.58704341627526,None,0.9743102648217246,1.1037177960815825,,,,,,,0,001,2019_Nov_05_1146,Test,3.1.2,59.98097199500592,
Pictures/IA80_40_G95p.bmp,Pictures/IA80_40_G95p.bmp,Pictures/IA80.bmp,"

"Think of the payoff, gamble!"",1,risk,1,0,1,0,0,5,5,16,,,,,,,,,,,,,,,,,,,,,,,,,496.5372672217645,None,498.55811882715534,500.0383066296936,500.05486531238876,None,501.5887287997484,None,n,503.58917945866233,None,503.58917945866233,None,503.58917945866233,None,None,None,None,None,506.459974086335,None,506.459974086335,None,left,506.459974086335,None,507.75720152322174,None,None,None,1.276388583059088,2.7632777987200825,,,,,,,0,001,2019_Nov_05_1146,Test,3.1.2,59.98097199500592,
Pictures/IA25_G10.bmp,Pictures/IA25_G10.bmp,Pictures/IA25.bmp,"

"What's life without a little risk?"",1,risk,1,0,1,0,0,6,6,10,,,,,,,,,,,,,,,,,,,,,,,,,508.4240585302987,None,510.44500406184034,511.92506217164737,511.9417262880015,None,513.4753888604837,None,n,515.4592301414623,None,515.4592301414623,None,515.4592301414623,None,None,None,None,None,517.2278477351365,None,517.2278477351365,None,None,517.2278477351365,None,None,None,None,None,,1.6449491990151728,,,,,,,0,001,2019_Nov_05_1146,Test,3.1.2,59.98097199500592,
Pictures/IA100_L40.bmp,Pictures/IA100_L40.bmp,Pictures/IA100.bmp,"

"Think of the payoff, gamble!"",1,risk,1,0,1,0,0,7,7,19,,,,,,,,,,,,,,,,,,,,,,,,,519.1770479943971,None,521.1989467830608,522.6781113503848,522.6948261619791,None,524.1952239485563,None,None,526.2123349916592,None,526.2123349916592,None,526.2123349916592,None,None,None,None,None,529.2834451738754,None,529.2834451738754,None,right,529.2834451738754,None,None,None,530.4803800090322,None,1.1643940892463434,,,,,,,,0,001,2019_Nov_05_1146,Test,3.1.2,59.98097199500592,
Pictures/IA100_G60.bmp,Pictures/IA100_G60.bmp,Pictures/IA100.bmp,"

"Be cautious, don't gamble for this one."",0,safe,1,0,1,0,0,8,8,7,,,,,,,,,,,,,,,,,,,,,,,,,531.2306132693393,None,533.2484831859756,534.7316162886609,534.7483024869907,None,536.2485730689468,None,None,538.2658122497123,None,538.2658122497123,None,538.2658122497123,None,None,None,None,None,541.3331510792805,None,541.3331510792805,None,right,541.3331510792805,None,None,None,542.3837293782344,None,1.0343567551562955,,,,,,,,0,001,2019_Nov_05_1146,Test,3.1.2,59.98097199500592,
Pictures/IA50_L40.bmp,Pictures/IA50_L40.bmp,Pictures/IA50.bmp,"

"That gamble doesn't sound too good, play it safe."",0,safe,1,0,1,0,0,9,9,18,,,,,,,,,,,,,,,,,,,,,,,,,543.2837166888739,None,545.3040199770348,546.7850985229343,546.8016512963677,None,548.3020052300071,None,n,550.3198219632932,None,550.3198219632932,None,550.3198219632932,None,None,None,None,None,552.7531238220363,None,552.7531238220363,None,right,552.7531238220363,None,None,None,553.620398396165,554.7040620260932,0.8380968198216578,2.311489594102568,,,,,,,0,001,2019_Nov_05_1146,Test,3.1.2,59.98097199500592,
Pictures/IA25_L5.bmp,Pictures/IA25_L5.bmp,Pictures/IA25.bmp,"

"It would be smarter to choose the safe option."",0,safe,1,0,1,0,0,10,10,6,,,,,,,,,,,,,,,,,,,,,,,,,554.7207009503336,None,556.7392843324969,558.2217353820433,558.238380526559,None,559.7388168788411,None,n,561.7559814163069,None,561.7559814163069,None,561.7559814163069,None,None,None,None,None,563.6062351413193,None,563.6062351413193,None,right,563.6062351413193,None,None,None,564.3901465247955,565.5404831038677,0.7529225961434349,1.7230979332516654,,,,,,,0,001,2019_Nov_05_1146,Test,3.1.2,59.98097199500592,
Pictures/IA75_G15.bmp,Pictures/IA75_G15.bmp,Pictures/IA75.bmp,"

"Take a chance!"",1,risk,1,0,1,0,0,11,11,1,,,,,,,,,,,,,,,,,,,,,,,,,565.5571192289854,None,567.5793536014771,569.0581605029965,569.0748519885601,None,570.6137905981795,None,y,572.5923822781888,None,572.5923822781888,None,572.5923822781888,None,574.3426295341142,None,574.3426295341142,575.3433016348135,576.4298026431197,None,576.4298026431197,None,None,576.4298026431197,None,None,None,None,None,,1.6624091995381605,,,,,,,0,001,2019_Nov_05_1146,Test,3.1.2,59.98097199500592,
Pictures/IA75_L15.bmp,Pictures/IA75_L15.bmp,Pictures/IA75.bmp,"

"Trust me, gamble!"",1,risk,1,0,1,0,0,12,12,9,,,,,,,,,,,,,,,,,,,,,,,,,578.344194866283,None,580.3779460776814,581.8451922873573,581.8618700883162,None,583.3622756502373,None,y,585.3960741357241,None,585.3960741357241,None,585.3960741357241,None,586.1627618891225,None,586.1627618891225,587.1633898258697,588.2468201954916,None,588.2468201954916,None,None,588.2468201954916,None,None,None,None,None,,0.682540497098671,,,,,,,0,001,2019_Nov_05_1146,Test,3.1.2,59.98097199500592,
Pictures/IA110_55_L95p.bmp,Pictures/IA110_55_L95p.bmp,Pictures/IA110.bmp,"

"Trust me, gamble!"",1,risk,1,0,1,0,0,13,13,4,,,,,,,,,,,,,,,,,,,,,,,,,590.1642308070313,None,592.1871049347938,593.6652499990678,593.6819442837541,None,595.182356376964,None,None,597.2159296885011,None,597.2159296885011,None,597.2159296885011,None,None,None,None,None,600.2502817784516,None,600.2502817784516,None,right,600.2502817784516,None,None,None,601.3174744315602,None,1.035825362050673,,,,,,,,0,001,2019_Nov_05_1146,Test,3.1.2,59.98097199500592,
Pictures/IA100_L80.bmp,Pictures/IA100_L80.bmp,Pictures/IA100.bmp,"

"Go all in!"",1,risk,1,0,1,0,0,14,14,17,,,,,,,,,,,,,,,,,,,,,,,,,602.1676572454389,None,604.1904613951083,605.668735219072,605.6853651239144,None,607.2239112341904,None,y,609.2058167656314,None,609.2058167656314,None,609.2058167656314,None,611.4868764640978,None,611.4868764640978,612.470680112413,613.539615064511,None,613.539615064511,None,right,613.539615064511,None,None,None,615.2881654294542,None,1.7221418770059245,2.1840084819668846,,,,,,,0,001,2019_Nov_05_1146,Test,3.1.2,59.98097199500592,
Pictures/IA25_G15.bmp,Pictures/IA25_G15.bmp,Pictures/IA25.bmp,"

"I think you should take a gamble."",1,risk,1,0,1,0,0,15,15,2,,,,,,,,,,,,,,,,,,,,,,,,,615.4715543720449,None,617.4948427701129,618.972498609769,618.9891614820681,None,620.5229857816958,None,y,622.5067776114893,None,622.5067776114893,None,622.5067776114893,None,624.1613620162652,None,624.1613620162652,625.1409682231042,626.2244937629312,None,626.2244937629312,None,right,626.2244937629312,None,None,None,627.1248947218482,628.1251870747665,0.8769996628616354,1.5468025921127264,,,,,,,0,001,2019_Nov_05_1146,Test,3.1.2,59.98097199500592,
Pictures/IA75_L30.bmp,Pictures/IA75_L30.bmp,Pictures/IA75.bmp,"

"Hold back, stay with the safe choice."",0,safe,1,0,1,0,0,16,16,14,,,,,,,,,,,,,,,,,,,,,,,,,628.1418658087669,None,630.1632010405283,631.6428685170749,631.6594676315563,None,633.2099815506654,None,y,635.1937575187576,None,635.1937575187576,None,635.1937575187576,None,636.0111318038926,None,636.0111318038926,637.0110888839963,638.0782277317276,None,638.0782277317276,None,right,638.0782277317276,None,None,None,638.6115534763258,639.9952732131333,0.5110005560927675,0.7315282717718219,,,,,,,0,001,2019_Nov_05_1146,Test,3.1.2,59.98097199500592,
Pictures/IA25_G20.bmp,Pictures/IA25_G20.bmp,Pictures/IA25.bmp,"

"I wouldn't gamble for this one. "",0,safe,1,0,1,0,0,17,17,13,,,,,,,,,,,,,,,,,,,,,,,,,640.0119379515145,None,642.0328119498945,643.5129639858533,643.5296137955747,None,645.0298137774116,None,y,647.0476199362301,None,647.0476199362301,None,647.0476199362301,None,647.7973537084663,None,647.7973537084663,648.7978211621221,649.8668332456282,None,649.8668332456282,None,right,649.8668332456282,None,None,None,650.2481650189166,651.7820051802455,0.3540359631406318,0.6533092484287408,,,,,,,0,001,2019_Nov_05_1146,Test,3.1.2,59.98097199500592,
Pictures/IA20_10_G95p.bmp,Pictures/IA20_10_G95p.bmp,Pictures/IA20.bmp,"

"Take a leap, I think you should gamble."",1,risk,1,0,1,0,0,18,18,3,,,,,,,,,,,,,,,,,,,,,,,,,651.7986776939706,None,653.8174862500828,655.2996754260585,655.3163299009857,None,656.8166558433886,None,None,658.8338589465593,None,658.8338589465593,None,658.8338589465593,None,None,None,None,None,661.9011834694957,None,661.9011834694957,None,None,661.9011834694957,None,None,None,None,None,,,,,,,,,0,001,2019_Nov_05_1146,Test,3.1.2,59.98097199500592,
Pictures/IA100_L20.bmp,Pictures/IA100_L20.bmp,Pictures/IA100.bmp,"

"Try to win as much money as you can, gamble!"",1,risk,1,0,1,0,0,19,19,8,,,,,,,,,,,,,,,,,,,,,,,,,663.8521630383811,None,665.872006026203,667.3531629475647,667.369763306101,None,668.8700724537621,None,None,670.8873156777054,None,670.8873156777054,None,670.8873156777054,None,None,None,None,None,673.954625894009,None,673.954625894009,None,None,673.954625894009,None,None,None,None,None,,,,,,,,,0,001,2019_Nov_05_1146,Test,3.1.2,59.98097199500592,
,,,,,,1,0,1,0,,,,,,,,,,,,,,,,,,,,,,,,,,,,,,,,,,,,,,,,,,,,,,,,,,,,,,,,,,,,,676.0220309695051,None,return,470.6347600777781,676.0220309695051,None,0,001,2019_Nov_05_1146,Test,3.1.2,59.98097199500592,
Pictures/IA80_40_G95p.bmp,Pictures/IA80_40_G95p.bmp,Pictures/IA80.bmp,"

"Think of the payoff, gamble!"",1,risk,2,0,2,0,0,0,0,11,,,,,,,1146.757687948715,None,1146.757687948715,None,1146.757687948715,None,left,2.0031446599559786,1146.757687948715,None,1146.757687948715,None,1146.757687948715,None,return,3.3391206770638746,1146.757687948715,None,1150.1587087580228,None,1152.1621694079422,1153.6432411115384,1153.6598865670685,None,1155.1601866953306,None,y,1157.1774827916097,None,1157.1774827916097,None,1157.1774827916097,None,1158.8276377386564,None,1158.8276377386564,1159.828343117826,1160.9117809517775,None,1160.9117809517775,None,None,1160.9117809517775,None,None,None,None,None,,1.5671236080579547,,,,,,,0,001,2019_Nov_05_1146,Test,3.1.2,59.98097199500592,
Pictures/IA25_L10.bmp,Pictures/IA25_L10.bmp,Pictures/IA25.bmp,"

"Dont be afraid to take the risk!"",1,risk,2,0,2,0,0,1,1,7,,,,,,,,,,,,,,,,,,,,,,,,,1162.8292102241421,None,1164.8489281844395,1166.3302213298202,1166.3468925994903,None,1167.847130525004,None,None,1169.8644592777273,None,1169.8644592777273,None,1169.8644592777273,None,None,None,None,None,1172.9317156886536,None,1172.9317156886536,None,None,1172.9317156886536,None,None,None,None,None,,,,,,,,,0,001,2019_Nov_05_1146,Test,3.1.2,59.98097199500592,
Pictures/IA75_L30.bmp,Pictures/IA75_L30.bmp,Pictures/IA75.bmp,"

"Hold back, stay with the safe choice."",0,safe,2,0,2,0,0,2,2,3,,,,,,,,,,,,,,,,,,,,,,,,,1174.8826809509064,None,1176.9039695306064,1178.3836830371865,1178.4003567949667,None,1179.90060467292,None,y,1181.920344715193,None,1181.920344715193,None,1181.920344715193,None,1183.6713968746853,None,1183.6713968746853,1184.6688390976624,1185.741150414955,None,1185.741150414955,None,right,1185.741150414955,None,None,None,1187.5029661380686,None,1.7306306861091798,1.6637176343547253,,,,,,,0,001,2019_Nov_05_1146,Test,3.1.2,59.98097199500592,
Pictures/IA110_55_G95p.bmp,Pictures/IA110_55_G95p.bmp,Pictures/IA110.bmp,"

"Take a chance!"",1,risk,2,0,2,0,0,3,3,16,,,,,,,,,,,,,,,,,,,,,,,,,1187.6696906532907,None,1189.6889545335234,1191.1707064241755,1191.1872968302732,None,1192.737792399571,None,y,1194.7049067394191,None,1194.7049067394191,None,1194.7049067394191,None,1195.8382818729997,None,1195.8382818729997,1196.8223324662276,1197.8918555453129,None,1197.8918555453129,None,left,1197.8918555453129,None,1198.5061384782475,1199.8065335901065,None,None,0.5876750851866746,1.0467220395539698,,,,,,,0,001,2019_Nov_05_1146,Test,3.1.2,59.98097199500592,
Pictures/IA100_G40.bmp,Pictures/IA100_G40.bmp,Pictures/IA100.bmp,"

"Try your luck and gamble!"",1,risk,2,0,2,0,0,4,4,5,,,,,,,,,,,,,,,,,,,,,,,,,1199.8231992615292,None,1201.8407376375153,1203.324197615645,1203.3408480473936,None,1204.86009482187,None,y,1206.8583969978472,None,1206.8583969978472,None,1206.8583969978472,None,1208.1754042867651,None,1208.1754042867651,1209.1591889632427,1210.225790379226,None,1210.225790379226,None,left,1210.225790379226,None,1211.5599180416593,None,None,None,1.3094624065251992,1.220891912771549,,,,,,,0,001,2019_Nov_05_1146,Test,3.1.2,59.98097199500592,
Pictures/IA50_G10.bmp,Pictures/IA50_G10.bmp,Pictures/IA50.bmp,"

"Go with the safe option here!"",0,safe,2,0,2,0,0,5,5,19,,,,,,,,,,,,,,,,,,,,,,,,,1212.1601475075986,None,1214.1810414108586,1215.6611113391882,1215.6777639480342,None,1217.2125287532208,None,y,1219.2119238314908,None,1219.2119238314908,None,1219.2119238314908,None,1220.8123585665007,None,1220.8123585665007,1221.7962017135615,1222.879479997463,None,1222.879479997463,None,left,1222.879479997463,None,1224.613645043748,None,None,None,1.7114601099992797,1.4991751915531495,,,,,,,0,001,2019_Nov_05_1146,Test,3.1.2,59.98097199500592,
Pictures/IA75_L45.bmp,Pictures/IA75_L45.bmp,Pictures/IA75.bmp,"

"Don't gamble for this one, play it safe."",0,safe,2,0,2,0,0,6,6,10,,,,,,,,,,,,,,,,,,,,,,,,,1224.7970619775751,None,1226.8183303413816,1228.2980553554708,1228.3146180813446,None,1229.8488861975839,None,y,1231.8489763915695,None,1231.8489763915695,None,1231.8489763915695,None,1233.1990795859292,None,1233.1990795859292,1234.1997523086557,1235.270094286927,None,1235.270094286927,None,left,1235.270094286927,None,1236.617098229337,None,None,None,1.328599393150398,1.253684268800498,,,,,,,0,001,2019_Nov_05_1146,Test,3.1.2,59.98097199500592,
Pictures/IA75_G45.bmp,Pictures/IA75_G45.bmp,Pictures/IA75.bmp,"

"Don't gamble for this one."",0,safe,2,0,2,0,0,7,7,2,,,,,,,,,,,,,,,,,,,,,,,,,1237.20063341059,None,1239.2190115236817,1240.7016569568177,1240.718296503086,None,1242.2562258731095,None,y,1244.235869712611,None,1244.235869712611,None,1244.235869712611,None,1245.5527749890216,None,1245.5527749890216,1246.5366539026627,1247.603446903112,None,1247.603446903112,None,left,1247.603446903112,None,1248.5205598745006,1249.520847562212,None,None,0.8989615873142611,1.2345457271067062,,,,,,,0,001,2019_Nov_05_1146,Test,3.1.2,59.98097199500592,
Pictures/IA50_L40.bmp,Pictures/IA50_L40.bmp,Pictures/IA50.bmp,"

"That gamble doesn't sound too good, play it safe."",0,safe,2,0,2,0,0,8,8,12,,,,,,,,,,,,,,,,,,,,,,,,,1249.5375082574155,None,1251.5582538071194,1253.038500391256,1253.0551819243792,None,1254.5555983717813,None,y,1256.5727069267741,None,1256.5727069267741,None,1256.5727069267741,None,1258.6897665904062,None,1258.6897665904062,1259.6737456504734,1260.7419239061337,None,1260.7419239061337,None,right,1260.7419239061337,None,None,None,1261.5409505575235,1262.6579728995066,0.7761030724423108,2.0173838021546544,,,,,,,0,001,2019_Nov_05_1146,Test,3.1.2,59.98097199500592,
Pictures/IA75_L15.bmp,Pictures/IA75_L15.bmp,Pictures/IA75.bmp,"

"Trust me, gamble!"",1,risk,2,0,2,0,0,9,9,1,,,,,,,,,,,,,,,,,,,,,,,,,1262.6746388819438,None,1264.6954397920936,1266.1756549638421,1266.192323123375,None,1267.6927457910515,None,y,1269.7098742509243,None,1269.7098742509243,None,1269.7098742509243,None,1271.0602315435117,None,1271.0602315435117,1272.0440040904532,1273.1311846637882,None,1273.1311846637882,None,right,1273.1311846637882,None,None,None,1273.4443913647665,1275.0281800222192,0.2905434405329288,1.263861571515008,,,,,,,0,001,2019_Nov_05_1146,Test,3.1.2,59.98097199500592,
Pictures/IA20_10_L95p.bmp,Pictures/IA20_10_L95p.bmp,Pictures/IA20.bmp,"

"Don't be tempted to gamble."",0,safe,2,0,2,0,0,10,10,18,,,,,,,,,,,,,,,,,,,,,,,,,1275.044873373865,None,1277.0659206069004,1278.5458813694067,1278.5624923024106,None,1280.0628975533173,None,y,1282.0965346226722,None,1282.0965346226722,None,1282.0965346226722,None,1282.9316342030525,None,1282.9316342030525,1283.930749990981,1285.0142223474577,None,1285.0142223474577,None,right,1285.0142223474577,None,None,None,1285.7812957578972,1286.91492530072,0.7351515818781991,0.740994597068493,,,,,,,0,001,2019_Nov_05_1146,Test,3.1.2,59.98097199500592,
Pictures/IA75_G15.bmp,Pictures/IA75_G15.bmp,Pictures/IA75.bmp,"

"Take a chance!"",1,risk,2,0,2,0,0,11,11,6,,,,,,,,,,,,,,,,,,,,,,,,,1286.9316003025542,None,1288.9528297896431,1290.4326322461538,1290.4492696153266,None,1291.9495296228151,None,y,1293.9686666094403,None,1293.9686666094403,None,1293.9686666094403,None,1295.2004663962098,None,1295.2004663962098,1296.184282796089,1297.251212953598,None,1297.251212953598,None,None,1297.251212953598,None,None,None,None,None,,1.1405660823338621,,,,,,,0,001,2019_Nov_05_1146,Test,3.1.2,59.98097199500592,
Pictures/IA25_G20.bmp,Pictures/IA25_G20.bmp,Pictures/IA25.bmp,"

"I wouldn't gamble for this one. "",0,safe,2,0,2,0,0,12,12,4,,,,,,,,,,,,,,,,,,,,,,,,,1299.1851337296894,None,1301.2057312368524,1302.6861305287366,1302.7030776675965,None,1304.203232241427,None,y,1306.2203479497357,None,1306.2203479497357,None,1306.2203479497357,None,1307.503981597939,None,1307.503981597939,1308.504493837574,1309.5879276283467,None,1309.5879276283467,None,right,1309.5879276283467,None,None,None,1310.7551625171218,None,1.1448997478300953,1.1845863455009749,,,,,,,0,001,2019_Nov_05_1146,Test,3.1.2,59.98097199500592,
Pictures/IA75_G60.bmp,Pictures/IA75_G60.bmp,Pictures/IA75.bmp,"

"Make it exciting, take a chance!"",1,risk,2,0,2,0,0,13,13,9,,,,,,,,,,,,,,,,,,,,,,,,,1311.5053363738043,None,1313.524645351029,1315.0063782698435,1315.039699349235,None,1316.5567985738162,None,y,1318.5405729868398,None,1318.5405729868398,None,1318.5405729868398,None,1319.0574417502366,None,1319.0574417502366,1320.0411598697729,1321.1089792155744,None,1321.1089792155744,None,right,1321.1089792155744,None,None,None,1322.4251893762685,None,1.295522770559728,0.41603033254796173,,,,,,,0,001,2019_Nov_05_1146,Test,3.1.2,59.98097199500592,
Pictures/IA50_L20.bmp,Pictures/IA50_L20.bmp,Pictures/IA50.bmp,"

"Certainty is boring, take a risk!"",1,risk,2,0,2,0,0,14,14,14,,,,,,,,,,,,,,,,,,,,,,,,,1323.0420251100059,None,1325.0478447991663,1326.5430237751352,1326.5596144922456,None,1328.060113669303,None,y,1330.0936723631949,None,1330.0936723631949,None,1330.0936723631949,None,1331.3608975483412,None,1331.3608975483412,1332.344702751726,1333.4281377865527,None,1333.4281377865527,None,right,1333.4281377865527,None,None,None,1334.2952238863536,1335.3289029425641,0.8400963271760702,1.1746740264961772,,,,,,,0,001,2019_Nov_05_1146,Test,3.1.2,59.98097199500592,
Pictures/IA110_55_L95p.bmp,Pictures/IA110_55_L95p.bmp,Pictures/IA110.bmp,"

"Trust me, gamble!"",1,risk,2,0,2,0,0,15,15,17,,,,,,,,,,,,,,,,,,,,,,,,,1335.3455676809454,None,1337.3669417894243,1338.846561680868,1338.8631225406589,None,1340.3636459767886,None,y,1342.397246657536,None,1342.397246657536,None,1342.397246657536,None,1342.897534034234,None,1342.897534034234,1343.8813669178417,1344.949939849943,None,1344.949939849943,None,None,1344.949939849943,None,None,None,None,None,,0.4068572932101233,,,,,,,0,001,2019_Nov_05_1146,Test,3.1.2,59.98097199500592,
Pictures/IA80_40_L95p.bmp,Pictures/IA80_40_L95p.bmp,Pictures/IA80.bmp,"

"Let's stay with the certain option."",0,safe,2,0,2,0,0,16,16,13,,,,,,,,,,,,,,,,,,,,,,,,,1346.8822103871134,None,1348.9033838917276,1350.3832028319675,1350.3998930734751,None,1351.900316674194,None,y,1353.9174522873818,None,1353.9174522873818,None,1353.9174522873818,None,1354.3690747216742,None,1354.3690747216742,1355.36798586256,1356.4383032707456,None,1356.4383032707456,None,left,1356.4383032707456,None,1356.8016827087558,1358.352181077178,None,None,0.3413944985395574,0.3663104315255623,,,,,,,0,001,2019_Nov_05_1146,Test,3.1.2,59.98097199500592,
Pictures/IA100_G20.bmp,Pictures/IA100_G20.bmp,Pictures/IA100.bmp,"

"Go ahead and gamble!"",1,risk,2,0,2,0,0,17,17,15,,,,,,,,,,,,,,,,,,,,,,,,,1358.3688411503535,None,1360.3869937784812,1361.869880247269,1361.8865521389662,None,1363.3868140125378,None,y,1365.4040998453647,None,1365.4040998453647,None,1365.4040998453647,None,1366.0873345251384,None,1366.0873345251384,1367.088029018827,1368.171303259549,None,1368.171303259549,None,None,1368.171303259549,None,None,None,None,None,,0.5913798808942374,,,,,,,0,001,2019_Nov_05_1146,Test,3.1.2,59.98097199500592,
Pictures/IA20_10_G95p.bmp,Pictures/IA20_10_G95p.bmp,Pictures/IA20.bmp,"

"Take a leap, I think you should gamble."",1,risk,2,0,2,0,0,18,18,8,,,,,,,,,,,,,,,,,,,,,,,,,1370.0889160300221,None,1372.1105050489978,1373.5899283797553,1373.606575390354,None,1375.106832598719,None,y,1377.125881568455,None,1377.125881568455,None,1377.125881568455,None,1377.8599452242597,None,1377.8599452242597,1378.8580959365436,1379.9272915181582,None,1379.9272915181582,None,right,1379.9272915181582,None,None,None,1379.9917609349322,1381.8422945723132,0.33181869640429795,0.6453021996130701,,,,,,,0,001,2019_Nov_05_1146,Test,3.1.2,59.98097199500592,
Pictures/IA40_20_G95p.bmp,Pictures/IA40_20_G95p.bmp,Pictures/IA40.bmp,"

"Hold back, stay with the safe choice."",0,safe,2,0,2,0,0,19,19,0,,,,,,,,,,,,,,,,,,,,,,,,,1381.8589633538732,None,1383.87655335814,1385.3599753925928,1385.3766289344794,None,1386.8769138230682,None,y,1388.8941744637814,None,1388.8941744637814,None,1388.8941744637814,None,1390.2778379071015,None,1390.2778379071015,1391.2616850973418,1392.344955294885,None,1392.344955294885,None,left,1392.344955294885,None,1392.8120882955582,1394.2458747137125,None,None,0.4498589863687812,1.2767338083131108,,,,,,,0,001,2019_Nov_05_1146,Test,3.1.2,59.98097199500592,
,,,,,,2,0,2,0,,,,,,,,,,,,,,,,,,,,,,,,,,,,,,,,,,,,,,,,,,,,,,,,,,,,,,,,,,,,,1394.3635448973228,None,return,99.26890808050939,1394.3635448973228,None,0,001,2019_Nov_05_1146,Test,3.1.2,59.98097199500592,
Pictures/IA75_G60.bmp,Pictures/IA75_G60.bmp,Pictures/IA75.bmp,"

"Make it exciting, take a chance!"",1,risk,3,0,3,0,0,0,0,3,,,,,,,1493.7743051019943,None,1493.7743051019943,None,1493.7743051019943,None,left,1.5700222561436021,1493.7743051019943,None,1493.7743051019943,None,1493.7743051019943,None,return,3.801906949664044,1493.7743051019943,None,1497.628170629604,None,1499.630162050601,1501.1099869001018,1501.1266482173323,None,1502.627063109665,None,y,1504.660829871751,None,1504.660829871751,None,1504.660829871751,None,1506.3777426746938,None,1506.3777426746938,1507.3617674537809,1508.4450360962555,None,1508.4450360962555,None,right,1508.4450360962555,None,None,None,1509.7624713400837,None,1.2909306526435103,1.6031809863616218,,,,,,,0,001,2019_Nov_05_1146,Test,3.1.2,59.98097199500592,
Pictures/IA25_G5.bmp,Pictures/IA25_G5.bmp,Pictures/IA25.bmp,"

"Let's stay with the certain option."",0,safe,3,0,3,0,0,1,1,10,,,,,,,,,,,,,,,,,,,,,,,,,1510.3626311389453,None,1512.3838522286624,1513.86366681471,1513.8803309310633,None,1515.414079343339,None,y,1517.4011116253214,None,1517.4011116253214,None,1517.4011116253214,None,1518.1312844991999,None,1518.1312844991999,1519.1151615467588,1520.181731550354,None,1520.181731550354,None,None,1520.181731550354,None,None,None,None,None,,0.6226824810937615,,,,,,,0,001,2019_Nov_05_1146,Test,3.1.2,59.98097199500592,
Pictures/IA75_L45.bmp,Pictures/IA75_L45.bmp,Pictures/IA75.bmp,"

"Don't gamble for this one, play it safe."",0,safe,3,0,3,0,0,2,2,16,,,,,,,,,,,,,,,,,,,,,,,,,1522.1160326962536,None,1524.1368137015243,1525.617050022207,1525.6337079182858,None,1527.1341209445363,None,y,1529.167860337413,None,1529.167860337413,None,1529.167860337413,None,1530.3513419620995,None,1530.3513419620995,1531.3520078425227,1532.4196082346489,None,1532.4196082346489,None,left,1532.4196082346489,None,1533.1691936533298,1534.3362136316082,None,None,0.7317658862712051,1.0875603211152338,,,,,,,0,001,2019_Nov_05_1146,Test,3.1.2,59.98097199500592,
Pictures/IA50_G30.bmp,Pictures/IA50_G30.bmp,Pictures/IA50.bmp,"

"I think you should gamble."",1,risk,3,0,3,0,0,3,3,14,,,,,,,,,,,,,,,,,,,,,,,,,1534.3528842792512,None,1536.374305972833,1537.8538841884347,1537.8704329186903,None,1539.3709585319157,None,y,1541.3881068966684,None,1541.3881068966684,None,1541.3881068966684,None,1542.2216287043293,None,1542.2216287043293,1543.2054407500164,1544.2720266153128,None,1544.2720266153128,None,None,1544.2720266153128,None,None,None,None,None,,0.7310549088542757,,,,,,,0,001,2019_Nov_05_1146,Test,3.1.2,59.98097199500592,
Pictures/IA80_40_L95p.bmp,Pictures/IA80_40_L95p.bmp,Pictures/IA80.bmp,"

"Let's stay with the certain option."",0,safe,3,0,3,0,0,4,4,0,,,,,,,,,,,,,,,,,,,,,,,,,1546.206308167346,None,1548.2245360608003,1549.7073055884202,1549.7238512085378,None,1551.2243870852171,None,y,1553.2579799906207,None,1553.2579799906207,None,1553.2579799906207,None,1554.4418510045125,None,1554.4418510045125,1555.4256226184125,1556.509052054993,None,1556.509052054993,None,right,1556.509052054993,None,None,None,1556.9260605257632,1558.4098420921027,0.38574661337133875,1.0768602042981001,,,,,,,0,001,2019_Nov_05_1146,Test,3.1.2,59.98097199500592,
Pictures/IA75_L30.bmp,Pictures/IA75_L30.bmp,Pictures/IA75.bmp,"

"Hold back, stay with the safe choice."",0,safe,3,0,3,0,0,5,5,4,,,,,,,,,,,,,,,,,,,,,,,,,1558.4264825714126,None,1560.4470505322697,1561.9274837246512,1561.9440959017102,None,1563.4444100255905,None,y,1565.4627682338032,None,1565.4627682338032,None,1565.4627682338032,None,1567.1318676499677,None,1567.1318676499677,1568.1125518304407,1569.1960776812812,None,1569.1960776812812,None,right,1569.1960776812812,None,None,None,1571.0467755339178,None,1.8183549114664856,1.5517750798371708,,,,,,,0,001,2019_Nov_05_1146,Test,3.1.2,59.98097199500592,
Pictures/IA75_G45.bmp,Pictures/IA75_G45.bmp,Pictures/IA75.bmp,"

"Don't gamble for this one."",0,safe,3,0,3,0,0,6,6,19,,,,,,,,,,,,,,,,,,,,,,,,,1571.1134808284914,None,1573.134594929481,1574.6144847808537,1574.6311579166068,None,1576.1313992632713,None,y,1578.1511178455958,None,1578.1511178455958,None,1578.1511178455958,None,1580.34927558679,None,1580.34927558679,1581.333074880913,1582.4002616247608,None,1582.4002616247608,None,None,1582.4002616247608,None,None,None,None,None,,2.103085194128653,,,,,,,0,001,2019_Nov_05_1146,Test,3.1.2,59.98097199500592,
Pictures/IA20_10_G95p.bmp,Pictures/IA20_10_G95p.bmp,Pictures/IA20.bmp,"

"Take a leap, I think you should gamble."",1,risk,3,0,3,0,0,7,7,17,,,,,,,,,,,,,,,,,,,,,,,,,1584.333958781971,None,1586.354851441176,1587.834970509677,1587.851629649811,None,1589.352041743021,None,y,1591.3857966865844,None,1591.3857966865844,None,1591.3857966865844,None,1592.2385369664717,None,1592.2385369664717,1593.2364982713862,1594.3038818869336,None,1594.3038818869336,None,None,1594.3038818869336,None,None,None,None,None,,0.7562299162873387,,,,,,,0,001,2019_Nov_05_1146,Test,3.1.2,59.98097199500592,
Pictures/IA100_G20.bmp,Pictures/IA100_G20.bmp,Pictures/IA100.bmp,"

"Go ahead and gamble!"",1,risk,3,0,3,0,0,8,8,6,,,,,,,,,,,,,,,,,,,,,,,,,1596.2373747081137,None,1598.2582835400335,1599.73838892393,1599.7550489971054,None,1601.2554813062088,None,y,1603.2726116321628,None,1603.2726116321628,None,1603.2726116321628,None,1604.7928794647578,None,1604.7928794647578,1605.7901266821182,1606.8735657601246,None,1606.8735657601246,None,None,1606.8735657601246,None,None,None,None,None,,1.4370032332990377,,,,,,,0,001,2019_Nov_05_1146,Test,3.1.2,59.98097199500592,
Pictures/IA75_L15.bmp,Pictures/IA75_L15.bmp,Pictures/IA75.bmp,"

"Trust me, gamble!"",1,risk,3,0,3,0,0,9,9,5,,,,,,,,,,,,,,,,,,,,,,,,,1608.7909813478846,None,1610.8118808493919,1612.2919825011231,1612.3086755417553,None,1613.8089846894163,None,y,1615.8294279337624,None,1615.8294279337624,None,1615.8294279337624,None,1617.2765117445015,None,1617.2765117445015,1618.2603169478862,1619.327138561599,None,1619.327138561599,None,right,1619.327138561599,None,None,None,1619.7108066701257,1621.244573432211,0.366151503502806,1.3518940114927318,,,,,,,0,001,2019_Nov_05_1146,Test,3.1.2,59.98097199500592,
Pictures/IA25_L20.bmp,Pictures/IA25_L20.bmp,Pictures/IA25.bmp,"

"Don't be tempted to gamble."",0,safe,3,0,3,0,0,10,10,1,,,,,,,,,,,,,,,,,,,,,,,,,1621.261264606761,None,1623.2819622603492,1624.7622601617522,1624.778928321285,None,1626.3293691521649,None,y,1628.2964278205527,None,1628.2964278205527,None,1628.2964278205527,None,1630.0633870889487,None,1630.0633870889487,1631.0640797165552,1632.1321055754815,None,1632.1321055754815,None,left,1632.1321055754815,None,1633.1980215171752,None,None,None,1.0329693228486576,1.6686223210826938,,,,,,,0,001,2019_Nov_05_1146,Test,3.1.2,59.98097199500592,
Pictures/IA25_L15.bmp,Pictures/IA25_L15.bmp,Pictures/IA25.bmp,"

"There's not much on the line here, gamble!"",1,risk,3,0,3,0,0,11,11,9,,,,,,,,,,,,,,,,,,,,,,,,,1634.0649449567882,None,1636.0830901205863,1637.5659374016423,1637.5829486093335,None,1639.117153589783,None,y,1641.1001790817136,None,1641.1001790817136,None,1641.1001790817136,None,1642.2170571133202,None,1642.2170571133202,1643.2009002603809,1644.2841676588014,None,1644.2841676588014,None,right,1644.2841676588014,None,None,None,1645.684934058867,None,1.3765359413700935,1.0165580606671938,,,,,,,0,001,2019_Nov_05_1146,Test,3.1.2,59.98097199500592,
Pictures/IA110_55_G95p.bmp,Pictures/IA110_55_G95p.bmp,Pictures/IA110.bmp,"

"Take a chance!"",1,risk,3,0,3,0,0,12,12,13,,,,,,,,,,,,,,,,,,,,,,,,,1646.2017664336554,None,1648.2230643437679,1649.7027772283209,1649.7194348133862,None,1651.2196951318892,None,y,1653.2387664946145,None,1653.2387664946145,None,1653.2387664946145,None,1654.341261695672,None,1654.341261695672,1655.3377273354963,1656.4045094504645,None,1656.4045094504645,None,left,1656.4045094504645,None,1657.3216137134668,1658.3219250382244,None,None,0.8958766419973472,1.0217311522555974,,,,,,,0,001,2019_Nov_05_1146,Test,3.1.2,59.98097199500592,
Pictures/IA40_20_G95p.bmp,Pictures/IA40_20_G95p.bmp,Pictures/IA40.bmp,"

"Hold back, stay with the safe choice."",0,safe,3,0,3,0,0,13,13,11,,,,,,,,,,,,,,,,,,,,,,,,,1658.3385608523276,None,1660.3593738920135,1661.8395676038135,1661.856288013655,None,1663.3566749147512,None,y,1665.3737806706204,None,1665.3737806706204,None,1665.3737806706204,None,1666.3071378898094,None,1666.3071378898094,1667.3078087464537,1668.3744241580553,None,1668.3744241580553,None,left,1668.3744241580553,None,1669.3417257281772,None,None,None,0.9496064432096318,0.8383216827587603,,,,,,,0,001,2019_Nov_05_1146,Test,3.1.2,59.98097199500592,
Pictures/IA50_L20.bmp,Pictures/IA50_L20.bmp,Pictures/IA50.bmp,"

"Certainty is boring, take a risk!"",1,risk,3,0,3,0,0,14,14,7,,,,,,,,,,,,,,,,,,,,,,,,,1670.3087134854322,None,1672.3297094011996,1673.8097311223992,1673.8264045691658,None,1675.3268110641275,None,y,1677.3438878957186,None,1677.3438878957186,None,1677.3438878957186,None,1678.5108425611115,None,1678.5108425611115,1679.4947059240658,1680.577965236128,None,1680.577965236128,None,None,1680.577965236128,None,None,None,None,None,,1.0759025929837662,,,,,,,0,001,2019_Nov_05_1146,Test,3.1.2,59.98097199500592,
Pictures/IA100_L20.bmp,Pictures/IA100_L20.bmp,Pictures/IA100.bmp,"

"Try to win as much money as you can, gamble!"",1,risk,3,0,3,0,0,15,15,12,,,,,,,,,,,,,,,,,,,,,,,,,1682.4955696092302,None,1684.5171505418484,1685.9961751529881,1686.0128358481907,None,1687.5136124495075,None,y,1689.5474411033283,None,1689.5474411033283,None,1689.5474411033283,None,1689.963973723071,None,1689.963973723071,1690.9478722305785,1692.0147392522986,None,1692.0147392522986,None,right,1692.0147392522986,None,None,None,1692.6818149020373,1693.9321837643365,0.6367219524690881,0.30409493134720833,,,,,,,0,001,2019_Nov_05_1146,Test,3.1.2,59.98097199500592,
Pictures/IA40_20_L95p.bmp,Pictures/IA40_20_L95p.bmp,Pictures/IA40.bmp,"

"Trust me, gamble!"",1,risk,3,0,3,0,0,16,16,15,,,,,,,,,,,,,,,,,,,,,,,,,1693.948740891963,None,1695.9693390211532,1697.4498527660944,1697.4665224806959,None,1698.966890720968,None,y,1700.9840328654445,None,1700.9840328654445,None,1700.9840328654445,None,1701.5696552599275,None,1701.5696552599275,1702.5680050210067,1703.6514276152839,None,1703.6514276152839,None,right,1703.6514276152839,None,None,None,1704.2851569935174,1705.5521874840606,0.6159384590882837,0.5072836308490878,,,,,,,0,001,2019_Nov_05_1146,Test,3.1.2,59.98097199500592,
Pictures/IA50_G20.bmp,Pictures/IA50_G20.bmp,Pictures/IA50.bmp,"

"Let's venture and take a risk!"",1,risk,3,0,3,0,0,17,17,2,,,,,,,,,,,,,,,,,,,,,,,,,1705.5688693281982,None,1707.589998046834,1709.069886343138,1709.0865694313306,None,1710.6242801586923,None,y,1712.6068708534094,None,1712.6068708534094,None,1712.6068708534094,None,1713.2208726299204,None,1713.2208726299204,1714.2046865416896,1715.2881847123062,None,1715.2881847123062,None,right,1715.2881847123062,None,None,None,1716.4220067726355,None,1.11474478834225,0.5241495951222532,,,,,,,0,001,2019_Nov_05_1146,Test,3.1.2,59.98097199500592,
Pictures/IA75_G15.bmp,Pictures/IA75_G15.bmp,Pictures/IA75.bmp,"

"Take a chance!"",1,risk,3,0,3,0,0,18,18,18,,,,,,,,,,,,,,,,,,,,,,,,,1717.205558624225,None,1719.2260345250143,1720.7065479589419,1720.7232164294883,None,1722.2236493606188,None,y,1724.2574242090614,None,1724.2574242090614,None,1724.2574242090614,None,1726.3413410041767,None,1726.3413410041767,1727.3251384322175,1728.408557605344,None,1728.408557605344,None,left,1728.408557605344,None,1730.0925971886854,None,None,None,1.6580114652106204,1.9852461300561117,,,,,,,0,001,2019_Nov_05_1146,Test,3.1.2,59.98097199500592,
Pictures/IA100_G80.bmp,Pictures/IA100_G80.bmp,Pictures/IA100.bmp,"

"Why not gamble?"",1,risk,3,0,3,0,0,19,19,8,,,,,,,,,,,,,,,,,,,,,,,,,1730.3259906098738,None,1732.345178291739,1733.826997050346,1733.8436711191398,None,1735.4107766884008,None,y,1737.3612275339228,None,1737.3612275339228,None,1737.3612275339228,None,1737.5957437147235,None,1737.5957437147235,1738.5950249619636,1739.6783131983038,None,1739.6783131983038,None,left,1739.6783131983038,None,1740.2621656135743,1741.5792267078705,None,None,0.5559952253170195,0.15312668336173374,,,,,,,0,001,2019_Nov_05_1146,Test,3.1.2,59.98097199500592,
,,,,,,3,0,3,0,,,,,,,,,,,,,,,,,,,,,,,,,,,,,,,,,,,,,,,,,,,,,,,,,,,,,,,,,,,,,1741.69836176621,None,return,30.42323465489335,1741.69836176621,None,0,001,2019_Nov_05_1146,Test,3.1.2,59.98097199500592,
Pictures/IA50_L30.bmp,Pictures/IA50_L30.bmp,Pictures/IA50.bmp,"

"Take a leap, I think you should gamble."",1,risk,4,0,4,0,0,0,0,10,,,,,,,1772.2209961023764,None,1772.2209961023764,None,1772.2209961023764,None,left,1.1884905010183502,1772.2209961023764,None,1772.2209961023764,None,1772.2209961023764,None,return,2.524586569431449,1772.2209961023764,None,1774.8053648004607,None,1776.8063855475648,1778.2898340181864,1778.30643997497,None,1779.8402605424335,None,y,1781.8240579704743,None,1781.8240579704743,None,1781.8240579704743,None,1784.1750917179534,None,1784.1750917179534,1785.1751103787783,1786.241784260963,None,1786.241784260963,None,None,1786.241784260963,None,None,None,None,None,,2.257312244113564,,,,,,,0,001,2019_Nov_05_1146,Test,3.1.2,59.98097199500592,
Pictures/IA110_55_L95p.bmp,Pictures/IA110_55_L95p.bmp,Pictures/IA110.bmp,"

"Trust me, gamble!"",1,risk,4,0,4,0,0,1,1,12,,,,,,,,,,,,,,,,,,,,,,,,,1788.175988059561,None,1790.1974088201014,1791.6770066295694,1791.6936729230192,None,1793.1940937246136,None,y,1795.2112371131461,None,1795.2112371131461,None,1795.2112371131461,None,1796.4281757302297,None,1796.4281757302297,1797.4119501432533,1798.4787191956439,None,1798.4787191956439,None,right,1798.4787191956439,None,None,None,1799.0958168029538,1800.396185478644,0.586151428859921,1.1337004539554982,,,,,,,0,001,2019_Nov_05_1146,Test,3.1.2,59.98097199500592,
Pictures/IA25_L10.bmp,Pictures/IA25_L10.bmp,Pictures/IA25.bmp,"

"Dont be afraid to take the risk!"",1,risk,4,0,4,0,0,2,2,18,,,,,,,,,,,,,,,,,,,,,,,,,1800.4128635906172,None,1802.4339220201464,1803.9138554134433,1803.9305332144022,None,1805.4309611693125,None,y,1807.4480886961437,None,1807.4480886961437,None,1807.4480886961437,None,1808.4147461568036,None,1808.4147461568036,1809.398794572935,1810.4677696458057,None,1810.4677696458057,None,right,1810.4677696458057,None,None,None,1811.1658322167941,1812.382970504701,0.6768601420963023,0.8645948797184246,,,,,,,0,001,2019_Nov_05_1146,Test,3.1.2,59.98097199500592,
Pictures/IA100_L20.bmp,Pictures/IA100_L20.bmp,Pictures/IA100.bmp,"

"Try to win as much money as you can, gamble!"",1,risk,4,0,4,0,0,3,3,13,,,,,,,,,,,,,,,,,,,,,,,,,1812.3996389752474,None,1814.4202290180801,1815.900643238624,1815.9173005126759,None,1817.4175959757313,None,y,1819.435878296591,None,1819.435878296591,None,1819.435878296591,None,1820.0183286619076,None,1820.0183286619076,1821.0021313771822,1822.0886858798522,None,1822.0886858798522,None,right,1822.0886858798522,None,None,None,1823.2026795700049,None,1.0956594299987046,0.46847409193378553,,,,,,,0,001,2019_Nov_05_1146,Test,3.1.2,59.98097199500592,
Pictures/IA50_G40.bmp,Pictures/IA50_G40.bmp,Pictures/IA50.bmp,"

"It would probably be best to play it safe."",0,safe,4,0,4,0,0,4,4,16,,,,,,,,,,,,,,,,,,,,,,,,,1824.0029798226733,None,1826.0236221158148,1827.5039697794173,1827.5205527211838,None,1829.0043349095513,None,y,1831.0548566040043,None,1831.0548566040043,None,1831.0548566040043,None,1831.9384031061572,None,1831.9384031061572,1832.905546681297,1833.9721536955276,None,1833.9721536955276,None,left,1833.9721536955276,None,1835.5896590418542,None,None,None,1.5958836709069146,0.7372192012417145,,,,,,,0,001,2019_Nov_05_1146,Test,3.1.2,59.98097199500592,
Pictures/IA20_10_G95p.bmp,Pictures/IA20_10_G95p.bmp,Pictures/IA20.bmp,"

"Take a leap, I think you should gamble."",1,risk,4,0,4,0,0,5,5,5,,,,,,,,,,,,,,,,,,,,,,,,,1835.9063966818567,None,1837.927055769741,1839.4074084095637,1839.4240784351787,None,1840.9244933275113,None,y,1842.9416569319374,None,1842.9416569319374,None,1842.9416569319374,None,1844.2918804886158,None,1844.2918804886158,1845.2757733978751,1846.3592843200558,None,1846.3592843200558,None,None,1846.3592843200558,None,None,None,None,None,,1.2501735456680763,,,,,,,0,001,2019_Nov_05_1146,Test,3.1.2,59.98097199500592,
Pictures/IA25_G10.bmp,Pictures/IA25_G10.bmp,Pictures/IA25.bmp,"

"What's life without a little risk?"",1,risk,4,0,4,0,0,6,6,8,,,,,,,,,,,,,,,,,,,,,,,,,1848.2766227764077,None,1850.2988039655502,1851.7776397913476,1851.7943318989383,None,1853.294518507184,None,y,1855.3285434106765,None,1855.3285434106765,None,1855.3285434106765,None,1856.495470084833,None,1856.495470084833,1857.4793048345227,1858.5460499388555,None,1858.5460499388555,None,left,1858.5460499388555,None,1859.9633414321315,None,None,None,1.3893733446293481,1.0630067191405033,,,,,,,0,001,2019_Nov_05_1146,Test,3.1.2,59.98097199500592,
Pictures/IA80_40_G95p.bmp,Pictures/IA80_40_G95p.bmp,Pictures/IA80.bmp,"

"Think of the payoff, gamble!"",1,risk,4,0,4,0,0,7,7,4,,,,,,,,,,,,,,,,,,,,,,,,,1860.4801573231925,None,1862.5008894993052,1863.9810928525312,1863.9978238368403,None,1865.4982377961323,None,y,1867.5320275732347,None,1867.5320275732347,None,1867.5320275732347,None,1867.7986683635581,None,1867.7986683635581,1868.782543545035,1869.849168909076,None,1869.849168909076,None,left,1869.849168909076,None,1870.5663852614325,1871.7667443579003,None,None,0.6859604042183491,0.17123825767612288,,,,,,,0,001,2019_Nov_05_1146,Test,3.1.2,59.98097199500592,
Pictures/IA110_55_G95p.bmp,Pictures/IA110_55_G95p.bmp,Pictures/IA110.bmp,"

"Take a chance!"",1,risk,4,0,4,0,0,8,8,6,,,,,,,,,,,,,,,,,,,,,,,,,1871.783401631952,None,1873.804206274267,1875.2843996750535,1875.301107955359,None,1876.8014699753558,None,y,1878.8186093207087,None,1878.8186093207087,None,1878.8186093207087,None,1880.1520689256222,None,1880.1520689256222,1881.136115786685,1882.2078352448243,None,1882.2078352448243,None,left,1882.2078352448243,None,1882.95330564067,1884.1202780338463,None,None,0.7270580712420269,1.2362737194634974,,,,,,,0,001,2019_Nov_05_1146,Test,3.1.2,59.98097199500592,
Pictures/IA25_G15.bmp,Pictures/IA25_G15.bmp,Pictures/IA25.bmp,"

"I think you should take a gamble."",1,risk,4,0,4,0,0,9,9,11,,,,,,,,,,,,,,,,,,,,,,,,,1884.1369583229152,None,1886.1540056082004,1887.6379762708957,1887.6546033766144,None,1889.154923098742,None,y,1891.1721563702458,None,1891.1721563702458,None,1891.1721563702458,None,1892.7890726565429,None,1892.7890726565429,1893.7730115958366,1894.839647534346,None,1894.839647534346,None,None,1894.839647534346,None,None,None,None,None,,1.5304992517003484,,,,,,,0,001,2019_Nov_05_1146,Test,3.1.2,59.98097199500592,
Pictures/IA50_L20.bmp,Pictures/IA50_L20.bmp,Pictures/IA50.bmp,"

"Certainty is boring, take a risk!"",1,risk,4,0,4,0,0,10,10,14,,,,,,,,,,,,,,,,,,,,,,,,,1896.7739570776157,None,1898.7949822286755,1900.2749666282261,1900.2916198590992,None,1901.7920531012433,None,y,1903.8091859153074,None,1903.8091859153074,None,1903.8091859153074,None,1904.2925653408774,None,1904.2925653408774,1905.2763637019598,1906.3598015359103,None,1906.3598015359103,None,left,1906.3598015359103,None,1907.1936079211473,1908.2605781994298,None,None,0.8064154048834098,0.3892318333764706,,,,,,,0,001,2019_Nov_05_1146,Test,3.1.2,59.98097199500592,
Pictures/IA25_G20.bmp,Pictures/IA25_G20.bmp,Pictures/IA25.bmp,"

"I wouldn't gamble for this one. "",0,safe,4,0,4,0,0,11,11,0,,,,,,,,,,,,,,,,,,,,,,,,,1908.277252579237,None,1910.2983349568258,1911.7782764364792,1911.7949278012702,None,1913.2952014933644,None,y,1915.3129874362894,None,1915.3129874362894,None,1915.3129874362894,None,1916.0496716938933,None,1916.0496716938933,1917.0464492805013,1918.1297605318587,None,1918.1297605318587,None,left,1918.1297605318587,None,1919.5305076490722,None,None,None,1.3721696194306787,0.6530486189121802,,,,,,,0,001,2019_Nov_05_1146,Test,3.1.2,59.98097199500592,
Pictures/IA100_L80.bmp,Pictures/IA100_L80.bmp,Pictures/IA100.bmp,"

"Go all in!"",1,risk,4,0,4,0,0,12,12,17,,,,,,,,,,,,,,,,,,,,,,,,,1920.0473232291197,None,1922.068769803801,1923.5483162960008,1923.5649567753107,None,1925.0654037020595,None,y,1927.0825520668113,None,1927.0825520668113,None,1927.0825520668113,None,1927.916716117852,None,1927.916716117852,1928.9165459933347,1929.9854271400545,None,1929.9854271400545,None,None,1929.9854271400545,None,None,None,None,None,,0.7552477348872344,,,,,,,0,001,2019_Nov_05_1146,Test,3.1.2,59.98097199500592,
Pictures/IA25_L5.bmp,Pictures/IA25_L5.bmp,Pictures/IA25.bmp,"

"It would be smarter to choose the safe option."",0,safe,4,0,4,0,0,13,13,1,,,,,,,,,,,,,,,,,,,,,,,,,1931.9173941278123,None,1933.9377586856808,1935.4183875057079,1935.4350643736252,None,1936.935307586372,None,y,1938.9530817107752,None,1938.9530817107752,None,1938.9530817107752,None,1939.5360017068442,None,1939.5360017068442,1940.519865380812,1941.6031075871188,None,1941.6031075871188,None,right,1941.6031075871188,None,None,None,1942.237033215024,1943.504071480911,0.6022656729155642,0.46836803624682943,,,,,,,0,001,2019_Nov_05_1146,Test,3.1.2,59.98097199500592,
Pictures/IA40_20_L95p.bmp,Pictures/IA40_20_L95p.bmp,Pictures/IA40.bmp,"

"Trust me, gamble!"",1,risk,4,0,4,0,0,14,14,9,,,,,,,,,,,,,,,,,,,,,,,,,1943.5207315540865,None,1945.5416211031534,1947.0217159125832,1947.0384055320637,None,1948.538813582095,None,y,1950.5599926849573,None,1950.5599926849573,None,1950.5599926849573,None,1951.1392053972086,None,1951.1392053972086,1952.1232118264843,1953.1900458807477,None,1953.1900458807477,None,right,1953.1900458807477,None,None,None,1953.8903415304121,1955.1074126393505,0.6791205899808119,0.49325473394037544,,,,,,,0,001,2019_Nov_05_1146,Test,3.1.2,59.98097199500592,
Pictures/IA25_L15.bmp,Pictures/IA25_L15.bmp,Pictures/IA25.bmp,"

"There's not much on the line here, gamble!"",1,risk,4,0,4,0,0,15,15,2,,,,,,,,,,,,,,,,,,,,,,,,,1955.1240683583328,None,1957.1447022541033,1958.6250576930497,1958.6417768588362,None,1960.1421594057401,None,y,1962.1757408036347,None,1962.1757408036347,None,1962.1757408036347,None,1963.926423789815,None,1963.926423789815,1964.9102349024606,1965.993496702633,None,1965.993496702633,None,None,1965.993496702633,None,None,None,None,None,,1.6451777941156251,,,,,,,0,001,2019_Nov_05_1146,Test,3.1.2,59.98097199500592,
Pictures/IA75_G15.bmp,Pictures/IA75_G15.bmp,Pictures/IA75.bmp,"

"Take a chance!"",1,risk,4,0,4,0,0,16,16,19,,,,,,,,,,,,,,,,,,,,,,,,,1967.9110796157865,None,1969.9324453268946,1971.4120785919295,1971.428712228936,None,1972.9291395618193,None,y,1974.9499348737227,None,1974.9499348737227,None,1974.9499348737227,None,1975.396400700155,None,1975.396400700155,1976.396868775838,1977.4803168732424,None,1977.4803168732424,None,left,1977.4803168732424,None,1979.3810602582907,None,None,None,1.8761941372667934,0.37469411798338115,,,,,,,0,001,2019_Nov_05_1146,Test,3.1.2,59.98097199500592,
Pictures/IA50_G10.bmp,Pictures/IA50_G10.bmp,Pictures/IA50.bmp,"

"Go with the safe option here!"",0,safe,4,0,4,0,0,17,17,7,,,,,,,,,,,,,,,,,,,,,,,,,1979.3977290398516,None,1981.418438822975,1982.898765026629,1982.9154263438595,None,1984.4158440353167,None,y,1986.449631946337,None,1986.449631946337,None,1986.449631946337,None,1987.099782850205,None,1987.099782850205,1988.1002443946,1989.1835083718688,None,1989.1835083718688,None,None,1989.1835083718688,None,None,None,None,None,,0.5627174763594667,,,,,,,0,001,2019_Nov_05_1146,Test,3.1.2,59.98097199500592,
Pictures/IA75_L15.bmp,Pictures/IA75_L15.bmp,Pictures/IA75.bmp,"

"Trust me, gamble!"",1,risk,4,0,4,0,0,18,18,15,,,,,,,,,,,,,,,,,,,,,,,,,1991.101109634833,None,1993.1220996413394,1994.602122606594,1994.6188007185665,None,1996.1191048900073,None,y,1998.1362915094496,None,1998.1362915094496,None,1998.1362915094496,None,1998.8862967966834,None,1998.8862967966834,1999.870274923709,2000.941735618414,None,2000.941735618414,None,right,2000.941735618414,None,None,None,2002.0709422347963,None,1.1022012930707206,0.6597298161414074,,,,,,,0,001,2019_Nov_05_1146,Test,3.1.2,59.98097199500592,
Pictures/IA100_L60.bmp,Pictures/IA100_L60.bmp,Pictures/IA100.bmp,"

"You'd have a lot to lose, don't gamble."",0,safe,4,0,4,0,0,19,19,3,,,,,,,,,,,,,,,,,,,,,,,,,2002.8711837058663,None,2004.8895313396115,2006.372177083761,2006.388850219514,None,2007.8723957264228,None,y,2009.9073726429824,None,2009.9073726429824,None,2009.9073726429824,None,2010.689694746232,None,2010.689694746232,2011.6236693277006,2012.7071124488857,None,2012.7071124488857,None,right,2012.7071124488857,None,None,None,2013.3907747725561,2014.6078561449476,0.6565363270274247,0.6323798896028165,,,,,,,0,001,2019_Nov_05_1146,Test,3.1.2,59.98097199500592,
,,,,,,4,0,4,0,,,,,,,,,,,,,,,,,,,,,,,,,,,,,,,,,,,,,,,,,,,,,,,,,,,,,,,,,,,,,2014.7408838761776,None,return,10.894553589534553,2014.7408838761776,None,0,001,2019_Nov_05_1146,Test,3.1.2,59.98097199500592,
Pictures/IA75_L60.bmp,Pictures/IA75_L60.bmp,Pictures/IA75.bmp,"

"Why not take the gamble?"",1,risk,5,0,5,0,0,0,0,3,,,,,,,2025.743987171306,None,2025.743987171306,None,2025.743987171306,None,left,1.6993632304620405,2025.743987171306,None,2025.743987171306,None,2025.743987171306,None,return,3.0113243213991154,2025.743987171306,None,2028.811815225492,None,2030.8126272823747,2032.2963115014127,2032.3129790389185,None,2033.8134150801861,None,y,2035.8305323435634,None,2035.8305323435634,None,2035.8305323435634,None,2037.147467788307,None,2037.147467788307,2038.1479989997806,2039.220082343999,None,2039.220082343999,None,right,2039.220082343999,None,None,None,2040.3152923591388,None,1.071047668454412,1.2285851487204127,,,,,,,0,001,2019_Nov_05_1146,Test,3.1.2,59.98097199500592,
Pictures/IA100_G20.bmp,Pictures/IA100_G20.bmp,Pictures/IA100.bmp,"

"Go ahead and gamble!"",1,risk,5,0,5,0,0,1,1,9,,,,,,,,,,,,,,,,,,,,,,,,,2041.1488521104775,None,2043.168281450021,2044.6498184301772,2044.6665198681803,None,2046.1667593487628,None,y,2048.1841220019833,None,2048.1841220019833,None,2048.1841220019833,None,2048.667446378121,None,2048.667446378121,2049.651316272364,2050.7182237258703,None,2050.7182237258703,None,left,2050.7182237258703,None,2051.1684130088342,2052.635493448185,None,None,0.4285361951569939,0.3866295813877514,,,,,,,0,001,2019_Nov_05_1146,Test,3.1.2,59.98097199500592,
Pictures/IA50_L30.bmp,Pictures/IA50_L30.bmp,Pictures/IA50.bmp,"

"Take a leap, I think you should gamble."",1,risk,5,0,5,0,0,2,2,16,,,,,,,,,,,,,,,,,,,,,,,,,2052.652122419986,None,2054.6730231655483,2056.153179866712,2056.169825322242,None,2057.670249544987,None,y,2059.704076954753,None,2059.704076954753,None,2059.704076954753,None,2061.0708520408107,None,2061.0708520408107,2062.0715465344983,2063.1381317777677,None,2063.1381317777677,None,right,2063.1381317777677,None,None,None,2064.5722690194243,None,1.4082702286450512,1.274430440532342,,,,,,,0,001,2019_Nov_05_1146,Test,3.1.2,59.98097199500592,
Pictures/IA25_L15.bmp,Pictures/IA25_L15.bmp,Pictures/IA25.bmp,"

"There's not much on the line here, gamble!"",1,risk,5,0,5,0,0,3,3,18,,,,,,,,,,,,,,,,,,,,,,,,,2065.072426081364,None,2067.0933703688506,2068.573433454878,2068.590107834685,None,2070.0905233490466,None,y,2072.124276426527,None,2072.124276426527,None,2072.124276426527,None,2073.7253627353293,None,2073.7253627353293,2074.7251863905367,2075.7919874773434,None,2075.7919874773434,None,right,2075.7919874773434,None,None,None,2076.5423942833195,2077.709400576993,0.722140321936422,1.5019615636774688,,,,,,,0,001,2019_Nov_05_1146,Test,3.1.2,59.98097199500592,
Pictures/IA100_G80.bmp,Pictures/IA100_G80.bmp,Pictures/IA100.bmp,"

"Why not gamble?"",1,risk,5,0,5,0,0,4,4,13,,,,,,,,,,,,,,,,,,,,,,,,,2077.726065626388,None,2079.74683667922,2081.227035678253,2081.2437417814626,None,2082.744141434122,None,y,2084.7612596305407,None,2084.7612596305407,None,2084.7612596305407,None,2085.6946171607433,None,2085.6946171607433,2086.6953048121295,2087.7620838169605,None,2087.7620838169605,None,right,2087.7620838169605,None,None,None,2088.5291721560598,2089.679497849652,0.7357888490378173,0.8567187676890171,,,,,,,0,001,2019_Nov_05_1146,Test,3.1.2,59.98097199500592,
Pictures/IA75_G15.bmp,Pictures/IA75_G15.bmp,Pictures/IA75.bmp,"

"Take a chance!"",1,risk,5,0,5,0,0,5,5,14,,,,,,,,,,,,,,,,,,,,,,,,,2089.696190890283,None,2091.7172213285767,2093.1971870673024,2093.213852116698,None,2094.7142797605948,None,y,2096.7313329551407,None,2096.7313329551407,None,2096.7313329551407,None,2097.581561799053,None,2097.581561799053,2098.5654043240866,2099.6488406029694,None,2099.6488406029694,None,None,2099.6488406029694,None,None,None,None,None,,0.7583721789496849,,,,,,,0,001,2019_Nov_05_1146,Test,3.1.2,59.98097199500592,
Pictures/IA75_L15.bmp,Pictures/IA75_L15.bmp,Pictures/IA75.bmp,"

"Trust me, gamble!"",1,risk,5,0,5,0,0,6,6,6,,,,,,,,,,,,,,,,,,,,,,,,,2101.5662362858493,None,2103.586048483311,2105.067285646219,2105.083925192487,None,2106.584222832639,None,y,2108.6014654345554,None,2108.6014654345554,None,2108.6014654345554,None,2109.054131008941,None,2109.054131008941,2110.0520217137355,2111.1356243849705,None,2111.1356243849705,None,right,2111.1356243849705,None,None,None,2112.0192613921226,2113.0362278138355,0.8577000160485113,0.3758793913584668,,,,,,,0,001,2019_Nov_05_1146,Test,3.1.2,59.98097199500592,
Pictures/IA25_G20.bmp,Pictures/IA25_G20.bmp,Pictures/IA25.bmp,"

"I wouldn't gamble for this one. "",0,safe,5,0,5,0,0,7,7,15,,,,,,,,,,,,,,,,,,,,,,,,,2113.05290530378,None,2115.0732555550167,2116.5539083231015,2116.5705820808816,None,2118.070835868096,None,y,2120.0885987960037,None,2120.0885987960037,None,2120.0885987960037,None,2120.7049960003633,None,2120.7049960003633,2121.6887334027524,2122.772203271119,None,2122.772203271119,None,right,2122.772203271119,None,None,None,2123.439227292576,2124.672927062302,0.6447961802541613,0.5045333363195823,,,,,,,0,001,2019_Nov_05_1146,Test,3.1.2,59.98097199500592,
Pictures/IA100_L40.bmp,Pictures/IA100_L40.bmp,Pictures/IA100.bmp,"

"Think of the payoff, gamble!"",1,risk,5,0,5,0,0,8,8,11,,,,,,,,,,,,,,,,,,,,,,,,,2124.6895837143256,None,2126.710495345369,2128.1905749151247,2128.2072847504987,None,2129.707519876889,None,y,2131.7270705117926,None,2131.7270705117926,None,2131.7270705117926,None,2132.191531904412,None,2132.191531904412,2133.175370386267,2134.258796712709,None,2134.258796712709,None,right,2134.258796712709,None,None,None,2135.20929980854,None,0.9341484381511691,0.35378062085783313,,,,,,,0,001,2019_Nov_05_1146,Test,3.1.2,59.98097199500592,
Pictures/IA50_G40.bmp,Pictures/IA50_G40.bmp,Pictures/IA50.bmp,"

"It would probably be best to play it safe."",0,safe,5,0,5,0,0,9,9,1,,,,,,,,,,,,,,,,,,,,,,,,,2136.1762256740603,None,2138.197832109806,2139.6772457991374,2139.693894053791,None,2141.19431858755,None,y,2143.2279170912007,None,2143.2279170912007,None,2143.2279170912007,None,2144.7116625799463,None,2144.7116625799463,2145.695636974807,2146.7663101827147,None,2146.7663101827147,None,right,2146.7663101827147,None,None,None,2147.512835537177,2148.679836543618,0.7300556216978293,1.3566326168820524,,,,,,,0,001,2019_Nov_05_1146,Test,3.1.2,59.98097199500592,
Pictures/IA75_G30.bmp,Pictures/IA75_G30.bmp,Pictures/IA75.bmp,"

"Be bold, gamble!"",1,risk,5,0,5,0,0,10,10,17,,,,,,,,,,,,,,,,,,,,,,,,,2148.696507813288,None,2150.7162403912307,2152.1975102105816,2152.2141842793753,None,2153.7144701010056,None,y,2155.731671649107,None,2155.731671649107,None,2155.731671649107,None,2156.4485266034944,None,2156.4485266034944,2157.43235108973,2158.4999570801037,None,2158.4999570801037,None,right,2158.4999570801037,None,None,None,2159.566304708873,None,1.0441499558983196,0.6285043473499172,,,,,,,0,001,2019_Nov_05_1146,Test,3.1.2,59.98097199500592,
Pictures/IA25_L5.bmp,Pictures/IA25_L5.bmp,Pictures/IA25.bmp,"

"It would be smarter to choose the safe option."",0,safe,5,0,5,0,0,11,11,19,,,,,,,,,,,,,,,,,,,,,,,,,2160.4332225502385,None,2162.4544327544754,2163.934227746656,2163.9509030595045,None,2165.4512912046566,None,y,2167.468441124477,None,2167.468441124477,None,2167.468441124477,None,2168.785407359581,None,2168.785407359581,2169.7692383771055,2170.8358522336393,None,2170.8358522336393,None,None,2170.8358522336393,None,None,None,None,None,,1.2034225818370032,,,,,,,0,001,2019_Nov_05_1146,Test,3.1.2,59.98097199500592,
Pictures/IA80_40_G95p.bmp,Pictures/IA80_40_G95p.bmp,Pictures/IA80.bmp,"

"Think of the payoff, gamble!"",1,risk,5,0,5,0,0,12,12,7,,,,,,,,,,,,,,,,,,,,,,,,,2172.770098641119,None,2174.7908102903257,2176.271098239289,2176.287770130987,None,2177.788186267375,None,y,2179.809196489775,None,2179.809196489775,None,2179.809196489775,None,2180.9388991730775,None,2180.9388991730775,2181.922748229399,2183.0061577610995,None,2183.0061577610995,None,None,2183.0061577610995,None,None,None,None,None,,1.0303770232994793,,,,,,,0,001,2019_Nov_05_1146,Test,3.1.2,59.98097199500592,
Pictures/IA100_L20.bmp,Pictures/IA100_L20.bmp,Pictures/IA100.bmp,"

"Try to win as much money as you can, gamble!"",1,risk,5,0,5,0,0,13,13,4,,,,,,,,,,,,,,,,,,,,,,,,,2184.9236028951655,None,2186.9441574824314,2188.4246171109817,2188.4412886916652,None,2189.9416948756134,None,y,2191.9754501301904,None,2191.9754501301904,None,2191.9754501301904,None,2192.3088593508774,None,2192.3088593508774,2193.2926682864263,2194.378552554481,None,2194.378552554481,None,right,2194.378552554481,None,None,None,2195.2098991320236,2196.276876563622,0.8046793261701168,0.2246697967093496,,,,,,,0,001,2019_Nov_05_1146,Test,3.1.2,59.98097199500592,
Pictures/IA50_L20.bmp,Pictures/IA50_L20.bmp,Pictures/IA50.bmp,"

"Certainty is boring, take a risk!"",1,risk,5,0,5,0,0,14,14,0,,,,,,,,,,,,,,,,,,,,,,,,,2196.2935577857315,None,2198.314714184591,2199.7945617380947,2199.8112286535725,None,2201.311646656043,None,y,2203.3453810726996,None,2203.3453810726996,None,2203.3453810726996,None,2203.8622066051857,None,2203.8622066051857,2204.845983817333,2205.929416053037,None,2205.929416053037,None,right,2205.929416053037,None,None,None,2207.1466442239152,None,1.197564326972497,0.42968507992372906,,,,,,,0,001,2019_Nov_05_1146,Test,3.1.2,59.98097199500592,
Pictures/IA20_10_L95p.bmp,Pictures/IA20_10_L95p.bmp,Pictures/IA20.bmp,"

"Don't be tempted to gamble."",0,safe,5,0,5,0,0,15,15,5,,,,,,,,,,,,,,,,,,,,,,,,,2207.8468829580643,None,2209.868288789946,2211.347890331578,2211.364545739548,None,2212.864801392844,None,y,2214.8987448107364,None,2214.8987448107364,None,2214.8987448107364,None,2216.2822468379236,None,2216.2822468379236,2217.282940709584,2218.3497066518376,None,2218.3497066518376,None,right,2218.3497066518376,None,None,None,2218.9833598317045,2220.2671284598728,0.608996632342496,1.3000110098864752,,,,,,,0,001,2019_Nov_05_1146,Test,3.1.2,59.98097199500592,
Pictures/IA75_L30.bmp,Pictures/IA75_L30.bmp,Pictures/IA75.bmp,"

"Hold back, stay with the safe choice."",0,safe,5,0,5,0,0,16,16,8,,,,,,,,,,,,,,,,,,,,,,,,,2220.2837813797323,None,2222.3053766189823,2223.784799327713,2223.8013813364387,None,2225.3018867337714,None,y,2227.31902483507,None,2227.31902483507,None,2227.31902483507,None,2228.5860064964554,None,2228.5860064964554,2229.5697690909574,2230.6532112791,None,2230.6532112791,None,right,2230.6532112791,None,None,None,2231.3369333174096,2232.55397550207,0.6651769108366352,1.16742771729605,,,,,,,0,001,2019_Nov_05_1146,Test,3.1.2,59.98097199500592,
Pictures/IA50_L40.bmp,Pictures/IA50_L40.bmp,Pictures/IA50.bmp,"

"That gamble doesn't sound too good, play it safe."",0,safe,5,0,5,0,0,17,17,12,,,,,,,,,,,,,,,,,,,,,,,,,2232.570672585881,None,2234.591043053011,2236.0716672078306,2236.0883372334465,None,2237.5885816902482,None,y,2239.6058525944145,None,2239.6058525944145,None,2239.6058525944145,None,2240.655918964748,None,2240.655918964748,2241.6399602275633,2242.707365614072,None,2242.707365614072,None,right,2242.707365614072,None,None,None,2243.407094596697,2244.624117187491,0.6827277273732761,0.9443120562618788,,,,,,,0,001,2019_Nov_05_1146,Test,3.1.2,59.98097199500592,
Pictures/IA40_20_L95p.bmp,Pictures/IA40_20_L95p.bmp,Pictures/IA40.bmp,"

"Trust me, gamble!"",1,risk,5,0,5,0,0,18,18,2,,,,,,,,,,,,,,,,,,,,,,,,,2244.64081085015,None,2246.6621821595054,2248.1418113813615,2248.158473942647,None,2249.65889878742,None,y,2251.6760281803336,None,2251.6760281803336,None,2251.6760281803336,None,2252.7798930859162,None,2252.7798930859162,2253.7767630436056,2254.8602139401337,None,2254.8602139401337,None,right,2254.8602139401337,None,None,None,2255.3939088580455,2256.760953593018,0.5055441309841626,1.0258719892317458,,,,,,,0,001,2019_Nov_05_1146,Test,3.1.2,59.98097199500592,
Pictures/IA50_G20.bmp,Pictures/IA50_G20.bmp,Pictures/IA50.bmp,"

"Let's venture and take a risk!"",1,risk,5,0,5,0,0,19,19,10,,,,,,,,,,,,,,,,,,,,,,,,,2256.7776090009866,None,2258.7988982027146,2260.27864623182,2260.29531501338,None,2261.795570666677,None,y,2263.814124813548,None,2263.814124813548,None,2263.814124813548,None,2264.4296779266087,None,2264.4296779266087,2265.413458870921,2266.4969147436695,None,2266.4969147436695,None,left,2266.4969147436695,None,2268.397649731347,None,None,None,1.884501003330115,0.511452770075266,,,,,,,0,001,2019_Nov_05_1146,Test,3.1.2,59.98097199500592,
,,,,,,5,0,5,0,,,,,,,,,,,,,,,,,,,,,,,,,,,,,,,,,,,,,,,,,,,,,,,,,,,,,,,,,,,,,2268.5139834889032,None,return,67.2979502328244,2268.5139834889032,None,0,001,2019_Nov_05_1146,Test,3.1.2,59.98097199500592,
Pictures/IA25_G15.bmp,Pictures/IA25_G15.bmp,Pictures/IA25.bmp,"

"I think you should take a gamble."",1,risk,6,0,6,0,0,0,0,7,,,,,,,2335.9334135126765,None,2335.9334135126765,None,2335.9334135126765,None,left,7.934220593338978,2335.9334135126765,None,2335.9334135126765,None,2335.9334135126765,None,return,9.126216219242451,2335.9334135126765,None,2345.1196616046072,None,2347.1215989092134,2348.6040810601344,2348.6207059887565,None,2350.12099958573,None,y,2352.1383143428347,None,2352.1383143428347,None,2352.1383143428347,None,2352.771727731106,None,2352.771727731106,2353.7555817636476,2354.8230350462727,None,2354.8230350462727,None,right,2354.8230350462727,None,None,None,2355.8395091332304,None,0.996324439584896,0.5291199057510312,,,,,,,0,001,2019_Nov_05_1146,Test,3.1.2,59.98097199500592,
Pictures/IA50_G20.bmp,Pictures/IA50_G20.bmp,Pictures/IA50.bmp,"

"Let's venture and take a risk!"",1,risk,6,0,6,0,0,1,1,16,,,,,,,,,,,,,,,,,,,,,,,,,2356.756422433795,None,2358.7775113426715,2360.2574599756417,2360.2741119624598,None,2361.7744770925938,None,y,2363.8083237852115,None,2363.8083237852115,None,2363.8083237852115,None,2364.991738541943,None,2364.991738541943,2365.9923792302543,2367.0592534052903,None,2367.0592534052903,None,left,2367.0592534052903,None,2368.893222761728,None,None,None,1.8077452996494685,1.0908206781841727,,,,,,,0,001,2019_Nov_05_1146,Test,3.1.2,59.98097199500592,
Pictures/IA80_40_G95p.bmp,Pictures/IA80_40_G95p.bmp,Pictures/IA80.bmp,"

"Think of the payoff, gamble!"",1,risk,6,0,6,0,0,2,2,14,,,,,,,,,,,,,,,,,,,,,,,,,2368.976477719598,None,2370.9975544989384,2372.4776368678185,2372.494294452884,None,2373.9945706330873,None,y,2376.0122794446042,None,2376.0122794446042,None,2376.0122794446042,None,2376.4638073307187,None,2376.4638073307187,2377.4623748014183,2378.545656195456,None,2378.545656195456,None,left,2378.545656195456,None,2379.563002364949,None,None,None,1.0011628803858912,0.3585923144773915,,,,,,,0,001,2019_Nov_05_1146,Test,3.1.2,59.98097199500592,
Pictures/IA100_L40.bmp,Pictures/IA100_L40.bmp,Pictures/IA100.bmp,"

"Think of the payoff, gamble!"",1,risk,6,0,6,0,0,3,3,0,,,,,,,,,,,,,,,,,,,,,,,,,2380.4632615016,None,2382.48476032659,2383.964271363224,2383.98082102652,None,2385.4811827355034,None,y,2387.5002740031077,None,2387.5002740031077,None,2387.5002740031077,None,2388.365144129989,None,2388.365144129989,2389.332457829647,2390.3991233144616,None,2390.3991233144616,None,right,2390.3991233144616,None,None,None,2390.6995050527294,2392.3166782363787,0.27540484658948117,0.7982883047634459,,,,,,,0,001,2019_Nov_05_1146,Test,3.1.2,59.98097199500592,
Pictures/IA75_L30.bmp,Pictures/IA75_L30.bmp,Pictures/IA75.bmp,"

"Hold back, stay with the safe choice."",0,safe,6,0,6,0,0,4,4,3,,,,,,,,,,,,,,,,,,,,,,,,,2392.333341108678,None,2394.3548486420523,2395.834348171177,2395.850928935848,None,2397.3514417975102,None,n,2399.385281336812,None,2399.385281336812,None,2399.385281336812,None,None,None,None,None,2401.9690843008975,None,2401.9690843008975,None,right,2401.9690843008975,None,None,None,2402.4696036938485,2403.9033229330344,0.4811286191115869,2.4649366216190174,,,,,,,0,001,2019_Nov_05_1146,Test,3.1.2,59.98097199500592,
Pictures/IA40_20_G95p.bmp,Pictures/IA40_20_G95p.bmp,Pictures/IA40.bmp,"

"Hold back, stay with the safe choice."",0,safe,6,0,6,0,0,5,5,9,,,,,,,,,,,,,,,,,,,,,,,,,2403.920016906707,None,2405.941331922575,2407.4210398309087,2407.437559947899,None,2408.938067211315,None,n,2410.959127506927,None,2410.959127506927,None,2410.959127506927,None,None,None,None,None,2413.2899543805042,None,2413.2899543805042,None,left,2413.2899543805042,None,2414.5230765977094,None,None,None,1.2159726083982605,2.2428501050599152,,,,,,,0,001,2019_Nov_05_1146,Test,3.1.2,59.98097199500592,
Pictures/IA25_L15.bmp,Pictures/IA25_L15.bmp,Pictures/IA25.bmp,"

"There's not much on the line here, gamble!"",1,risk,6,0,6,0,0,6,6,11,,,,,,,,,,,,,,,,,,,,,,,,,2415.223275211086,None,2417.244631902795,2418.724290048929,2418.740915910593,None,2420.241381187152,None,n,2422.2751830937914,None,2422.2751830937914,None,2422.2751830937914,None,None,None,None,None,2423.1805447219103,None,2423.1805447219103,None,right,2423.1805447219103,None,None,None,2423.709002790416,2425.126111096598,0.5091462921564016,0.790512028145713,,,,,,,0,001,2019_Nov_05_1146,Test,3.1.2,59.98097199500592,
Pictures/IA25_G5.bmp,Pictures/IA25_G5.bmp,Pictures/IA25.bmp,"

"Let's stay with the certain option."",0,safe,6,0,6,0,0,7,7,5,,,,,,,,,,,,,,,,,,,,,,,,,2425.142809424463,None,2427.161335891111,2428.6437835195065,2428.660490555757,None,2430.160755228452,None,n,2432.1780130700417,None,2432.1780130700417,None,2432.1780130700417,None,None,None,None,None,2432.8946462716303,None,2432.8946462716303,None,right,2432.8946462716303,None,None,None,2434.278764417042,None,1.3547329449393146,0.5994590848977168,,,,,,,0,001,2019_Nov_05_1146,Test,3.1.2,59.98097199500592,
Pictures/IA25_G10.bmp,Pictures/IA25_G10.bmp,Pictures/IA25.bmp,"

"What's life without a little risk?"",1,risk,6,0,6,0,0,8,8,17,,,,,,,,,,,,,,,,,,,,,,,,,2434.845590384948,None,2436.866280574206,2438.346600246572,2438.3632646739397,None,2439.863685475534,None,n,2441.8974727645273,None,2441.8974727645273,None,2441.8974727645273,None,None,None,None,None,2442.730793968324,None,2442.730793968324,None,left,2442.730793968324,None,2443.0479489887703,2444.665088582935,None,None,0.2863596836614306,0.7117630373850261,,,,,,,0,001,2019_Nov_05_1146,Test,3.1.2,59.98097199500592,
Pictures/IA100_G40.bmp,Pictures/IA100_G40.bmp,Pictures/IA100.bmp,"

"Try your luck and gamble!"",1,risk,6,0,6,0,0,9,9,2,,,,,,,,,,,,,,,,,,,,,,,,,2444.681739947725,None,2446.6992033693987,2448.1827513644175,2448.199444094036,None,2449.6998089131566,None,n,2451.7334279437146,None,2451.7334279437146,None,2451.7334279437146,None,None,None,None,None,2452.8170607832826,None,2452.8170607832826,None,right,2452.8170607832826,None,None,None,2453.4508952841616,2454.7513143440783,0.6078701405658649,0.9635575866823274,,,,,,,0,001,2019_Nov_05_1146,Test,3.1.2,59.98097199500592,
Pictures/IA20_10_L95p.bmp,Pictures/IA20_10_L95p.bmp,Pictures/IA20.bmp,"

"Don't be tempted to gamble."",0,safe,6,0,6,0,0,10,10,15,,,,,,,,,,,,,,,,,,,,,,,,,2454.767957000485,None,2456.7890549287595,2458.2689883220564,2458.285681051675,None,2459.786028143012,None,n,2461.8069366639174,None,2461.8069366639174,None,2461.8069366639174,None,None,None,None,None,2462.5698443562833,None,2462.5698443562833,None,right,2462.5698443562833,None,None,None,2462.9870366361756,2464.5041380378525,0.39086185640371696,0.6337461729754068,,,,,,,0,001,2019_Nov_05_1146,Test,3.1.2,59.98097199500592,
Pictures/IA75_G30.bmp,Pictures/IA75_G30.bmp,Pictures/IA75.bmp,"

"Be bold, gamble!"",1,risk,6,0,6,0,0,11,11,19,,,,,,,,,,,,,,,,,,,,,,,,,2464.520824547196,None,2466.5424636393836,2468.0218185471185,2468.0384263699852,None,2469.5387320964946,None,n,2471.5559513723792,None,2471.5559513723792,None,2471.5559513723792,None,None,None,None,None,2472.108048040427,None,2472.108048040427,None,left,2472.108048040427,None,2472.856539312759,2474.056873839142,None,None,0.716408649665027,0.44457952807988477,,,,,,,0,001,2019_Nov_05_1146,Test,3.1.2,59.98097199500592,
Pictures/IA75_L15.bmp,Pictures/IA75_L15.bmp,Pictures/IA75.bmp,"

"Trust me, gamble!"",1,risk,6,0,6,0,0,12,12,12,,,,,,,,,,,,,,,,,,,,,,,,,2474.0735603484854,None,2476.0945186315894,2477.5745658559163,2477.5912371255863,None,2479.091641754466,None,n,2481.1088003826717,None,2481.1088003826717,None,2481.1088003826717,None,None,None,None,None,2481.792062431655,None,2481.792062431655,None,right,2481.792062431655,None,None,None,2482.3259206317816,2483.7263427396338,0.504156387662988,0.5794845382624771,,,,,,,0,001,2019_Nov_05_1146,Test,3.1.2,59.98097199500592,
Pictures/IA100_G60.bmp,Pictures/IA100_G60.bmp,Pictures/IA100.bmp,"

"Be cautious, don't gamble for this one."",0,safe,6,0,6,0,0,13,13,10,,,,,,,,,,,,,,,,,,,,,,,,,2483.742994726452,None,2485.763824249866,2487.244014851529,2487.2606920304597,None,2488.7610876399413,None,n,2490.7946696598638,None,2490.7946696598638,None,2490.7946696598638,None,None,None,None,None,2491.9950178708505,None,2491.9950178708505,None,left,2491.9950178708505,None,2492.61215124474,2493.9290879335376,None,None,0.5969775062421832,1.0693202981256036,,,,,,,0,001,2019_Nov_05_1146,Test,3.1.2,59.98097199500592,
Pictures/IA110_55_L95p.bmp,Pictures/IA110_55_L95p.bmp,Pictures/IA110.bmp,"

"Trust me, gamble!"",1,risk,6,0,6,0,0,14,14,6,,,,,,,,,,,,,,,,,,,,,,,,,2493.9459392801655,None,2495.9673093454658,2497.4469242606892,2497.4635361267347,None,2498.964061117933,None,None,2500.997809841222,None,2500.997809841222,None,2500.997809841222,None,None,None,None,None,2504.0485165888513,None,2504.0485165888513,None,right,2504.0485165888513,None,None,None,2504.599016512342,2505.9827368711776,0.519154092381541,,,,,,,,0,001,2019_Nov_05_1146,Test,3.1.2,59.98097199500592,
Pictures/IA75_G60.bmp,Pictures/IA75_G60.bmp,Pictures/IA75.bmp,"

"Make it exciting, take a chance!"",1,risk,6,0,6,0,0,15,15,1,,,,,,,,,,,,,,,,,,,,,,,,,2505.9994261796446,None,2508.0205707599816,2509.5004341751855,2509.517094870389,None,2511.0175029204192,None,n,2513.0346369785393,None,2513.0346369785393,None,2513.0346369785393,None,None,None,None,None,2513.617923659811,None,2513.617923659811,None,right,2513.617923659811,None,None,None,2514.068415559147,2515.552163536003,0.4295668947024751,0.46087944734154007,,,,,,,0,001,2019_Nov_05_1146,Test,3.1.2,59.98097199500592,
Pictures/IA50_G40.bmp,Pictures/IA50_G40.bmp,Pictures/IA50.bmp,"

"It would probably be best to play it safe."",0,safe,6,0,6,0,0,16,16,13,,,,,,,,,,,,,,,,,,,,,,,,,2515.5688550215664,None,2517.5898220130557,2519.069843112228,2519.086530554612,None,2520.586935494506,None,n,2522.6070643039575,None,2522.6070643039575,None,2522.6070643039575,None,None,None,None,None,2523.770787847574,None,2523.770787847574,None,right,2523.770787847574,None,None,None,2524.3380427034317,2525.7051005009816,0.5484621614459684,1.0482105513274291,,,,,,,0,001,2019_Nov_05_1146,Test,3.1.2,59.98097199500592,
Pictures/IA50_L10.bmp,Pictures/IA50_L10.bmp,Pictures/IA50.bmp,"

"Play it safe, don’t gamble!"",0,safe,6,0,6,0,0,17,17,4,,,,,,,,,,,,,,,,,,,,,,,,,2525.7217789239676,None,2527.7423431526595,2529.222778833151,2529.239344047135,None,2530.739692382527,None,n,2532.7575906014135,None,2532.7575906014135,None,2532.7575906014135,None,None,None,None,None,2534.226864620694,None,2534.226864620694,None,left,2534.226864620694,None,2535.808004063084,None,None,None,1.5561168316908152,1.361453329899632,,,,,,,0,001,2019_Nov_05_1146,Test,3.1.2,59.98097199500592,
Pictures/IA50_L30.bmp,Pictures/IA50_L30.bmp,Pictures/IA50.bmp,"

"Take a leap, I think you should gamble."",1,risk,6,0,6,0,0,18,18,18,,,,,,,,,,,,,,,,,,,,,,,,,2536.191456639086,None,2538.212334369631,2539.6924602804356,2539.709127506927,None,2541.209375695894,None,None,2543.228228726972,None,2543.228228726972,None,2543.228228726972,None,None,None,None,None,2546.293990094835,None,2546.293990094835,None,None,2546.293990094835,None,None,None,None,None,,,,,,,,,0,001,2019_Nov_05_1146,Test,3.1.2,59.98097199500592,
Pictures/IA25_G20.bmp,Pictures/IA25_G20.bmp,Pictures/IA25.bmp,"

"I wouldn't gamble for this one. "",0,safe,6,0,6,0,0,19,19,8,,,,,,,,,,,,,,,,,,,,,,,,,2548.244932031057,None,2550.266029026291,2551.745938160516,2551.7625876592238,None,2553.2629851347874,None,n,2555.296592035809,None,2555.296592035809,None,2555.296592035809,None,None,None,None,None,2556.1301489880243,None,2556.1301489880243,None,right,2556.1301489880243,None,None,None,2556.630674290236,2558.0644190325484,0.46831516391102923,0.7018833748225006,,,,,,,0,001,2019_Nov_05_1146,Test,3.1.2,59.98097199500592,
,,,,,,6,0,6,0,,,,,,,,,,,,,,,,,,,,,,,,,,,,,,,,,,,,,,,,,,,,,,,,,,,,,,,,,,,,,2558.1834819357,None,return,11.44665803292537,2558.1834819357,None,0,001,2019_Nov_05_1146,Test,3.1.2,59.98097199500592,
Pictures/IA50_L10.bmp,Pictures/IA50_L10.bmp,Pictures/IA50.bmp,"

"Play it safe, don’t gamble!"",0,safe,7,0,7,0,0,0,0,12,,,,,,,2569.7386579508184,None,2569.7386579508184,None,2569.7386579508184,None,left,3.819326207386439,2569.7386579508184,None,2569.7386579508184,None,2569.7386579508184,None,return,4.963328058540355,2569.7386579508184,None,2574.7527997457155,None,2576.7569023280003,2578.2369004121556,2578.253532183081,None,2579.7538326223566,None,y,2581.7747187502728,None,2581.7747187502728,None,2581.7747187502728,None,2582.4545092638555,None,2582.4545092638555,2583.4383850673594,2584.5218583568776,None,2584.5218583568776,None,right,2584.5218583568776,None,None,None,2585.1055310062047,2586.4225815260334,0.5639251427237468,0.5910713552611924,,,,,,,0,001,2019_Nov_05_1146,Test,3.1.2,59.98097199500592,
Pictures/IA50_L40.bmp,Pictures/IA50_L40.bmp,Pictures/IA50.bmp,"

"That gamble doesn't sound too good, play it safe."",0,safe,7,0,7,0,0,1,1,2,,,,,,,,,,,,,,,,,,,,,,,,,2586.439119992835,None,2588.46054946176,2589.9402760309176,2589.95692335253,None,2591.45713608593,None,y,2593.4761685719377,None,2593.4761685719377,None,2593.4761685719377,None,2594.1784002821523,None,2594.1784002821523,2595.175070258005,2596.246964505868,None,2596.246964505868,None,right,2596.246964505868,None,None,None,2597.8258609171426,None,1.5504548264971163,0.6012766492121955,,,,,,,0,001,2019_Nov_05_1146,Test,3.1.2,59.98097199500592,
Pictures/IA100_G40.bmp,Pictures/IA100_G40.bmp,Pictures/IA100.bmp,"

"Try your luck and gamble!"",1,risk,7,0,7,0,0,2,2,6,,,,,,,,,,,,,,,,,,,,,,,,,2598.1759715758326,None,2600.194693981138,2601.6769795713735,2601.69358241802,None,2603.1939248441513,None,n,2605.21117677648,None,2605.21117677648,None,2605.21117677648,None,None,None,None,None,2606.5279794183552,None,2606.5279794183552,None,left,2606.5279794183552,None,2607.0285255584877,2608.4622127632583,None,None,0.46924820513959276,1.1940601351298028,,,,,,,0,001,2019_Nov_05_1146,Test,3.1.2,59.98097199500592,
Pictures/IA25_L20.bmp,Pictures/IA25_L20.bmp,Pictures/IA25.bmp,"

"Don't be tempted to gamble."",0,safe,7,0,7,0,0,3,3,4,,,,,,,,,,,,,,,,,,,,,,,,,2608.478919488495,None,2610.499781979366,2611.9798469314765,2611.996607773105,None,2613.497018000232,None,n,2615.5308447879697,None,2615.5308447879697,None,2615.5308447879697,None,None,None,None,None,2616.7309429439074,None,2616.7309429439074,None,right,2616.7309429439074,None,None,None,2617.2981088498345,2618.66520116991,0.5379704238366685,1.074150652568278,,,,,,,0,001,2019_Nov_05_1146,Test,3.1.2,59.98097199500592,
Pictures/IA100_G60.bmp,Pictures/IA100_G60.bmp,Pictures/IA100.bmp,"

"Be cautious, don't gamble for this one."",0,safe,7,0,7,0,0,4,4,14,,,,,,,,,,,,,,,,,,,,,,,,,2618.681875549717,None,2620.7032126475606,2622.182900028987,2622.1995461065435,None,2623.6999653530693,None,n,2625.7335417747445,None,2625.7335417747445,None,2625.7335417747445,None,None,None,None,None,2626.7505153497723,None,2626.7505153497723,None,left,2626.7505153497723,None,2627.617773129159,2628.684753359882,None,None,0.8461719806473411,0.8952281783431317,,,,,,,0,001,2019_Nov_05_1146,Test,3.1.2,59.98097199500592,
Pictures/IA75_L60.bmp,Pictures/IA75_L60.bmp,Pictures/IA75.bmp,"

"Why not take the gamble?"",1,risk,7,0,7,0,0,5,5,0,,,,,,,,,,,,,,,,,,,,,,,,,2628.701414366098,None,2630.7223723381894,2632.202441022464,2632.2191088709833,None,2633.7195374479215,None,n,2635.75329114743,None,2635.75329114743,None,2635.75329114743,None,None,None,None,None,2636.5560969268117,None,2636.5560969268117,None,right,2636.5560969268117,None,None,None,2637.487194631157,2638.5042537349645,0.9122757746417847,0.6912152924214752,,,,,,,0,001,2019_Nov_05_1146,Test,3.1.2,59.98097199500592,
Pictures/IA50_G20.bmp,Pictures/IA50_G20.bmp,Pictures/IA50.bmp,"

"Let's venture and take a risk!"",1,risk,7,0,7,0,0,6,6,19,,,,,,,,,,,,,,,,,,,,,,,,,2638.5209032336725,None,2640.541085226474,2642.0219367323407,2642.038580321788,None,2643.538803318642,None,n,2645.556115276622,None,2645.556115276622,None,2645.556115276622,None,None,None,None,None,2646.4561884270543,None,2646.4561884270543,None,left,2646.4561884270543,None,2647.273433641486,2648.3904351455485,None,None,0.796069221707512,0.768165379691709,,,,,,,0,001,2019_Nov_05_1146,Test,3.1.2,59.98097199500592,
Pictures/IA25_L15.bmp,Pictures/IA25_L15.bmp,Pictures/IA25.bmp,"

"There's not much on the line here, gamble!"",1,risk,7,0,7,0,0,7,7,16,,,,,,,,,,,,,,,,,,,,,,,,,2648.407105482178,None,2650.4248320214774,2651.9081150327875,2651.9245427786964,None,2653.42519030931,None,n,2655.458976354247,None,2655.458976354247,None,2655.458976354247,None,None,None,None,None,2656.5308171077468,None,2656.5308171077468,None,right,2656.5308171077468,None,None,None,2657.176309958785,2658.4766714811594,0.6252035584948317,0.9611727333003728,,,,,,,0,001,2019_Nov_05_1146,Test,3.1.2,59.98097199500592,
Pictures/IA25_G5.bmp,Pictures/IA25_G5.bmp,Pictures/IA25.bmp,"

"Let's stay with the certain option."",0,safe,7,0,7,0,0,8,8,15,,,,,,,,,,,,,,,,,,,,,,,,,2658.493344927926,None,2660.514509413142,2661.9943634979345,2662.0110269922616,None,2663.51138745719,None,n,2665.5325914411515,None,2665.5325914411515,None,2665.5325914411515,None,None,None,None,None,2666.595287146549,None,2666.595287146549,None,right,2666.595287146549,None,None,None,2668.396196986153,None,1.7684011281089624,0.943208579500606,,,,,,,0,001,2019_Nov_05_1146,Test,3.1.2,59.98097199500592,
Pictures/IA75_G60.bmp,Pictures/IA75_G60.bmp,Pictures/IA75.bmp,"

"Make it exciting, take a chance!"",1,risk,7,0,7,0,0,9,9,18,,,,,,,,,,,,,,,,,,,,,,,,,2668.546244944472,None,2670.568001599855,2672.0472470307523,2672.0637954499934,None,2673.5641702215544,None,n,2675.5835613064073,None,2675.5835613064073,None,2675.5835613064073,None,None,None,None,None,2676.8315602439843,None,2676.8315602439843,None,left,2676.8315602439843,None,2677.0819934861283,2678.76585112643,None,None,0.2279534798080931,1.1159928864935864,,,,,,,0,001,2019_Nov_05_1146,Test,3.1.2,59.98097199500592,
Pictures/IA25_L5.bmp,Pictures/IA25_L5.bmp,Pictures/IA25.bmp,"

"It would be smarter to choose the safe option."",0,safe,7,0,7,0,0,10,10,5,,,,,,,,,,,,,,,,,,,,,,,,,2678.7825149317705,None,2680.8026424971667,2682.283537233944,2682.3002032163804,None,2683.8004377207426,None,n,2685.8191025885053,None,2685.8191025885053,None,2685.8191025885053,None,None,None,None,None,2686.5010064404732,None,2686.5010064404732,None,right,2686.5010064404732,None,None,None,2686.918206184695,2688.4353072753584,0.3902404509453845,0.5521299465181073,,,,,,,0,001,2019_Nov_05_1146,Test,3.1.2,59.98097199500592,
Pictures/IA80_40_G95p.bmp,Pictures/IA80_40_G95p.bmp,Pictures/IA80.bmp,"

"Think of the payoff, gamble!"",1,risk,7,0,7,0,0,11,11,7,,,,,,,,,,,,,,,,,,,,,,,,,2688.4519670375203,None,2690.473287340621,2691.952992449831,2691.969570726392,None,2693.4700646162155,None,n,2695.4871744152633,None,2695.4871744152633,None,2695.4871744152633,None,None,None,None,None,2696.620622015046,None,2696.620622015046,None,left,2696.620622015046,None,2697.687961777656,None,None,None,1.0464181791257943,1.0118639302427255,,,,,,,0,001,2019_Nov_05_1146,Test,3.1.2,59.98097199500592,
Pictures/IA75_L30.bmp,Pictures/IA75_L30.bmp,Pictures/IA75.bmp,"

"Hold back, stay with the safe choice."",0,safe,7,0,7,0,0,12,12,17,,,,,,,,,,,,,,,,,,,,,,,,,2698.57155244376,None,2700.5928708807787,2702.072558573219,2702.0892236226136,None,2703.5895909298442,None,n,2705.610766611556,None,2705.610766611556,None,2705.610766611556,None,None,None,None,None,2706.340102858466,None,2706.340102858466,None,right,2706.340102858466,None,None,None,2706.8239320099083,2708.2739384167908,0.45464797598469886,0.6079954791048294,,,,,,,0,001,2019_Nov_05_1146,Test,3.1.2,59.98097199500592,
Pictures/IA50_G10.bmp,Pictures/IA50_G10.bmp,Pictures/IA50.bmp,"

"Go with the safe option here!"",0,safe,7,0,7,0,0,13,13,10,,,,,,,,,,,,,,,,,,,,,,,,,2708.2906516733165,None,2710.312169470145,2711.792028842171,2711.8086948246073,None,2713.3091268226963,None,n,2715.3303196101633,None,2715.3303196101633,None,2715.3303196101633,None,None,None,None,None,2715.9428350519956,None,2715.9428350519956,None,left,2715.9428350519956,None,2716.4933132045244,2717.877117848084,None,None,0.5317336652469749,0.49627872056407796,,,,,,,0,001,2019_Nov_05_1146,Test,3.1.2,59.98097199500592,
Pictures/IA40_20_L95p.bmp,Pictures/IA40_20_L95p.bmp,Pictures/IA40.bmp,"

"Trust me, gamble!"",1,risk,7,0,7,0,0,14,14,1,,,,,,,,,,,,,,,,,,,,,,,,,2717.893792227891,None,2719.9156673795105,2721.394781562608,2721.4113707246497,None,2722.9116929348875,None,n,2724.9321408444403,None,2724.9321408444403,None,2724.9321408444403,None,None,None,None,None,2725.649888719283,None,2725.649888719283,None,right,2725.649888719283,None,None,None,2726.096170736593,2727.5965794086515,0.41638271111969516,0.5982060105270648,,,,,,,0,001,2019_Nov_05_1146,Test,3.1.2,59.98097199500592,
Pictures/IA25_G10.bmp,Pictures/IA25_G10.bmp,Pictures/IA25.bmp,"

"What's life without a little risk?"",1,risk,7,0,7,0,0,15,15,9,,,,,,,,,,,,,,,,,,,,,,,,,2727.613267784077,None,2729.6347572786553,2731.1142540086566,2731.131028534889,None,2732.6312101669155,None,n,2734.652011077066,None,2734.652011077066,None,2734.652011077066,None,None,None,None,None,2736.515432501932,None,2736.515432501932,None,None,2736.515432501932,None,None,None,None,None,,1.7340070513037062,,,,,,,0,001,2019_Nov_05_1146,Test,3.1.2,59.98097199500592,
Pictures/IA50_G40.bmp,Pictures/IA50_G40.bmp,Pictures/IA50.bmp,"

"It would probably be best to play it safe."",0,safe,7,0,7,0,0,16,16,8,,,,,,,,,,,,,,,,,,,,,,,,,2738.466382213498,None,2740.4879808738997,2741.967377457476,2741.9840496601864,None,2743.484466418603,None,n,2745.518287919107,None,2745.518287919107,None,2745.518287919107,None,None,None,None,None,2746.4736546478516,None,2746.4736546478516,None,right,2746.4736546478516,None,None,None,2747.0354922663328,2748.4192496358037,0.5441372043351294,0.8275422574370168,,,,,,,0,001,2019_Nov_05_1146,Test,3.1.2,59.98097199500592,
Pictures/IA75_L15.bmp,Pictures/IA75_L15.bmp,Pictures/IA75.bmp,"

"Trust me, gamble!"",1,risk,7,0,7,0,0,17,17,13,,,,,,,,,,,,,,,,,,,,,,,,,2748.4359308579133,None,2750.457268577785,2751.936933877235,2751.9535808878327,None,2753.4538331199783,None,n,2755.4719860591204,None,2755.4719860591204,None,2755.4719860591204,None,None,None,None,None,2755.9711323263955,None,2755.9711323263955,None,right,2755.9711323263955,None,None,None,2756.471573654897,2757.905294138138,0.4703958458521811,0.36955306081017625,,,,,,,0,001,2019_Nov_05_1146,Test,3.1.2,59.98097199500592,
Pictures/IA75_G30.bmp,Pictures/IA75_G30.bmp,Pictures/IA75.bmp,"

"Be bold, gamble!"",1,risk,7,0,7,0,0,18,18,11,,,,,,,,,,,,,,,,,,,,,,,,,2757.9218182983077,None,2759.940170286245,2761.42298926505,2761.4396474721425,None,2762.9399109007836,None,n,2764.9572129063245,None,2764.9572129063245,None,2764.9572129063245,None,None,None,None,None,2765.5772044965124,None,2765.5772044965124,None,left,2765.5772044965124,None,2766.274387520636,2767.5080667634547,None,None,0.6721610354516088,0.5081326983672625,,,,,,,0,001,2019_Nov_05_1146,Test,3.1.2,59.98097199500592,
Pictures/IA100_L60.bmp,Pictures/IA100_L60.bmp,Pictures/IA100.bmp,"

"You'd have a lot to lose, don't gamble."",0,safe,7,0,7,0,0,19,19,3,,,,,,,,,,,,,,,,,,,,,,,,,2767.524749540633,None,2769.5420580774626,2771.0257429185285,2771.042423518611,None,2772.542844631219,None,n,2774.559988952792,None,2774.559988952792,None,2774.559988952792,None,None,None,None,None,2775.4599604017303,None,2775.4599604017303,None,right,2775.4599604017303,None,None,None,2775.9770614923937,2777.394260303575,0.4852367996436442,0.7782266742797219,,,,,,,0,001,2019_Nov_05_1146,Test,3.1.2,59.98097199500592,
,,,,,,7,0,7,0,,,,,,,,,,,,,,,,,,,,,,,,,,,,,,,,,,,,,,,,,,,,,,,,,,,,,,,,,,,,,2777.5105713571274,None,return,13.69014664919996,2777.5105713571274,None,0,001,2019_Nov_05_1146,Test,3.1.2,59.98097199500592,
Pictures/IA50_L20.bmp,Pictures/IA50_L20.bmp,Pictures/IA50.bmp,"

"Certainty is boring, take a risk!"",1,risk,8,0,8,0,0,0,0,14,,,,,,,2791.314717605742,None,2791.314717605742,None,2791.314717605742,None,left,2.549897489870091,2791.314717605742,None,2791.314717605742,None,2791.314717605742,None,return,3.5179482920993905,2791.314717605742,None,2794.884749192298,None,2796.886773269738,2798.3669489427402,2798.383642294386,None,2799.8840223531806,None,n,2801.917812130283,None,2801.917812130283,None,2801.917812130283,None,None,None,None,None,2802.7194886187635,None,2802.7194886187635,None,right,2802.7194886187635,None,None,None,2803.701832990597,None,0.9609553346945177,0.674670605344545,,,,,,,0,001,2019_Nov_05_1146,Test,3.1.2,59.98097199500592,
Pictures/IA25_L20.bmp,Pictures/IA25_L20.bmp,Pictures/IA25.bmp,"

"Don't be tempted to gamble."",0,safe,8,0,8,0,0,1,1,11,,,,,,,,,,,,,,,,,,,,,,,,,2804.6687824931614,None,2806.6899258294434,2808.1698038622935,2808.1864443416034,None,2809.686854879744,None,n,2811.703985827726,None,2811.703985827726,None,2811.703985827726,None,None,None,None,None,2812.72083437523,None,2812.72083437523,None,right,2812.72083437523,None,None,None,2814.021443464544,None,1.2712472148723464,0.8961811244516866,,,,,,,0,001,2019_Nov_05_1146,Test,3.1.2,59.98097199500592,
Pictures/IA75_L30.bmp,Pictures/IA75_L30.bmp,Pictures/IA75.bmp,"

"Hold back, stay with the safe choice."",0,safe,8,0,8,0,0,2,2,2,,,,,,,,,,,,,,,,,,,,,,,,,2814.6716410204735,None,2816.6926537309837,2818.172656480345,2818.189492898313,None,2819.689573139858,None,n,2821.709780635787,None,2821.709780635787,None,2821.709780635787,None,None,None,None,None,2822.473492920705,None,2822.473492920705,None,right,2822.473492920705,None,None,None,2822.940710206103,2824.4077943776183,0.4463619478410692,0.6421954833340351,,,,,,,0,001,2019_Nov_05_1146,Test,3.1.2,59.98097199500592,
Pictures/IA25_G15.bmp,Pictures/IA25_G15.bmp,Pictures/IA25.bmp,"

"I think you should take a gamble."",1,risk,8,0,8,0,0,3,3,15,,,,,,,,,,,,,,,,,,,,,,,,,2824.4244525847116,None,2826.445139352818,2827.9254792410775,2827.9421439794587,None,2829.442391857412,None,n,2831.4600649023487,None,2831.4600649023487,None,2831.4600649023487,None,None,None,None,None,2831.9762721395136,None,2831.9762721395136,None,right,2831.9762721395136,None,None,None,2832.0766580453665,2833.9105359637633,0.07947738494658552,0.38770693299375125,,,,,,,0,001,2019_Nov_05_1146,Test,3.1.2,59.98097199500592,
Pictures/IA75_L45.bmp,Pictures/IA75_L45.bmp,Pictures/IA75.bmp,"

