Choice	Choice2	Amount	AdviceVar1	GambleAdviceNum	GambleAdviceType	practice.thisRepN	practice.thisTrialN	practice.thisN	practice.thisIndex	trials_2.thisRepN	trials_2.thisTrialN	trials_2.thisN	trials_2.thisIndex	trials.thisRepN	trials.thisTrialN	trials.thisN	trials.thisIndex	text.started	text.stopped	key_resp_4.keys	key_resp_4.rt	key_resp_4.started	key_resp_4.stopped	instructions.started	instructions.stopped	space.keys	space.rt	space.started	space.stopped	chooseInst.started	chooseInst.stopped	Ad1.started	Ad1.stopped	Ad2.started	Ad2.stopped	key_resp_3.keys	key_resp_3.rt	key_resp_3.started	key_resp_3.stopped	Ad1pic.started	Ad1pic.stopped	Ad2pic.started	Ad2pic.stopped	enter.keys	enter.rt	enter.started	enter.stopped	iSi.started	iSi.stopped	receiveMoneyPicture.started	receiveMoneyPicture.stopped	ISI2.started	ISI2.stopped	ChoicePic.started	ChoicePic.stopped	response.keys	response.started	response.stopped	yesNo.started	yesNo.stopped	ask.started	ask.stopped	getAdv.started	getAdv.stopped	textForCode.started	textForCode.stopped	blank.started	blank.stopped	ChoicePic2.started	ChoicePic2.stopped	resp.keys	resp.started	resp.stopped	checkL1.started	checkL1.stopped	checkR1.started	checkR1.stopped	response.rt	resp.rt	EndPrac.started	EndPrac.stopped	key_resp.keys	key_resp.rt	key_resp.started	key_resp.stopped	endText.started	endText.stopped	key_resp_2.keys	key_resp_2.rt	key_resp_2.started	key_resp_2.stopped	participant	session	age	gender (0=male	 1 = female	 2 = other)	date	expName	psychopyVersion	frameRate																		261.1552563	None	space	448.3289505	261.1552563	None																																																																					102	1	18	1	2019_Dec_04_1211	Test	3.2.4	59.84470323																										709.5379691	None	space	4.954251321	709.5379691	None																																																															102	1	18	1	2019_Dec_04_1211	Test	3.2.4	59.84470323																																715.2029213	None	715.2029213	None	715.2029213	None	left	8.521272352	715.2029213	None																																																					102	1	18	1	2019_Dec_04_1211	Test	3.2.4	59.84470323																																										715.2029213	None	715.2029213	None	return	12.92912374	715.2029213	None																																													102	1	18	1	2019_Dec_04_1211	Test	3.2.4	59.84470323		Pictures/IA50_G40.bmp	Pictures/IA50_G40.bmp	Pictures/IA50.bmp	"It would probably be best to play it safe."""""	0	safe	0	0	0	3																																							728.2539992	None	730.2258734	731.7298316	731.7131233	None	733.2505139	None	None	735.30593	None	735.30593	None	735.30593	None	None	None	None	None	738.3472865	None	738.3472865	None	None	738.3472865	None	None	None	None	None															102	1	18	1	2019_Dec_04_1211	Test	3.2.4	59.84470323		Pictures/IA100_G20.bmp	Pictures/IA100_G20.bmp	Pictures/IA100.bmp	"Go ahead and gamble!"""""	1	risk	0	1	1	4																																							740.3525682	None	742.3912795	743.8952445	743.8785389	None	745.4326379	None	None	747.4045074	None	747.4045074	None	747.4045074	None	None	None	None	None	750.5127093	None	750.5127093	None	None	750.5127093	None	None	None	None	None															102	1	18	1	2019_Dec_04_1211	Test	3.2.4	59.84470323		Pictures/IA100_G40.bmp	Pictures/IA100_G40.bmp	Pictures/IA100.bmp	"Try your luck and gamble!"""""	1	risk	0	2	2	5																																							752.5179862	None	754.540001	756.0606633	756.0439665	None	757.6147686	None	2	759.5699253	None	759.5699253	None	759.5699253	None	None	None	None	None	761.759035	None	761.759035	None	None	761.759035	None	None	None	None	None	2.03429247														102	1	18	1	2019_Dec_04_1211	Test	3.2.4	59.84470323		Pictures/IA50_G10.bmp	Pictures/IA50_G10.bmp	Pictures/IA50.bmp	"Go with the safe option here!"""""	0	safe	0	3	3	0																																							763.7643151	None	765.7863156	767.3069908	767.2902878	None	768.8443808	None	1	770.8162647	None	770.8162647	None	770.8162647	None	772.1196875	None	772.1196875	773.1223268	774.2252428	None	774.2252428	None	None	774.2252428	None	None	None	None	None	1.171948735														102	1	18	1	2019_Dec_04_1211	Test	3.2.4	59.84470323		Pictures/IA50_G20.bmp	Pictures/IA50_G20.bmp	Pictures/IA50.bmp	"Let's venture and take a risk!"""""	1	risk	0	4	4	1																																							776.2305257	None	778.2525292	779.7732043	779.7564967	None	781.2938852	None	2	783.2824677	None	783.2824677	None	783.2824677	None	None	None	None	None	784.7362977	None	784.7362977	None	right	784.7362977	None	None	None	786.3071098	None	1.281766955	1.531912151													102	1	18	1	2019_Dec_04_1211	Test	3.2.4	59.84470323		Pictures/IA50_G30.bmp	Pictures/IA50_G30.bmp	Pictures/IA50.bmp	"I think you should gamble."""""	1	risk	0	5	5	2																																							786.7582937	None	788.780294	790.3009782	790.2842629	None	791.8383706	None	2	793.8102309	None	793.8102309	None	793.8102309	None	None	None	None	None	794.5287971	None	794.5287971	None	right	794.5287971	None	None	None	795.681829	None	0.537993175	1.115430553													102	1	18	1	2019_Dec_04_1211	Test	3.2.4	59.84470323																																																																																		796.5340789	None	space	11.39813975	796.5340789	None							102	1	18	1	2019_Dec_04_1211	Test	3.2.4	59.84470323		Pictures/IA100_G60.bmp	Pictures/IA100_G60.bmp	Pictures/IA100.bmp	"Be cautious"	0	safe					0	0	0	0	0	0	0	13													808.0979143	None	808.0979143	None	808.0979143	None	left	1.994306955	808.0979143	None	808.0979143	None	808.0979143	None	return	5.7061064	808.0979143	None	813.8798293	None	815.8684081	817.3890836	817.3723762	None	818.9264814	None	2	820.8816322	None	820.8816322	None	820.8816322	None	None	None	None	None	822.41902	None	822.41902	None	right	822.41902	None	None	None	823.0707417	824.4243058	1.362593505	0.617204074													102	1	18	1	2019_Dec_04_1211	Test	3.2.4	59.84470323		Pictures/IA50_G40.bmp	Pictures/IA50_G40.bmp	Pictures/IA50.bmp	"It would probably be best to play it safe."""""	0	safe					0	0	0	0	0	1	1	17																															824.4409846	None	826.4630216	827.9836946	827.9669916	None	829.470965	None	2	831.4929565	None	831.4929565	None	831.4929565	None	None	None	None	None	833.4982432	None	833.4982432	None	left	833.4982432	None	834.1833822	835.486816	None	None	1.799263636	0.641971411													102	1	18	1	2019_Dec_04_1211	Test	3.2.4	59.84470323		Pictures/IA100_L20.bmp	Pictures/IA100_L20.bmp	Pictures/IA100.bmp	"Try to win as much money as you can"	1	risk					0	0	0	0	0	2	2	16																															835.5035294	None	837.5255343	839.0462081	839.0295273	None	840.6170183	None	2	842.5554674	None	842.5554674	None	842.5554674	None	None	None	None	None	843.8756174	None	843.8756174	None	left	843.8756174	None	844.5774637	845.8809037	None	None	1.12075708	0.664593261													102	1	18	1	2019_Dec_04_1211	Test	3.2.4	59.84470323		Pictures/IA110_55_L95p.bmp	Pictures/IA110_55_L95p.bmp	Pictures/IA110.bmp	"Trust me"	1	risk					0	0	0	0	0	3	3	7																															845.8976113	None	847.9363205	849.4570028	849.4402997	None	850.9776845	None	2	852.9495508	None	852.9495508	None	852.9495508	None	None	None	None	None	854.0357485	None	854.0357485	None	right	854.0357485	None	None	None	854.8712811	856.0410334	0.934664056	0.792470711													102	1	18	1	2019_Dec_04_1211	Test	3.2.4	59.84470323		Pictures/IA50_G10.bmp	Pictures/IA50_G10.bmp	Pictures/IA50.bmp	"Go with the safe option here!"""""	0	safe					0	0	0	0	0	4	4	15																															856.057744	None	858.0797464	859.6004289	859.5837127	None	861.0876786	None	1	863.1096855	None	863.1096855	None	863.1096855	None	864.1457467	None	864.1457467	865.1483847	866.3515677	None	866.3515677	None	left	866.3515677	None	867.3876322	None	None	None	0.918533573	0.996643492													102	1	18	1	2019_Dec_04_1211	Test	3.2.4	59.84470323		Pictures/IA50_L10.bmp	Pictures/IA50_L10.bmp	Pictures/IA50.bmp	"Play it safe"	0	safe					0	0	0	0	0	5	5	4																															868.3735634	None	870.3955669	871.916241	871.8995321	None	873.4535986	None	2	875.4255001	None	875.4255001	None	875.4255001	None	None	None	None	None	876.5785397	None	876.5785397	None	right	876.5785397	None	None	None	877.0130159	878.5838323	0.930723699	0.393670638													102	1	18	1	2019_Dec_04_1211	Test	3.2.4	59.84470323		Pictures/IA75_G30.bmp	Pictures/IA75_G30.bmp	Pictures/IA75.bmp	"Be bold"	1	risk					0	0	0	0	0	6	6	1																															878.6005367	None	880.639251	882.1432141	882.1265076	None	883.6973187	None	1	885.652477	None	885.652477	None	885.652477	None	887.0728522	None	887.0728522	888.075529	889.1784437	None	889.1784437	None	right	889.1784437	None	None	None	890.0139765	891.1837309	1.327742197	0.793775524													102	1	18	1	2019_Dec_04_1211	Test	3.2.4	59.84470323		Pictures/IA75_L45.bmp	Pictures/IA75_L45.bmp	Pictures/IA75.bmp	"Don't gamble for this one"	0	safe					0	0	0	0	0	7	7	19																															891.2004457	None	893.2224403	894.7431212	894.726417	None	896.2637967	None	1	898.2523746	None	898.2523746	None	898.2523746	None	899.2717324	None	899.2717324	900.2743721	901.3772873	None	901.3772873	None	left	901.3772873	None	902.1292663	903.3825833	None	None	0.879841698	0.706928449													102	1	18	1	2019_Dec_04_1211	Test	3.2.4	59.84470323		Pictures/IA110_55_G95p.bmp	Pictures/IA110_55_G95p.bmp	Pictures/IA110.bmp	"Take a chance!"""""	1	risk					0	0	0	0	0	8	8	11																															903.3992822	None	905.4212841	906.9419614	906.9252516	None	908.512773	None	2	910.451222	None	910.451222	None	910.451222	None	None	None	None	None	911.0862285	None	911.0862285	None	left	911.0862285	None	912.0721605	None	None	None	0.481000511	0.949988579													102	1	18	1	2019_Dec_04_1211	Test	3.2.4	59.84470323		Pictures/IA25_L20.bmp	Pictures/IA25_L20.bmp	Pictures/IA25.bmp	"Don't be tempted to gamble."""""	0	safe					0	0	0	0	0	9	9	9																															913.091516	None	915.1302271	916.6509169	916.6341982	None	918.1882997	None	1	920.1434642	None	920.1434642	None	920.1434642	None	921.3967621	None	921.3967621	922.399402	923.5023142	None	923.5023142	None	left	923.5023142	None	924.4381208	925.5075987	None	None	1.148745057	0.885897326													102	1	18	1	2019_Dec_04_1211	Test	3.2.4	59.84470323		Pictures/IA75_L60.bmp	Pictures/IA75_L60.bmp	Pictures/IA75.bmp	"Why not take the gamble?"""""	1	risk					0	0	0	0	0	10	10	18																															925.5243141	None	927.5463082	929.0669862	929.0502907	None	930.6210875	None	1	932.5762747	None	932.5762747	None	932.5762747	None	933.4117866	None	933.4117866	934.4144246	935.5173379	None	935.5173379	None	right	935.5173379	None	None	None	936.586822	None	0.723932289	1.030865409													102	1	18	1	2019_Dec_04_1211	Test	3.2.4	59.84470323		Pictures/IA50_G20.bmp	Pictures/IA50_G20.bmp	Pictures/IA50.bmp	"Let's venture and take a risk!"""""	1	risk					0	0	0	0	0	11	11	6																															937.5393331	None	939.6950476	941.1989919	941.1822808	None	942.6194002	None	1	944.5912744	None	944.5912744	None	944.5912744	None	946.1788239	None	946.1788239	947.1814703	948.3344918	None	948.3344918	None	right	948.3344918	None	None	None	949.0697494	950.3397663	1.476959002	0.701710833													102	1	18	1	2019_Dec_04_1211	Test	3.2.4	59.84470323		Pictures/IA25_L5.bmp	Pictures/IA25_L5.bmp	Pictures/IA25.bmp	"It would be smarter to choose the safe option."""""	0	safe					0	0	0	0	0	12	12	12																															950.3564759	None	952.3951885	953.915869	953.8991589	None	955.4365458	None	2	957.4084164	None	957.4084164	None	957.4084164	None	None	None	None	None	958.5280383	None	958.5280383	None	left	958.5280383	None	959.1797501	960.5166193	None	None	0.923813566	0.612173822													102	1	18	1	2019_Dec_04_1211	Test	3.2.4	59.84470323		Pictures/IA100_G20.bmp	Pictures/IA100_G20.bmp	Pictures/IA100.bmp	"Go ahead and gamble!"""""	1	risk					0	0	0	0	0	13	13	0																															960.5333212	None	962.5720396	964.0759998	964.0592917	None	965.6133926	None	2	967.5852693	None	967.5852693	None	967.5852693	None	None	None	None	None	969.0725123	None	969.0725123	None	left	969.0725123	None	969.8245092	971.0610901	None	None	1.330957966	0.715699655													102	1	18	1	2019_Dec_04_1211	Test	3.2.4	59.84470323		Pictures/IA40_20_G95p.bmp	Pictures/IA40_20_G95p.bmp	Pictures/IA40.bmp	"Hold back"	0	safe					0	0	0	0	0	14	14	14																															971.0778062	None	973.1165136	974.6371899	974.6204861	None	976.1578694	None	2	978.1297425	None	978.1297425	None	978.1297425	None	None	None	None	None	978.8650167	None	978.8650167	None	left	978.8650167	None	979.3496208	980.8535877	None	None	0.546479671	0.435196458													102	1	18	1	2019_Dec_04_1211	Test	3.2.4	59.84470323		Pictures/IA50_L30.bmp	Pictures/IA50_L30.bmp	Pictures/IA50.bmp	"Take a leap"	1	risk					0	0	0	0	0	15	15	5																															980.8702973	None	982.9090106	984.4296891	984.4129854	None	986.3012906	None	1	987.9222362	None	987.9222362	None	987.9222362	None	989.2591018	None	989.2591018	990.2617449	991.3646497	None	991.3646497	None	right	991.3646497	None	None	None	991.815849	993.36994	1.193983945	0.415559922													102	1	18	1	2019_Dec_04_1211	Test	3.2.4	59.84470323		Pictures/IA75_G60.bmp	Pictures/IA75_G60.bmp	Pictures/IA75.bmp	"Make it exciting"	1	risk					0	0	0	0	0	16	16	8																															993.3866453	None	995.4253636	996.9460338	996.9293398	None	998.4834354	None	2	1000.438585	None	1000.438585	None	1000.438585	None	None	None	None	None	1002.076241	None	1002.076241	None	left	1002.076241	None	1002.928483	1004.064817	None	None	1.461638667	0.807979356													102	1	18	1	2019_Dec_04_1211	Test	3.2.4	59.84470323		Pictures/IA50_G30.bmp	Pictures/IA50_G30.bmp	Pictures/IA50.bmp	"I think you should gamble."""""	1	risk					0	0	0	0	0	17	17	3																															1004.081527	None	1006.103524	1007.624204	1007.607495	None	1009.144883	None	2	1011.133468	None	1011.133468	None	1011.133468	None	None	None	None	None	1012.15283	None	1012.15283	None	right	1012.15283	None	None	None	1012.654114	1014.141392	0.846741039	0.459381824													102	1	18	1	2019_Dec_04_1211	Test	3.2.4	59.84470323		Pictures/IA25_L15.bmp	Pictures/IA25_L15.bmp	Pictures/IA25.bmp	"There's not much on the line here"	1	risk					0	0	0	0	0	18	18	2																															1014.158109	None	1016.180104	1017.700781	1017.684075	None	1019.221467	None	1	1021.210041	None	1021.210041	None	1021.210041	None	1022.346378	None	1022.346378	1023.34901	1024.468641	None	1024.468641	None	right	1024.468641	None	None	None	1024.936553	1026.457211	0.986172868	0.431564007													102	1	18	1	2019_Dec_04_1211	Test	3.2.4	59.84470323		Pictures/IA20_10_G95p.bmp	Pictures/IA20_10_G95p.bmp	Pictures/IA20.bmp	"Take a leap"	1	risk					0	0	0	0	0	19	19	10																															1026.473921	None	1028.512635	1030.016599	1029.999891	None	1031.587409	None	2	1033.525859	None	1033.525859	None	1033.525859	None	None	None	None	None	1034.829299	None	1034.829299	None	left	1034.829299	None	1035.414173	1036.817891	None	None	1.134354597	0.550910633													102	1	18	1	2019_Dec_04_1211	Test	3.2.4	59.84470323												0	0	0	0																																																																									1037.035117	None	return	14.48906979	1037.035117	None	102	1	18	1	2019_Dec_04_1211	Test	3.2.4	59.84470323		Pictures/IA75_G60.bmp	Pictures/IA75_G60.bmp	Pictures/IA75.bmp	"Make it exciting"	1	risk					1	0	1	0	0	0	0	17													1051.723863	None	1051.723863	None	1051.723863	None	left	6.368350652	1051.723863	None	1051.723863	None	1051.723863	None	return	9.576138311	1051.723863	None	1061.349249	None	1063.371247	1064.891922	1064.875216	None	1066.36247	None	2	1068.384472	None	1068.384472	None	1068.384472	None	None	None	None	None	1069.604357	None	1069.604357	None	left	1069.604357	None	1070.122386	1071.59296	None	None	1.043751529	0.479860712													102	1	18	1	2019_Dec_04_1211	Test	3.2.4	59.84470323		Pictures/IA50_G20.bmp	Pictures/IA50_G20.bmp	Pictures/IA50.bmp	"Let's venture and take a risk!"""""	1	risk					1	0	1	0	0	1	1	5																															1071.609649	None	1073.631644	1075.152319	1075.135614	None	1076.639578	None	2	1078.66158	None	1078.66158	None	1078.66158	None	None	None	None	None	1080.53318	None	1080.53318	None	right	1080.53318	None	None	None	1081.719644	None	1.718623165	1.143045279													102	1	18	1	2019_Dec_04_1211	Test	3.2.4	59.84470323		Pictures/IA100_L20.bmp	Pictures/IA100_L20.bmp	Pictures/IA100.bmp	"Try to win as much money as you can"	1	risk					1	0	1	0	0	2	2	18																															1082.538468	None	1084.56047	1086.08115	1086.064442	None	1087.618538	None	2	1089.590415	None	1089.590415	None	1089.590415	None	None	None	None	None	1091.077661	None	1091.077661	None	right	1091.077661	None	None	None	1091.495432	1093.082947	1.309800309	0.374560792													102	1	18	1	2019_Dec_04_1211	Test	3.2.4	59.84470323		Pictures/IA75_G30.bmp	Pictures/IA75_G30.bmp	Pictures/IA75.bmp	"Be bold"	1	risk					1	0	1	0	0	3	3	16																															1093.099662	None	1095.121664	1096.642338	1096.625635	None	1098.163019	None	2	1100.151597	None	1100.151597	None	1100.151597	None	None	None	None	None	1101.10411	None	1101.10411	None	left	1101.10411	None	1101.655561	1103.109393	None	None	0.796640103	0.516102135													102	1	18	1	2019_Dec_04_1211	Test	3.2.4	59.84470323		Pictures/IA75_L60.bmp	Pictures/IA75_L60.bmp	Pictures/IA75.bmp	"Why not take the gamble?"""""	1	risk					1	0	1	0	0	4	4	1																															1103.126104	None	1105.148128	1106.668782	1106.652082	None	1108.189461	None	2	1110.178043	None	1110.178043	None	1110.178043	None	None	None	None	None	1112.367157	None	1112.367157	None	right	1112.367157	None	None	None	1112.868475	1114.372434	2.026178292	0.461062622													102	1	18	1	2019_Dec_04_1211	Test	3.2.4	59.84470323		Pictures/IA100_G40.bmp	Pictures/IA100_G40.bmp	Pictures/IA100.bmp	"Try your luck and gamble!"""""	1	risk					1	0	1	0	0	5	5	7																															1114.389155	None	1116.411147	1117.915111	1117.898407	None	1119.469215	None	1	1121.441089	None	1121.441089	None	1121.441089	None	1122.460444	None	1122.460444	1123.463078	1124.565993	None	1124.565993	None	right	1124.565993	None	None	None	1125.23442	1126.571277	0.907129853	0.630218295													102	1	18	1	2019_Dec_04_1211	Test	3.2.4	59.84470323		Pictures/IA80_40_L95p.bmp	Pictures/IA80_40_L95p.bmp	Pictures/IA80.bmp	"Let's stay with the certain option."""""	0	safe					1	0	1	0	0	6	6	9																															1126.587989	None	1128.626702	1130.147381	1130.13067	None	1131.668055	None	2	1133.639926	None	1133.639926	None	1133.639926	None	None	None	None	None	1135.294294	None	1135.294294	None	right	1135.294294	None	None	None	1135.912582	1137.282869	1.484290317	0.5739201													102	1	18	1	2019_Dec_04_1211	Test	3.2.4	59.84470323		Pictures/IA50_L20.bmp	Pictures/IA50_L20.bmp	Pictures/IA50.bmp	"Certainty is boring"	1	risk					1	0	1	0	0	7	7	8																															1137.299573	None	1139.321585	1140.842252	1140.825558	None	1142.396357	None	1	1144.35152	None	1144.35152	None	1144.35152	None	1145.487847	None	1145.487847	1146.490488	1147.593396	None	1147.593396	None	right	1147.593396	None	None	None	1149.214338	None	1.00469546	1.578818729													102	1	18	1	2019_Dec_04_1211	Test	3.2.4	59.84470323		Pictures/IA75_L15.bmp	Pictures/IA75_L15.bmp	Pictures/IA75.bmp	"Trust me"	1	risk					1	0	1	0	0	8	8	4																															1149.598681	None	1151.620684	1153.141361	1153.124652	None	1154.678757	None	1	1156.650617	None	1156.650617	None	1156.650617	None	1158.321691	None	1158.321691	1159.324331	1160.42725	None	1160.42725	None	right	1160.42725	None	None	None	1160.811587	1162.415821	1.57760169	0.336957834													102	1	18	1	2019_Dec_04_1211	Test	3.2.4	59.84470323		Pictures/IA100_L80.bmp	Pictures/IA100_L80.bmp	Pictures/IA100.bmp	"Go all in!"""""	1	risk					1	0	1	0	0	9	9	12																															1162.432532	None	1164.454532	1165.975211	1165.9585	None	1167.529313	None	1	1169.484473	None	1169.484473	None	1169.484473	None	1170.938306	None	1170.938306	1171.940951	1173.043855	None	1173.043855	None	right	1173.043855	None	None	None	1173.762413	1175.032435	1.383747019	0.672355867													102	1	18	1	2019_Dec_04_1211	Test	3.2.4	59.84470323		Pictures/IA40_20_G95p.bmp	Pictures/IA40_20_G95p.bmp	Pictures/IA40.bmp	"Hold back"	0	safe					1	0	1	0	0	10	10	0																															1175.04914	None	1177.071151	1178.591821	1178.575111	None	1180.079076	None	2	1182.101081	None	1182.101081	None	1182.101081	None	None	None	None	None	1183.153871	None	1183.153871	None	left	1183.153871	None	1183.788857	1185.159139	None	None	0.847147022	0.594338208													102	1	18	1	2019_Dec_04_1211	Test	3.2.4	59.84470323		Pictures/IA25_G5.bmp	Pictures/IA25_G5.bmp	Pictures/IA25.bmp	"Let's stay with the certain option."""""	0	safe					1	0	1	0	0	11	11	19																															1185.175857	None	1187.197849	1188.718523	1188.701817	None	1190.272627	None	1	1192.227784	None	1192.227784	None	1192.227784	None	1193.581355	None	1193.581355	1194.583993	1195.703618	None	1195.703618	None	right	1195.703618	None	None	None	1197.207581	None	1.232428256	1.460602227													102	1	18	1	2019_Dec_04_1211	Test	3.2.4	59.84470323		Pictures/IA50_L40.bmp	Pictures/IA50_L40.bmp	Pictures/IA50.bmp	"That gamble doesn't sound too good"	0	safe					1	0	1	0	0	12	12	2																															1197.725613	None	1199.747614	1201.268301	1201.251586	None	1202.822401	None	2	1204.777549	None	1204.777549	None	1204.777549	None	None	None	None	None	1206.532181	None	1206.532181	None	right	1206.532181	None	None	None	1207.066917	1208.537458	1.554667905	0.488039627													102	1	18	1	2019_Dec_04_1211	Test	3.2.4	59.84470323		Pictures/IA40_20_L95p.bmp	Pictures/IA40_20_L95p.bmp	Pictures/IA40.bmp	"Trust me"	1	risk					1	0	1	0	0	13	13	14																															1208.554176	None	1210.576173	1212.096849	1212.080143	None	1213.650952	None	2	1215.706373	None	1215.706373	None	1215.706373	None	None	None	None	None	1216.34139	None	1216.34139	None	right	1216.34139	None	None	None	1216.658885	1218.329967	0.481838393	0.270819688													102	1	18	1	2019_Dec_04_1211	Test	3.2.4	59.84470323		Pictures/IA25_L15.bmp	Pictures/IA25_L15.bmp	Pictures/IA25.bmp	"There's not much on the line here"	1	risk					1	0	1	0	0	14	14	11																															1218.346663	None	1220.368666	1221.88934	1221.872642	None	1223.376598	None	1	1225.398602	None	1225.398602	None	1225.398602	None	1226.601773	None	1226.601773	1227.604417	1228.707326	None	1228.707326	None	right	1228.707326	None	None	None	1229.275501	1230.712609	1.053611357	0.528882308													102	1	18	1	2019_Dec_04_1211	Test	3.2.4	59.84470323		Pictures/IA25_G20.bmp	Pictures/IA25_G20.bmp	Pictures/IA25.bmp	"I wouldn't gamble for this one. """""	0	safe					1	0	1	0	0	15	15	3																															1230.729335	None	1232.751321	1234.272	1234.255289	None	1235.809385	None	2	1237.781257	None	1237.781257	None	1237.781257	None	None	None	None	None	1238.884162	None	1238.884162	None	left	1238.884162	None	1239.218376	1240.889454	None	None	0.926976222	0.296048212													102	1	18	1	2019_Dec_04_1211	Test	3.2.4	59.84470323		Pictures/IA100_L60.bmp	Pictures/IA100_L60.bmp	Pictures/IA100.bmp	"You'd have a lot to lose"	0	safe					1	0	1	0	0	16	16	10																															1240.906161	None	1242.928198	1244.432148	1244.415395	None	1246.00294	None	1	1247.958096	None	1247.958096	None	1247.958096	None	1249.378507	None	1249.378507	1250.38115	1251.484057	None	1251.484057	None	left	1251.484057	None	1252.369729	1253.472631	None	None	1.278125262	0.840152771													102	1	18	1	2019_Dec_04_1211	Test	3.2.4	59.84470323		Pictures/IA50_L10.bmp	Pictures/IA50_L10.bmp	Pictures/IA50.bmp	"Play it safe"	0	safe					1	0	1	0	0	17	17	6																															1253.489366	None	1255.511343	1257.032018	1257.015312	None	1258.569408	None	2	1260.541278	None	1260.541278	None	1260.541278	None	None	None	None	None	1261.209703	None	1261.209703	None	left	1261.209703	None	1261.86142	1263.214988	None	None	0.510942875	0.610537201													102	1	18	1	2019_Dec_04_1211	Test	3.2.4	59.84470323		Pictures/IA75_G15.bmp	Pictures/IA75_G15.bmp	Pictures/IA75.bmp	"Take a chance!"""""	1	risk					1	0	1	0	0	18	18	13																															1263.2317	None	1265.253702	1266.774375	1266.757669	None	1268.328478	None	2	1270.283633	None	1270.283633	None	1270.283633	None	None	None	None	None	1270.985483	None	1270.985483	None	left	1270.985483	None	1271.453404	1272.974064	None	None	0.504587459	0.426728712													102	1	18	1	2019_Dec_04_1211	Test	3.2.4	59.84470323		Pictures/IA50_G40.bmp	Pictures/IA50_G40.bmp	Pictures/IA50.bmp	"It would probably be best to play it safe."""""	0	safe					1	0	1	0	0	19	19	15																															1272.99077	None	1275.012768	1276.533444	1276.516735	None	1278.070795	None	2	1280.042703	None	1280.042703	None	1280.042703	None	None	None	None	None	1281.479822	None	1281.479822	None	left	1281.479822	None	1282.014569	1283.485109	None	None	1.241516135	0.500388182													102	1	18	1	2019_Dec_04_1211	Test	3.2.4	59.84470323												1	0	1	0																																																																									1283.652219	None	return	6.239982459	1283.652219	None	102	1	18	1	2019_Dec_04_1211	Test	3.2.4	59.84470323		Pictures/IA100_L40.bmp	Pictures/IA100_L40.bmp	Pictures/IA100.bmp	"Think of the payoff"	1	risk					2	0	2	0	0	0	0	18													1290.085848	None	1290.085848	None	1290.085848	None	left	1.958358556	1290.085848	None	1290.085848	None	1290.085848	None	return	3.886144094	1290.085848	None	1294.029579	None	1296.034867	1297.555541	1297.538835	None	1299.09293	None	1	1301.048089	None	1301.048089	None	1301.048089	None	1302.334824	None	1302.334824	1303.337459	1304.440368	None	1304.440368	None	right	1304.440368	None	None	None	1305.30932	1306.44565	1.156132217	0.827855352													102	1	18	1	2019_Dec_04_1211	Test	3.2.4	59.84470323		Pictures/IA100_G40.bmp	Pictures/IA100_G40.bmp	Pictures/IA100.bmp	"Try your luck and gamble!"""""	1	risk					2	0	2	0	0	1	1	15																															1306.462362	None	1308.484368	1310.005034	1309.988372	None	1311.492296	None	1	1313.51429	None	1313.51429	None	1313.51429	None	1314.801019	None	1314.801019	1315.803654	1316.906569	None	1316.906569	None	left	1316.906569	None	1318.042892	None	None	None	1.169926411	1.089643848													102	1	18	1	2019_Dec_04_1211	Test	3.2.4	59.84470323		Pictures/IA25_G10.bmp	Pictures/IA25_G10.bmp	Pictures/IA25.bmp	"What's life without a little risk?"""""	1	risk					2	0	2	0	0	2	2	11																															1318.928566	None	1320.950567	1322.471246	1322.454534	None	1324.025342	None	1	1325.980493	None	1325.980493	None	1325.980493	None	1326.933023	None	1326.933023	1327.935644	1329.038563	None	1329.038563	None	right	1329.038563	None	None	None	1329.940934	1331.043839	0.831720682	0.853648917													102	1	18	1	2019_Dec_04_1211	Test	3.2.4	59.84470323		Pictures/IA25_G15.bmp	Pictures/IA25_G15.bmp	Pictures/IA25.bmp	"I think you should take a gamble."""""	1	risk					2	0	2	0	0	3	3	6																															1331.06055	None	1333.082548	1334.603221	1334.586521	None	1336.174034	None	1	1338.112478	None	1338.112478	None	1338.112478	None	1339.148544	None	1339.148544	1340.151181	1341.254101	None	1341.254101	None	right	1341.254101	None	None	None	1341.621726	1343.242665	0.907741833	0.334100082													102	1	18	1	2019_Dec_04_1211	Test	3.2.4	59.84470323		Pictures/IA50_G20.bmp	Pictures/IA50_G20.bmp	Pictures/IA50.bmp	"Let's venture and take a risk!"""""	1	risk					2	0	2	0	0	4	4	10																															1343.259376	None	1345.281381	1346.802048	1346.785354	None	1348.322732	None	1	1350.311306	None	1350.311306	None	1350.311306	None	1350.979741	None	1350.979741	1351.982372	1353.085286	None	1353.085286	None	right	1353.085286	None	None	None	1354.07122	None	0.564923704	0.95093285													102	1	18	1	2019_Dec_04_1211	Test	3.2.4	59.84470323		Pictures/IA75_G60.bmp	Pictures/IA75_G60.bmp	Pictures/IA75.bmp	"Make it exciting"	1	risk					2	0	2	0	0	5	5	17																															1355.09057	None	1357.112565	1358.63324	1358.616534	None	1360.137207	None	2	1362.142495	None	1362.142495	None	1362.142495	None	None	None	None	None	1363.212135	None	1363.212135	None	left	1363.212135	None	1363.546198	1365.217264	None	None	0.877724219	0.296064086													102	1	18	1	2019_Dec_04_1211	Test	3.2.4	59.84470323		Pictures/IA25_L15.bmp	Pictures/IA25_L15.bmp	Pictures/IA25.bmp	"There's not much on the line here"	1	risk					2	0	2	0	0	6	6	5																															1365.233973	None	1367.255981	1368.776654	1368.75994	None	1370.280614	None	2	1372.285905	None	1372.285905	None	1372.285905	None	None	None	None	None	1373.238415	None	1373.238415	None	right	1373.238415	None	None	None	1373.52249	1375.226983	0.78232299	0.237807087													102	1	18	1	2019_Dec_04_1211	Test	3.2.4	59.84470323		Pictures/IA20_10_G95p.bmp	Pictures/IA20_10_G95p.bmp	Pictures/IA20.bmp	"Take a leap"	1	risk					2	0	2	0	0	7	7	9																															1375.243695	None	1377.282422	1378.803078	1378.786374	None	1380.290333	None	2	1382.29563	None	1382.29563	None	1382.29563	None	None	None	None	None	1383.582351	None	1383.582351	None	left	1383.582351	None	1383.833016	1385.570919	None	None	1.11658105	0.205865869													102	1	18	1	2019_Dec_04_1211	Test	3.2.4	59.84470323		Pictures/IA40_20_G95p.bmp	Pictures/IA40_20_G95p.bmp	Pictures/IA40.bmp	"Hold back"	0	safe					2	0	2	0	0	8	8	7																															1385.587631	None	1387.609627	1389.130302	1389.113595	None	1390.634268	None	2	1392.639519	None	1392.639519	None	1392.639519	None	None	None	None	None	1393.592066	None	1393.592066	None	left	1393.592066	None	1394.260493	1395.597347	None	None	0.772713873	0.620158696													102	1	18	1	2019_Dec_04_1211	Test	3.2.4	59.84470323		Pictures/IA80_40_L95p.bmp	Pictures/IA80_40_L95p.bmp	Pictures/IA80.bmp	"Let's stay with the certain option."""""	0	safe					2	0	2	0	0	9	9	4																															1395.614059	None	1397.652733	1399.173447	1399.156741	None	1400.643985	None	2	1402.665985	None	1402.665985	None	1402.665985	None	None	None	None	None	1403.952708	None	1403.952708	None	right	1403.952708	None	None	None	1404.303635	1405.941295	1.114253699	0.307516495													102	1	18	1	2019_Dec_04_1211	Test	3.2.4	59.84470323		Pictures/IA50_L30.bmp	Pictures/IA50_L30.bmp	Pictures/IA50.bmp	"Take a leap"	1	risk					2	0	2	0	0	10	10	1																															1405.957993	None	1407.97999	1409.500664	1409.483954	None	1411.02134	None	1	1413.009917	None	1413.009917	None	1413.009917	None	1414.5473	None	1414.5473	1415.549946	1416.652852	None	1416.652852	None	right	1416.652852	None	None	None	1417.622075	1418.658139	1.402297464	0.927358005													102	1	18	1	2019_Dec_04_1211	Test	3.2.4	59.84470323		Pictures/IA100_L20.bmp	Pictures/IA100_L20.bmp	Pictures/IA100.bmp	"Try to win as much money as you can"	1	risk					2	0	2	0	0	11	11	16																															1418.674843	None	1420.696848	1422.217519	1422.200807	None	1423.738198	None	2	1425.72677	None	1425.72677	None	1425.72677	None	None	None	None	None	1426.746127	None	1426.746127	None	left	1426.746127	None	1427.414547	1428.751407	None	None	0.829446999	0.634096163													102	1	18	1	2019_Dec_04_1211	Test	3.2.4	59.84470323		Pictures/IA100_L60.bmp	Pictures/IA100_L60.bmp	Pictures/IA100.bmp	"You'd have a lot to lose"	0	safe					2	0	2	0	0	12	12	19																															1428.768118	None	1430.790114	1432.310785	1432.294078	None	1433.831467	None	1	1435.820048	None	1435.820048	None	1435.820048	None	1437.30729	None	1437.30729	1438.309936	1439.412843	None	1439.412843	None	right	1439.412843	None	None	None	1440.966942	None	1.34416587	1.511367441													102	1	18	1	2019_Dec_04_1211	Test	3.2.4	59.84470323		Pictures/IA25_G20.bmp	Pictures/IA25_G20.bmp	Pictures/IA25.bmp	"I wouldn't gamble for this one. """""	0	safe					2	0	2	0	0	13	13	3																															1441.418123	None	1443.440126	1444.960793	1444.944087	None	1446.44805	None	2	1448.470047	None	1448.470047	None	1448.470047	None	None	None	None	None	1450.141117	None	1450.141117	None	left	1450.141117	None	1450.976649	1452.146401	None	None	1.510182793	0.799089205													102	1	18	1	2019_Dec_04_1211	Test	3.2.4	59.84470323		Pictures/IA25_L10.bmp	Pictures/IA25_L10.bmp	Pictures/IA25.bmp	"Dont be afraid to take the risk!"""""	1	risk					2	0	2	0	0	14	14	12																															1452.16311	None	1454.185106	1455.70578	1455.689073	None	1457.243165	None	1	1459.215039	None	1459.215039	None	1459.215039	None	1460.652158	None	1460.652158	1461.654793	1462.757702	None	1462.757702	None	right	1462.757702	None	None	None	1463.225562	1464.762992	1.317173041	0.422512328													102	1	18	1	2019_Dec_04_1211	Test	3.2.4	59.84470323		Pictures/IA100_G60.bmp	Pictures/IA100_G60.bmp	Pictures/IA100.bmp	"Be cautious"	0	safe					2	0	2	0	0	15	15	0																															1464.779695	None	1466.801702	1468.322367	1468.305661	None	1469.859758	None	1	1471.831621	None	1471.831621	None	1471.831621	None	1472.633739	None	1472.633739	1473.636371	1474.739281	None	1474.739281	None	left	1474.739281	None	1475.207192	1476.74457	None	None	0.652597088	0.432927536													102	1	18	1	2019_Dec_04_1211	Test	3.2.4	59.84470323		Pictures/IA80_40_G95p.bmp	Pictures/IA80_40_G95p.bmp	Pictures/IA80.bmp	"Think of the payoff"	1	risk					2	0	2	0	0	16	16	14																															1476.761274	None	1478.783276	1480.303943	1480.287237	None	1481.858043	None	2	1483.813199	None	1483.813199	None	1483.813199	None	None	None	None	None	1485.55111	None	1485.55111	None	left	1485.55111	None	1487.071782	None	None	None	1.567012777	1.477111196													102	1	18	1	2019_Dec_04_1211	Test	3.2.4	59.84470323		Pictures/IA25_G5.bmp	Pictures/IA25_G5.bmp	Pictures/IA25.bmp	"Let's stay with the certain option."""""	0	safe					2	0	2	0	0	17	17	8																															1487.556382	None	1489.578394	1491.099062	1491.082354	None	1492.603029	None	2	1494.60832	None	1494.60832	None	1494.60832	None	None	None	None	None	1496.39636	None	1496.39636	None	right	1496.39636	None	None	None	1496.814125	1498.384931	1.619898667	0.3838582													102	1	18	1	2019_Dec_04_1211	Test	3.2.4	59.84470323		Pictures/IA50_G30.bmp	Pictures/IA50_G30.bmp	Pictures/IA50.bmp	"I think you should gamble."""""	1	risk					2	0	2	0	0	18	18	2																															1498.401642	None	1500.423644	1501.944311	1501.927612	None	1503.448279	None	1	1505.453571	None	1505.453571	None	1505.453571	None	1506.322489	None	1506.322489	1507.325159	1508.428071	None	1508.428071	None	right	1508.428071	None	None	None	1509.43071	None	0.758649873	0.968140941													102	1	18	1	2019_Dec_04_1211	Test	3.2.4	59.84470323		Pictures/IA110_55_L95p.bmp	Pictures/IA110_55_L95p.bmp	Pictures/IA110.bmp	"Trust me"	1	risk					2	0	2	0	0	19	19	13																															1510.450062	None	1512.472074	1513.99274	1513.976028	None	1515.530126	None	2	1517.501987	None	1517.501987	None	1517.501987	None	None	None	None	None	1518.387651	None	1518.387651	None	right	1518.387651	None	None	None	1518.788706	1520.392939	0.734228387	0.360557053													102	1	18	1	2019_Dec_04_1211	Test	3.2.4	59.84470323												2	0	2	0																																																																									1520.576766	None	return	5.587431183	1520.576766	None	102	1	18	1	2019_Dec_04_1211	Test	3.2.4	59.84470323		Pictures/IA75_L45.bmp	Pictures/IA75_L45.bmp	Pictures/IA75.bmp	"Don't gamble for this one"	0	safe					3	0	3	0	0	0	0	9													1526.325251	None	1526.325251	None	1526.325251	None	left	1.99095991	1526.325251	None	1526.325251	None	1526.325251	None	return	3.19872913	1526.325251	None	1529.583825	None	1531.58911	1533.109785	1533.093081	None	1534.630468	None	1	1536.602325	None	1536.602325	None	1536.602325	None	1537.337597	None	1537.337597	1538.340247	1539.44316	None	1539.44316	None	left	1539.44316	None	1540.863553	None	None	None	0.585899048	1.385052053													102	1	18	1	2019_Dec_04_1211	Test	3.2.4	59.84470323		Pictures/IA40_20_G95p.bmp	Pictures/IA40_20_G95p.bmp	Pictures/IA40.bmp	"Hold back"	0	safe					3	0	3	0	0	1	1	7																															1541.448427	None	1543.470425	1544.991095	1544.974396	None	1546.495061	None	2	1548.50035	None	1548.50035	None	1548.50035	None	None	None	None	None	1549.319174	None	1549.319174	None	left	1549.319174	None	1549.753648	1551.324455	None	None	0.639870807	0.389041034													102	1	18	1	2019_Dec_04_1211	Test	3.2.4	59.84470323		Pictures/IA50_L30.bmp	Pictures/IA50_L30.bmp	Pictures/IA50.bmp	"Take a leap"	1	risk					3	0	3	0	0	2	2	13																															1551.341171	None	1553.363194	1554.883837	1554.867134	None	1556.371097	None	1	1558.393097	None	1558.393097	None	1558.393097	None	1559.529421	None	1559.529421	1560.532062	1561.651679	None	1561.651679	None	right	1561.651679	None	None	None	1562.136319	1563.640253	0.99511681	0.440548199													102	1	18	1	2019_Dec_04_1211	Test	3.2.4	59.84470323		Pictures/IA75_L30.bmp	Pictures/IA75_L30.bmp	Pictures/IA75.bmp	"Hold back"	0	safe					3	0	3	0	0	3	3	4																															1563.656958	None	1565.678953	1567.199627	1567.182921	None	1568.737017	None	2	1570.708886	None	1570.708886	None	1570.708886	None	None	None	None	None	1571.611259	None	1571.611259	None	right	1571.611259	None	None	None	1571.978891	1573.599834	0.727333781	0.328973392													102	1	18	1	2019_Dec_04_1211	Test	3.2.4	59.84470323		Pictures/IA25_G5.bmp	Pictures/IA25_G5.bmp	Pictures/IA25.bmp	"Let's stay with the certain option."""""	0	safe					3	0	3	0	0	4	4	3																															1573.616539	None	1575.638542	1577.159223	1577.142502	None	1578.663183	None	1	1580.66848	None	1580.66848	None	1580.66848	None	1582.189139	None	1582.189139	1583.191824	1584.311397	None	1584.311397	None	left	1584.311397	None	1584.829437	1586.299967	None	None	1.383732741	0.468816784													102	1	18	1	2019_Dec_04_1211	Test	3.2.4	59.84470323		Pictures/IA100_L40.bmp	Pictures/IA100_L40.bmp	Pictures/IA100.bmp	"Think of the payoff"	1	risk					3	0	3	0	0	5	5	12																															1586.316679	None	1588.355391	1589.859349	1589.842643	None	1591.380023	None	1	1593.368601	None	1593.368601	None	1593.368601	None	1594.321113	None	1594.321113	1595.323761	1596.443371	None	1596.443371	None	right	1596.443371	None	None	None	1596.861142	1598.431944	0.827636035	0.376855261													102	1	18	1	2019_Dec_04_1211	Test	3.2.4	59.84470323		Pictures/IA75_L60.bmp	Pictures/IA75_L60.bmp	Pictures/IA75.bmp	"Why not take the gamble?"""""	1	risk					3	0	3	0	0	6	6	10																															1598.448653	None	1600.470657	1601.991327	1601.974623	None	1603.528717	None	1	1605.500578	None	1605.500578	None	1605.500578	None	1605.918343	None	1605.918343	1606.920983	1608.023895	None	1608.023895	None	right	1608.023895	None	None	None	1608.69233	1610.029174	0.311639801	0.628334359													102	1	18	1	2019_Dec_04_1211	Test	3.2.4	59.84470323		Pictures/IA25_G15.bmp	Pictures/IA25_G15.bmp	Pictures/IA25.bmp	"I think you should take a gamble."""""	1	risk					3	0	3	0	0	7	7	2																															1610.045886	None	1612.067882	1613.588557	1613.571864	None	1615.109243	None	1	1617.097808	None	1617.097808	None	1617.097808	None	1618.083742	None	1618.083742	1619.086377	1620.18929	None	1620.18929	None	right	1620.18929	None	None	None	1620.523506	1622.194577	0.858424361	0.294913694													102	1	18	1	2019_Dec_04_1211	Test	3.2.4	59.84470323		Pictures/IA25_L10.bmp	Pictures/IA25_L10.bmp	Pictures/IA25.bmp	"Dont be afraid to take the risk!"""""	1	risk					3	0	3	0	0	8	8	5																															1622.211281	None	1624.233279	1625.753952	1625.737245	None	1627.274628	None	2	1629.263211	None	1629.263211	None	1629.263211	None	None	None	None	None	1630.733747	None	1630.733747	None	right	1630.733747	None	None	None	1631.56928	1632.739026	1.316997492	0.798470677													102	1	18	1	2019_Dec_04_1211	Test	3.2.4	59.84470323		Pictures/IA80_40_L95p.bmp	Pictures/IA80_40_L95p.bmp	Pictures/IA80.bmp	"Let's stay with the certain option."""""	0	safe					3	0	3	0	0	9	9	15																															1632.755748	None	1634.811164	1636.315126	1636.298413	None	1637.852506	None	2	1639.807667	None	1639.807667	None	1639.807667	None	None	None	None	None	1640.910568	None	1640.910568	None	right	1640.910568	None	None	None	1641.261504	1642.899143	0.924550803	0.301648008													102	1	18	1	2019_Dec_04_1211	Test	3.2.4	59.84470323		Pictures/IA100_G40.bmp	Pictures/IA100_G40.bmp	Pictures/IA100.bmp	"Try your luck and gamble!"""""	1	risk					3	0	3	0	0	10	10	18																															1642.915856	None	1644.937854	1646.458524	1646.441821	None	1647.995907	None	1	1649.96778	None	1649.96778	None	1649.96778	None	1650.519236	None	1650.519236	1651.521864	1652.624777	None	1652.624777	None	None	1652.624777	None	None	None	None	None	0.436431806														102	1	18	1	2019_Dec_04_1211	Test	3.2.4	59.84470323		Pictures/IA50_G40.bmp	Pictures/IA50_G40.bmp	Pictures/IA50.bmp	"It would probably be best to play it safe."""""	0	safe					3	0	3	0	0	11	11	14																															1654.630059	None	1656.65206	1658.172729	1658.156019	None	1659.710116	None	2	1661.681986	None	1661.681986	None	1661.681986	None	None	None	None	None	1662.350415	None	1662.350415	None	left	1662.350415	None	1662.634498	1664.338977	None	None	0.474228908	0.237794742													102	1	18	1	2019_Dec_04_1211	Test	3.2.4	59.84470323		Pictures/IA50_L20.bmp	Pictures/IA50_L20.bmp	Pictures/IA50.bmp	"Certainty is boring"	1	risk					3	0	3	0	0	12	12	6																															1664.355691	None	1666.377688	1667.898368	1667.881657	None	1669.469182	None	1	1671.407648	None	1671.407648	None	1671.407648	None	1672.276605	None	1672.276605	1673.279227	1674.415542	None	1674.415542	None	right	1674.415542	None	None	None	1675.134176	1676.420876	0.748565371	0.668666761													102	1	18	1	2019_Dec_04_1211	Test	3.2.4	59.84470323		Pictures/IA20_10_G95p.bmp	Pictures/IA20_10_G95p.bmp	Pictures/IA20.bmp	"Take a leap"	1	risk					3	0	3	0	0	13	13	1																															1676.43761	None	1678.476286	1679.980205	1679.963515	None	1681.517593	None	2	1683.489459	None	1683.489459	None	1683.489459	None	None	None	None	None	1684.141176	None	1684.141176	None	left	1684.141176	None	1684.542238	1686.129747	None	None	0.482770743	0.367028494													102	1	18	1	2019_Dec_04_1211	Test	3.2.4	59.84470323		Pictures/IA100_G20.bmp	Pictures/IA100_G20.bmp	Pictures/IA100.bmp	"Go ahead and gamble!"""""	1	risk					3	0	3	0	0	14	14	16																															1686.146457	None	1688.16846	1689.68913	1689.67243	None	1691.226514	None	2	1693.198384	None	1693.198384	None	1693.198384	None	None	None	None	None	1694.969722	None	1694.969722	None	left	1694.969722	None	1695.354058	1696.958286	None	None	1.613848082	0.346495575													102	1	18	1	2019_Dec_04_1211	Test	3.2.4	59.84470323		Pictures/IA50_L40.bmp	Pictures/IA50_L40.bmp	Pictures/IA50.bmp	"That gamble doesn't sound too good"	0	safe					3	0	3	0	0	15	15	8																															1696.975016	None	1698.996994	1700.51767	1700.500967	None	1702.055055	None	2	1704.026924	None	1704.026924	None	1704.026924	None	None	None	None	None	1705.062984	None	1705.062984	None	right	1705.062984	None	None	None	1706.299577	None	0.849301011	1.197231787													102	1	18	1	2019_Dec_04_1211	Test	3.2.4	59.84470323		Pictures/IA100_G80.bmp	Pictures/IA100_G80.bmp	Pictures/IA100.bmp	"Why not gamble?"""""	1	risk					3	0	3	0	0	16	16	0																															1707.084979	None	1709.106974	1710.627653	1710.61094	None	1712.181749	None	2	1714.136907	None	1714.136907	None	1714.136907	None	None	None	None	None	1715.82469	None	1715.82469	None	left	1715.82469	None	1717.061273	None	None	None	1.523318283	1.187519541													102	1	18	1	2019_Dec_04_1211	Test	3.2.4	59.84470323		Pictures/IA75_G30.bmp	Pictures/IA75_G30.bmp	Pictures/IA75.bmp	"Be bold"	1	risk					3	0	3	0	0	17	17	11																															1717.846677	None	1719.868675	1721.389351	1721.372641	None	1722.926744	None	1	1724.898601	None	1724.898601	None	1724.898601	None	1726.101771	None	1726.101771	1727.10441	1728.207321	None	1728.207321	None	right	1728.207321	None	None	None	1728.625089	1730.195905	1.105635255	0.380881378													102	1	18	1	2019_Dec_04_1211	Test	3.2.4	59.84470323		Pictures/IA40_20_L95p.bmp	Pictures/IA40_20_L95p.bmp	Pictures/IA40.bmp	"Trust me"	1	risk					3	0	3	0	0	18	18	19																															1730.212604	None	1732.2346	1733.755273	1733.738568	None	1735.29266	None	2	1737.264532	None	1737.264532	None	1737.264532	None	None	None	None	None	1738.100069	None	1738.100069	None	right	1738.100069	None	None	None	1738.36743	1740.105345	0.683697381	0.232140191													102	1	18	1	2019_Dec_04_1211	Test	3.2.4	59.84470323		Pictures/IA80_40_G95p.bmp	Pictures/IA80_40_G95p.bmp	Pictures/IA80.bmp	"Think of the payoff"	1	risk					3	0	3	0	0	19	19	17																															1740.122053	None	1742.144052	1743.664726	1743.648028	None	1745.185408	None	2	1747.17398	None	1747.17398	None	1747.17398	None	None	None	None	None	1747.825703	None	1747.825703	None	left	1747.825703	None	1748.10978	1749.814273	None	None	0.454240729	0.25049804													102	1	18	1	2019_Dec_04_1211	Test	3.2.4	59.84470323												3	0	3	0																																																																									1749.981378	None	return	2.67079476	1749.981378	None	102	1	18	1	2019_Dec_04_1211	Test	3.2.4	59.84470323		Pictures/IA80_40_L95p.bmp	Pictures/IA80_40_L95p.bmp	Pictures/IA80.bmp	"Let's stay with the certain option."""""	0	safe					4	0	4	0	0	0	0	18													1752.838908	None	1752.838908	None	1752.838908	None	left	1.445300732	1752.838908	None	1752.838908	None	1752.838908	None	return	2.549085637	1752.838908	None	1755.445786	None	1757.434356	1758.955027	1758.938325	None	1760.442282	None	2	1762.464287	None	1762.464287	None	1762.464287	None	None	None	None	None	1762.999021	None	1762.999021	None	right	1762.999021	None	None	None	1763.316522	1764.987598	0.339933243	0.27719122													102	1	18	1	2019_Dec_04_1211	Test	3.2.4	59.84470323		Pictures/IA20_10_L95p.bmp	Pictures/IA20_10_L95p.bmp	Pictures/IA20.bmp	"Don't be tempted to gamble."""""	0	safe					4	0	4	0	0	1	1	0																															1765.00431	None	1767.0263	1768.546976	1768.530267	None	1770.084359	None	2	1772.056235	None	1772.056235	None	1772.056235	None	None	None	None	None	1772.65778	None	1772.65778	None	right	1772.65778	None	None	None	1773.025447	1774.663098	0.443988778	0.330448511													102	1	18	1	2019_Dec_04_1211	Test	3.2.4	59.84470323		Pictures/IA80_40_G95p.bmp	Pictures/IA80_40_G95p.bmp	Pictures/IA80.bmp	"Think of the payoff"	1	risk					4	0	4	0	0	2	2	19																															1774.679807	None	1776.701811	1778.205767	1778.189067	None	1779.709734	None	2	1781.731731	None	1781.731731	None	1781.731731	None	None	None	None	None	1782.433585	None	1782.433585	None	left	1782.433585	None	1783.636752	None	None	None	0.512479003	1.15461969													102	1	18	1	2019_Dec_04_1211	Test	3.2.4	59.84470323		Pictures/IA110_55_L95p.bmp	Pictures/IA110_55_L95p.bmp	Pictures/IA110.bmp	"Trust me"	1	risk					4	0	4	0	0	3	3	14																															1784.455576	None	1786.510998	1788.014956	1787.998249	None	1789.51892	None	2	1791.507494	None	1791.507494	None	1791.507494	None	None	None	None	None	1793.529494	None	1793.529494	None	right	1793.529494	None	None	None	1794.064232	1795.534775	1.848722473	0.498724858													102	1	18	1	2019_Dec_04_1211	Test	3.2.4	59.84470323		Pictures/IA75_L30.bmp	Pictures/IA75_L30.bmp	Pictures/IA75.bmp	"Hold back"	0	safe					4	0	4	0	0	4	4	9																															1795.551488	None	1797.573484	1799.094159	1799.077451	None	1800.581414	None	2	1802.603417	None	1802.603417	None	1802.603417	None	None	None	None	None	1804.023822	None	1804.023822	None	left	1804.023822	None	1804.341322	1806.012389	None	None	1.208801494	0.268393794													102	1	18	1	2019_Dec_04_1211	Test	3.2.4	59.84470323		Pictures/IA25_G5.bmp	Pictures/IA25_G5.bmp	Pictures/IA25.bmp	"Let's stay with the certain option."""""	0	safe					4	0	4	0	0	5	5	4																															1806.029104	None	1808.051101	1809.571774	1809.555068	None	1811.075741	None	2	1813.081035	None	1813.081035	None	1813.081035	None	None	None	None	None	1813.983408	None	1813.983408	None	right	1813.983408	None	None	None	1814.752106	1815.988697	0.699180499	0.724800767													102	1	18	1	2019_Dec_04_1211	Test	3.2.4	59.84470323		Pictures/IA25_G20.bmp	Pictures/IA25_G20.bmp	Pictures/IA25.bmp	"I wouldn't gamble for this one. """""	0	safe					4	0	4	0	0	6	6	16																															1816.0054	None	1818.027401	1819.548076	1819.531362	None	1821.085458	None	2	1823.057331	None	1823.057331	None	1823.057331	None	None	None	None	None	1824.176941	None	1824.176941	None	left	1824.176941	None	1824.527868	1826.182226	None	None	0.946892944	0.315262915													102	1	18	1	2019_Dec_04_1211	Test	3.2.4	59.84470323		Pictures/IA50_G10.bmp	Pictures/IA50_G10.bmp	Pictures/IA50.bmp	"Go with the safe option here!"""""	0	safe					4	0	4	0	0	7	7	13																															1826.198932	None	1828.220932	1829.741615	1829.724898	None	1831.278998	None	1	1833.250859	None	1833.250859	None	1833.250859	None	1834.337065	None	1834.337065	1835.33972	1836.459316	None	1836.459316	None	left	1836.459316	None	1837.261428	1838.4646	None	None	0.953361423	0.752888203													102	1	18	1	2019_Dec_04_1211	Test	3.2.4	59.84470323		Pictures/IA50_L20.bmp	Pictures/IA50_L20.bmp	Pictures/IA50.bmp	"Certainty is boring"	1	risk					4	0	4	0	0	8	8	15																															1838.481307	None	1840.50331	1842.023979	1842.007273	None	1843.511235	None	2	1845.533235	None	1845.533235	None	1845.533235	None	None	None	None	None	1846.418909	None	1846.418909	None	left	1846.418909	None	1847.170879	1848.407471	None	None	0.710984491	0.713299753													102	1	18	1	2019_Dec_04_1211	Test	3.2.4	59.84470323		Pictures/IA25_L15.bmp	Pictures/IA25_L15.bmp	Pictures/IA25.bmp	"There's not much on the line here"	1	risk					4	0	4	0	0	9	9	7																															1848.424182	None	1850.446181	1851.966855	1851.950157	None	1853.504241	None	1	1855.47611	None	1855.47611	None	1855.47611	None	1856.612396	None	1856.612396	1857.615075	1858.717991	None	1858.717991	None	right	1858.717991	None	None	None	1859.670493	1860.706557	1.000114251	0.918223108													102	1	18	1	2019_Dec_04_1211	Test	3.2.4	59.84470323		Pictures/IA40_20_L95p.bmp	Pictures/IA40_20_L95p.bmp	Pictures/IA40.bmp	"Trust me"	1	risk					4	0	4	0	0	10	10	3																															1860.723266	None	1862.745267	1864.265959	1864.249234	None	1865.753195	None	2	1867.775197	None	1867.775197	None	1867.775197	None	None	None	None	None	1868.393494	None	1868.393494	None	right	1868.393494	None	None	None	1868.644147	1870.382059	0.453015454	0.202721711													102	1	18	1	2019_Dec_04_1211	Test	3.2.4	59.84470323		Pictures/IA100_G20.bmp	Pictures/IA100_G20.bmp	Pictures/IA100.bmp	"Go ahead and gamble!"""""	1	risk					4	0	4	0	0	11	11	5																															1870.398771	None	1872.420767	1873.94145	1873.92474	None	1875.428701	None	2	1877.450704	None	1877.450704	None	1877.450704	None	None	None	None	None	1878.637162	None	1878.637162	None	left	1878.637162	None	1878.904525	1880.642439	None	None	1.033514597	0.223054798													102	1	18	1	2019_Dec_04_1211	Test	3.2.4	59.84470323		Pictures/IA25_L20.bmp	Pictures/IA25_L20.bmp	Pictures/IA25.bmp	"Don't be tempted to gamble."""""	0	safe					4	0	4	0	0	12	12	11																															1880.659153	None	1882.681148	1884.201825	1884.185117	None	1885.739206	None	2	1887.711075	None	1887.711075	None	1887.711075	None	None	None	None	None	1890.117414	None	1890.117414	None	right	1890.117414	None	None	None	1890.501763	1892.106001	2.237151621	0.350796642													102	1	18	1	2019_Dec_04_1211	Test	3.2.4	59.84470323		Pictures/IA50_L40.bmp	Pictures/IA50_L40.bmp	Pictures/IA50.bmp	"That gamble doesn't sound too good"	0	safe					4	0	4	0	0	13	13	17																															1892.122697	None	1894.144697	1895.665371	1895.648666	None	1897.152631	None	2	1899.174626	None	1899.174626	None	1899.174626	None	None	None	None	None	1900.377795	None	1900.377795	None	right	1900.377795	None	None	None	1900.845708	1902.383087	1.029588825	0.426430379													102	1	18	1	2019_Dec_04_1211	Test	3.2.4	59.84470323		Pictures/IA100_L20.bmp	Pictures/IA100_L20.bmp	Pictures/IA100.bmp	"Try to win as much money as you can"	1	risk					4	0	4	0	0	14	14	10																															1902.399787	None	1904.421785	1905.942462	1905.925753	None	1907.479847	None	1	1909.451713	None	1909.451713	None	1909.451713	None	1909.953035	None	1909.953035	1910.955672	1912.075296	None	1912.075296	None	right	1912.075296	None	None	None	1913.44557	None	0.360504075	1.336917024													102	1	18	1	2019_Dec_04_1211	Test	3.2.4	59.84470323		Pictures/IA100_L60.bmp	Pictures/IA100_L60.bmp	Pictures/IA100.bmp	"You'd have a lot to lose"	0	safe					4	0	4	0	0	15	15	8																															1914.097286	None	1916.119286	1917.639963	1917.623252	None	1919.177346	None	2	1921.149215	None	1921.149215	None	1921.149215	None	None	None	None	None	1922.25212	None	1922.25212	None	left	1922.25212	None	1923.304892	None	None	None	0.935004766	1.016103914													102	1	18	1	2019_Dec_04_1211	Test	3.2.4	59.84470323		Pictures/IA75_G30.bmp	Pictures/IA75_G30.bmp	Pictures/IA75.bmp	"Be bold"	1	risk					4	0	4	0	0	16	16	6																															1924.257416	None	1926.279402	1927.800074	1927.783369	None	1929.320751	None	2	1931.309334	None	1931.309334	None	1931.309334	None	None	None	None	None	1932.345397	None	1932.345397	None	left	1932.345397	None	1932.89685	1934.33397	None	None	0.878884776	0.514812411													102	1	18	1	2019_Dec_04_1211	Test	3.2.4	59.84470323		Pictures/IA110_55_G95p.bmp	Pictures/IA110_55_G95p.bmp	Pictures/IA110.bmp	"Take a chance!"""""	1	risk					4	0	4	0	0	17	17	12																															1934.350681	None	1936.389388	1937.893343	1937.876639	None	1939.430733	None	2	1941.402606	None	1941.402606	None	1941.402606	None	None	None	None	None	1942.873149	None	1942.873149	None	left	1942.873149	None	1943.157225	1944.861717	None	None	1.30560553	0.235068607													102	1	18	1	2019_Dec_04_1211	Test	3.2.4	59.84470323		Pictures/IA100_G80.bmp	Pictures/IA100_G80.bmp	Pictures/IA100.bmp	"Why not gamble?"""""	1	risk					4	0	4	0	0	18	18	1																															1944.878431	None	1946.900422	1948.421095	1948.404392	None	1949.908361	None	2	1951.930352	None	1951.930352	None	1951.930352	None	None	None	None	None	1952.765891	None	1952.765891	None	left	1952.765891	None	1952.983127	1954.754456	None	None	0.673868296	0.182316548													102	1	18	1	2019_Dec_04_1211	Test	3.2.4	59.84470323		Pictures/IA50_G30.bmp	Pictures/IA50_G30.bmp	Pictures/IA50.bmp	"I think you should gamble."""""	1	risk					4	0	4	0	0	19	19	2																															1954.771165	None	1956.793171	1958.313837	1958.297132	None	1959.851235	None	1	1961.823109	None	1961.823109	None	1961.823109	None	1963.143253	None	1963.143253	1964.145877	1965.248789	None	1965.248789	None	right	1965.248789	None	None	None	1965.833672	1967.237372	1.21310937	0.539431758													102	1	18	1	2019_Dec_04_1211	Test	3.2.4	59.84470323												4	0	4	0																																																																									1967.404473	None	return	3.015734569	1967.404473	None	102	1	18	1	2019_Dec_04_1211	Test	3.2.4	59.84470323		Pictures/IA75_L60.bmp	Pictures/IA75_L60.bmp	Pictures/IA75.bmp	"Why not take the gamble?"""""	1	risk					5	0	5	0	0	0	0	8													1970.596215	None	1970.596215	None	1970.596215	None	left	0.736000497	1970.596215	None	1970.596215	None	1970.596215	None	return	1.551803433	1970.596215	None	1972.18373	None	1974.205735	1975.726404	1975.709696	None	1977.213657	None	2	1979.218955	None	1979.218955	None	1979.218955	None	None	None	None	None	1979.937514	None	1979.937514	None	left	1979.937514	None	1981.541732	None	None	None	0.545273086	1.570691138													102	1	18	1	2019_Dec_04_1211	Test	3.2.4	59.84470323		Pictures/IA50_G30.bmp	Pictures/IA50_G30.bmp	Pictures/IA50.bmp	"I think you should gamble."""""	1	risk					5	0	5	0	0	1	1	9																															1981.9595	None	1983.981497	1985.502173	1985.485464	None	1986.989425	None	2	1989.011426	None	1989.011426	None	1989.011426	None	None	None	None	None	1990.097627	None	1990.097627	None	left	1990.097627	None	1990.481964	1992.086193	None	None	0.896789948	0.346580545													102	1	18	1	2019_Dec_04_1211	Test	3.2.4	59.84470323		Pictures/IA40_20_L95p.bmp	Pictures/IA40_20_L95p.bmp	Pictures/IA40.bmp	"Trust me"	1	risk					5	0	5	0	0	2	2	16																															1992.102901	None	1994.124902	1995.645577	1995.628873	None	1997.132829	None	2	1999.154828	None	1999.154828	None	1999.154828	None	None	None	None	None	2000.12405	None	2000.12405	None	right	2000.12405	None	None	None	2000.424839	2002.129331	0.817389191	0.256164069													102	1	18	1	2019_Dec_04_1211	Test	3.2.4	59.84470323		Pictures/IA20_10_G95p.bmp	Pictures/IA20_10_G95p.bmp	Pictures/IA20.bmp	"Take a leap"	1	risk					5	0	5	0	0	3	3	0																															2002.146045	None	2004.168041	2005.688735	2005.672007	None	2007.19268	None	2	2009.197969	None	2009.197969	None	2009.197969	None	None	None	None	None	2010.618381	None	2010.618381	None	left	2010.618381	None	2010.902459	2012.606949	None	None	1.246259216	0.241833622													102	1	18	1	2019_Dec_04_1211	Test	3.2.4	59.84470323		Pictures/IA50_G10.bmp	Pictures/IA50_G10.bmp	Pictures/IA50.bmp	"Go with the safe option here!"""""	0	safe					5	0	5	0	0	4	4	11																															2012.62366	None	2014.645661	2016.166337	2016.149634	None	2017.653589	None	1	2019.675601	None	2019.675601	None	2019.675601	None	2021.246395	None	2021.246395	2022.249034	2023.385365	None	2023.385365	None	left	2023.385365	None	2024.020369	2025.390659	None	None	1.440620052	0.586847231													102	1	18	1	2019_Dec_04_1211	Test	3.2.4	59.84470323		Pictures/IA25_G15.bmp	Pictures/IA25_G15.bmp	Pictures/IA25.bmp	"I think you should take a gamble."""""	1	risk					5	0	5	0	0	5	5	12																															2025.407357	None	2027.429362	2028.950029	2028.933324	None	2030.470707	None	1	2032.45929	None	2032.45929	None	2032.45929	None	2034.414437	None	2034.414437	2035.417075	2036.519988	None	2036.519988	None	right	2036.519988	None	None	None	2036.971171	2038.508556	1.824926295	0.412226797													102	1	18	1	2019_Dec_04_1211	Test	3.2.4	59.84470323		Pictures/IA100_L20.bmp	Pictures/IA100_L20.bmp	Pictures/IA100.bmp	"Try to win as much money as you can"	1	risk					5	0	5	0	0	6	6	15																															2038.525278	None	2040.547266	2042.067939	2042.051233	None	2043.555201	None	2	2045.577194	None	2045.577194	None	2045.577194	None	None	None	None	None	2046.613263	None	2046.613263	None	right	2046.613263	None	None	None	2046.897337	2048.60183	0.859032395	0.238960628													102	1	18	1	2019_Dec_04_1211	Test	3.2.4	59.84470323		Pictures/IA50_L10.bmp	Pictures/IA50_L10.bmp	Pictures/IA50.bmp	"Play it safe"	0	safe					5	0	5	0	0	7	7	4																															2048.61854	None	2050.640539	2052.161216	2052.144506	None	2053.698604	None	2	2055.670468	None	2055.670468	None	2055.670468	None	None	None	None	None	2057.324828	None	2057.324828	None	right	2057.324828	None	None	None	2057.608905	2059.313398	1.477751569	0.239383425													102	1	18	1	2019_Dec_04_1211	Test	3.2.4	59.84470323		Pictures/IA100_L80.bmp	Pictures/IA100_L80.bmp	Pictures/IA100.bmp	"Go all in!"""""	1	risk					5	0	5	0	0	8	8	1																															2059.330109	None	2061.352105	2062.87278	2062.856069	None	2064.410167	None	2	2066.382038	None	2066.382038	None	2066.382038	None	None	None	None	None	2067.852593	None	2067.852593	None	right	2067.852593	None	None	None	2069.724179	None	1.27818588	1.831633567													102	1	18	1	2019_Dec_04_1211	Test	3.2.4	59.84470323		Pictures/IA50_L20.bmp	Pictures/IA50_L20.bmp	Pictures/IA50.bmp	"Certainty is boring"	1	risk					5	0	5	0	0	9	9	7																															2069.87457	None	2071.896567	2073.417241	2073.400536	None	2074.937929	None	2	2076.926506	None	2076.926506	None	2076.926506	None	None	None	None	None	2078.179813	None	2078.179813	None	right	2078.179813	None	None	None	2078.798095	2080.168399	1.101709577	0.568402965													102	1	18	1	2019_Dec_04_1211	Test	3.2.4	59.84470323		Pictures/IA110_55_G95p.bmp	Pictures/IA110_55_G95p.bmp	Pictures/IA110.bmp	"Take a chance!"""""	1	risk					5	0	5	0	0	10	10	2																															2080.185081	None	2082.207078	2083.72775	2083.711045	None	2085.215008	None	2	2087.237007	None	2087.237007	None	2087.237007	None	None	None	None	None	2088.507026	None	2088.507026	None	left	2088.507026	None	2089.275709	2090.512304	None	None	1.111209279	0.72118799													102	1	18	1	2019_Dec_04_1211	Test	3.2.4	59.84470323		Pictures/IA100_L60.bmp	Pictures/IA100_L60.bmp	Pictures/IA100.bmp	"You'd have a lot to lose"	0	safe					5	0	5	0	0	11	11	13																															2090.529012	None	2092.551009	2094.071682	2094.054979	None	2095.558947	None	2	2097.580939	None	2097.580939	None	2097.580939	None	None	None	None	None	2099.185166	None	2099.185166	None	left	2099.185166	None	2100.154394	2101.190456	None	None	1.415273882	0.923048883													102	1	18	1	2019_Dec_04_1211	Test	3.2.4	59.84470323		Pictures/IA100_G60.bmp	Pictures/IA100_G60.bmp	Pictures/IA100.bmp	"Be cautious"	0	safe					5	0	5	0	0	12	12	3																															2101.20716	None	2103.229159	2104.74983	2104.733122	None	2106.287221	None	2	2108.25909	None	2108.25909	None	2108.25909	None	None	None	None	None	2110.39806	None	2110.39806	None	left	2110.39806	None	2111.200171	2112.403338	None	None	1.961130337	0.766148858													102	1	18	1	2019_Dec_04_1211	Test	3.2.4	59.84470323		Pictures/IA75_G15.bmp	Pictures/IA75_G15.bmp	Pictures/IA75.bmp	"Take a chance!"""""	1	risk					5	0	5	0	0	13	13	6																															2112.420047	None	2114.442046	2115.962726	2115.946019	None	2117.50011	None	2	2119.471981	None	2119.471981	None	2119.471981	None	None	None	None	None	2120.157124	None	2120.157124	None	right	2120.157124	None	None	None	2121.193179	None	0.516228763	0.999083202													102	1	18	1	2019_Dec_04_1211	Test	3.2.4	59.84470323		Pictures/IA40_20_G95p.bmp	Pictures/IA40_20_G95p.bmp	Pictures/IA40.bmp	"Hold back"	0	safe					5	0	5	0	0	14	14	18																															2122.179105	None	2124.201105	2125.721777	2125.705077	None	2127.225748	None	2	2129.231032	None	2129.231032	None	2129.231032	None	None	None	None	None	2130.250386	None	2130.250386	None	left	2130.250386	None	2130.818561	2132.255667	None	None	0.837186676	0.52982164													102	1	18	1	2019_Dec_04_1211	Test	3.2.4	59.84470323		Pictures/IA25_L15.bmp	Pictures/IA25_L15.bmp	Pictures/IA25.bmp	"There's not much on the line here"	1	risk					5	0	5	0	0	15	15	14																															2132.272378	None	2134.294375	2135.815052	2135.798344	None	2137.302305	None	1	2139.324308	None	2139.324308	None	2139.324308	None	2140.193293	None	2140.193293	2141.195897	2142.298812	None	2142.298812	None	right	2142.298812	None	None	None	2142.800129	2144.287388	0.711907583	0.465397739													102	1	18	1	2019_Dec_04_1211	Test	3.2.4	59.84470323		Pictures/IA50_G20.bmp	Pictures/IA50_G20.bmp	Pictures/IA50.bmp	"Let's venture and take a risk!"""""	1	risk					5	0	5	0	0	16	16	19																															2144.304091	None	2146.326096	2147.846769	2147.830068	None	2149.384157	None	1	2151.356019	None	2151.356019	None	2151.356019	None	2152.559194	None	2152.559194	2153.561826	2154.681451	None	2154.681451	None	right	2154.681451	None	None	None	2155.032377	2156.686733	1.096218752	0.314753579													102	1	18	1	2019_Dec_04_1211	Test	3.2.4	59.84470323		Pictures/IA75_L45.bmp	Pictures/IA75_L45.bmp	Pictures/IA75.bmp	"Don't gamble for this one"	0	safe					5	0	5	0	0	17	17	17																															2156.703443	None	2158.725444	2160.246117	2160.229409	None	2161.783506	None	1	2163.755369	None	2163.755369	None	2163.755369	None	2164.841565	None	2164.841565	2165.844202	2166.947115	None	2166.947115	None	left	2166.947115	None	2167.247904	2168.9524	None	None	0.944862073	0.265087378													102	1	18	1	2019_Dec_04_1211	Test	3.2.4	59.84470323		Pictures/IA25_G5.bmp	Pictures/IA25_G5.bmp	Pictures/IA25.bmp	"Let's stay with the certain option."""""	0	safe					5	0	5	0	0	18	18	5																															2168.96911	None	2170.991107	2172.511779	2172.495073	None	2174.032455	None	2	2176.021033	None	2176.021033	None	2176.021033	None	None	None	None	None	2177.541707	None	2177.541707	None	right	2177.541707	None	None	None	2178.059735	2179.530281	1.34318456	0.478497922													102	1	18	1	2019_Dec_04_1211	Test	3.2.4	59.84470323		Pictures/IA75_L15.bmp	Pictures/IA75_L15.bmp	Pictures/IA75.bmp	"Trust me"	1	risk					5	0	5	0	0	19	19	10																															2179.546995	None	2181.568987	2183.08966	2183.072956	None	2184.627048	None	2	2186.598914	None	2186.598914	None	2186.598914	None	None	None	None	None	2188.119595	None	2188.119595	None	left	2188.119595	None	2188.971833	2190.108159	None	None	1.357308175	0.812610341													102	1	18	1	2019_Dec_04_1211	Test	3.2.4	59.84470323												5	0	5	0																																																																									2190.275277	None	return	4.248923045	2190.275277	None	102	1	18	1	2019_Dec_04_1211	Test	3.2.4	59.84470323		Pictures/IA50_G10.bmp	Pictures/IA50_G10.bmp	Pictures/IA50.bmp	"Go with the safe option here!"""""	0	safe					6	0	6	0	0	0	0	19													2194.686907	None	2194.686907	None	2194.686907	None	left	1.805306473	2194.686907	None	2194.686907	None	2194.686907	None	return	3.381052483	2194.686907	None	2198.129307	None	2200.134596	2201.655267	2201.638565	None	2203.164037	None	2	2205.14781	None	2205.14781	None	2205.14781	None	None	None	None	None	2205.766103	None	2205.766103	None	left	2205.766103	None	2206.267421	2207.771386	None	None	0.448423413	0.462107166													102	1	18	1	2019_Dec_04_1211	Test	3.2.4	59.84470323		Pictures/IA25_G20.bmp	Pictures/IA25_G20.bmp	Pictures/IA25.bmp	"I wouldn't gamble for this one. """""	0	safe					6	0	6	0	0	1	1	0																															2207.788096	None	2209.810094	2211.330775	2211.314061	None	2212.851444	None	2	2214.840023	None	2214.840023	None	2214.840023	None	None	None	None	None	2215.374767	None	2215.374767	None	left	2215.374767	None	2215.82596	2217.363335	None	None	0.364187042	0.405443152													102	1	18	1	2019_Dec_04_1211	Test	3.2.4	59.84470323		Pictures/IA75_G45.bmp	Pictures/IA75_G45.bmp	Pictures/IA75.bmp	"Don't gamble for this one."""""	0	safe					6	0	6	0	0	2	2	15																															2217.38005	None	2219.402049	2220.922719	2220.906016	None	2222.476831	None	2	2224.431974	None	2224.431974	None	2224.431974	None	None	None	None	None	2225.534881	None	2225.534881	None	left	2225.534881	None	2226.303568	2227.540159	None	None	0.924244573	0.733322354													102	1	18	1	2019_Dec_04_1211	Test	3.2.4	59.84470323		Pictures/IA40_20_L95p.bmp	Pictures/IA40_20_L95p.bmp	Pictures/IA40.bmp	"Trust me"	1	risk					6	0	6	0	0	3	3	1																															2227.556871	None	2229.578869	2231.099542	2231.082837	None	2232.603511	None	2	2234.608801	None	2234.608801	None	2234.608801	None	None	None	None	None	2235.561274	None	2235.561274	None	right	2235.561274	None	None	None	2236.263154	2237.566588	0.779418404	0.658934625													102	1	18	1	2019_Dec_04_1211	Test	3.2.4	59.84470323		Pictures/IA50_G40.bmp	Pictures/IA50_G40.bmp	Pictures/IA50.bmp	"It would probably be best to play it safe."""""	0	safe					6	0	6	0	0	4	4	14																															2237.583299	None	2239.6053	2241.125976	2241.109297	None	2242.629946	None	None	2244.635227	None	2244.635227	None	2244.635227	None	None	None	None	None	2247.776845	None	2247.776845	None	None	2247.776845	None	None	None	None	None															102	1	18	1	2019_Dec_04_1211	Test	3.2.4	59.84470323		Pictures/IA100_G60.bmp	Pictures/IA100_G60.bmp	Pictures/IA100.bmp	"Be cautious"	0	safe					6	0	6	0	0	5	5	8																															2249.782123	None	2251.804116	2253.324792	2253.308089	None	2254.812047	None	2	2256.834052	None	2256.834052	None	2256.834052	None	None	None	None	None	2258.822631	None	2258.822631	None	left	2258.822631	None	2259.106699	2260.811196	None	None	1.818184407	0.245573088													102	1	18	1	2019_Dec_04_1211	Test	3.2.4	59.84470323		Pictures/IA75_G30.bmp	Pictures/IA75_G30.bmp	Pictures/IA75.bmp	"Be bold"	1	risk					6	0	6	0	0	6	6	10																															2260.827914	None	2262.849905	2264.370582	2264.353868	None	2265.89125	None	1	2267.879829	None	2267.879829	None	2267.879829	None	2268.498124	None	2268.498124	2269.500771	2270.603675	None	2270.603675	None	right	2270.603675	None	None	None	2270.988017	2272.592247	0.532382235	0.336547395													102	1	18	1	2019_Dec_04_1211	Test	3.2.4	59.84470323		Pictures/IA20_10_G95p.bmp	Pictures/IA20_10_G95p.bmp	Pictures/IA20.bmp	"Take a leap"	1	risk					6	0	6	0	0	7	7	11																															2272.608955	None	2274.630955	2276.151631	2276.134922	None	2277.638883	None	2	2279.660883	None	2279.660883	None	2279.660883	None	None	None	None	None	2280.86405	None	2280.86405	None	left	2280.86405	None	2281.248396	2282.852631	None	None	1.023344645	0.348161668													102	1	18	1	2019_Dec_04_1211	Test	3.2.4	59.84470323		Pictures/IA100_L20.bmp	Pictures/IA100_L20.bmp	Pictures/IA100.bmp	"Try to win as much money as you can"	1	risk					6	0	6	0	0	8	8	12																															2282.869335	None	2284.891332	2286.412005	2286.395296	None	2287.932687	None	2	2289.921263	None	2289.921263	None	2289.921263	None	None	None	None	None	2290.923903	None	2290.923903	None	left	2290.923903	None	2291.20798	2292.912478	None	None	0.818946817	0.248317279													102	1	18	1	2019_Dec_04_1211	Test	3.2.4	59.84470323		Pictures/IA100_L80.bmp	Pictures/IA100_L80.bmp	Pictures/IA100.bmp	"Go all in!"""""	1	risk					6	0	6	0	0	9	9	4																															2292.929184	None	2294.951184	2296.471856	2296.455148	None	2297.959117	None	1	2299.981112	None	2299.981112	None	2299.981112	None	2301.351386	None	2301.351386	2302.354025	2303.456937	None	2303.456937	None	right	2303.456937	None	None	None	2303.807864	2305.445515	1.295117003	0.30727731													102	1	18	1	2019_Dec_04_1211	Test	3.2.4	59.84470323		Pictures/IA50_G30.bmp	Pictures/IA50_G30.bmp	Pictures/IA50.bmp	"I think you should gamble."""""	1	risk					6	0	6	0	0	10	10	3																															2305.46222	None	2307.484235	2309.004889	2308.988188	None	2310.52557	None	1	2312.51415	None	2312.51415	None	2312.51415	None	2313.282837	None	2313.282837	2314.285473	2315.388395	None	2315.388395	None	right	2315.388395	None	None	None	2315.689182	2317.393669	0.650057187	0.263808861													102	1	18	1	2019_Dec_04_1211	Test	3.2.4	59.84470323		Pictures/IA100_L40.bmp	Pictures/IA100_L40.bmp	Pictures/IA100.bmp	"Think of the payoff"	1	risk					6	0	6	0	0	11	11	2																															2317.410378	None	2319.432376	2320.953052	2320.93635	None	2322.457023	None	2	2324.462309	None	2324.462309	None	2324.462309	None	None	None	None	None	2326.133374	None	2326.133374	None	left	2326.133374	None	2327.804445	None	None	None	1.501904663	1.630844452													102	1	18	1	2019_Dec_04_1211	Test	3.2.4	59.84470323		Pictures/IA80_40_L95p.bmp	Pictures/IA80_40_L95p.bmp	Pictures/IA80.bmp	"Let's stay with the certain option."""""	0	safe					6	0	6	0	0	12	12	7																															2328.155375	None	2330.177365	2331.69804	2331.681337	None	2333.218719	None	2	2335.207294	None	2335.207294	None	2335.207294	None	None	None	None	None	2335.758747	None	2335.758747	None	right	2335.758747	None	None	None	2337.012046	None	0.340942336	1.205472864													102	1	18	1	2019_Dec_04_1211	Test	3.2.4	59.84470323		Pictures/IA100_G20.bmp	Pictures/IA100_G20.bmp	Pictures/IA100.bmp	"Go ahead and gamble!"""""	1	risk					6	0	6	0	0	13	13	5																															2337.764027	None	2339.786025	2341.306699	2341.290001	None	2342.827385	None	1	2344.815971	None	2344.815971	None	2344.815971	None	2345.283852	None	2345.283852	2346.286489	2347.389401	None	2347.389401	None	right	2347.389401	None	None	None	2348.525728	None	0.372252603	1.10279911													102	1	18	1	2019_Dec_04_1211	Test	3.2.4	59.84470323		Pictures/IA25_G10.bmp	Pictures/IA25_G10.bmp	Pictures/IA25.bmp	"What's life without a little risk?"""""	1	risk					6	0	6	0	0	14	14	16																															2349.411397	None	2351.433396	2352.954067	2352.937359	None	2354.491453	None	2	2356.463321	None	2356.463321	None	2356.463321	None	None	None	None	None	2358.117681	None	2358.117681	None	left	2358.117681	None	2359.655066	None	None	None	1.484900975	1.502530167													102	1	18	1	2019_Dec_04_1211	Test	3.2.4	59.84470323		Pictures/IA25_L10.bmp	Pictures/IA25_L10.bmp	Pictures/IA25.bmp	"Dont be afraid to take the risk!"""""	1	risk					6	0	6	0	0	15	15	9																															2360.139673	None	2362.161671	2363.682351	2363.665638	None	2365.203021	None	2	2367.191603	None	2367.191603	None	2367.191603	None	None	None	None	None	2368.010429	None	2368.010429	None	left	2368.010429	None	2368.344634	2370.015703	None	None	0.636630065	0.297773932													102	1	18	1	2019_Dec_04_1211	Test	3.2.4	59.84470323		Pictures/IA50_L10.bmp	Pictures/IA50_L10.bmp	Pictures/IA50.bmp	"Play it safe"	0	safe					6	0	6	0	0	16	16	13																															2370.03242	None	2372.054411	2373.575085	2373.558379	None	2375.095763	None	2	2377.084339	None	2377.084339	None	2377.084339	None	None	None	None	None	2377.752768	None	2377.752768	None	left	2377.752768	None	2378.053564	2379.758055	None	None	0.487882049	0.267440995													102	1	18	1	2019_Dec_04_1211	Test	3.2.4	59.84470323		Pictures/IA100_G40.bmp	Pictures/IA100_G40.bmp	Pictures/IA100.bmp	"Try your luck and gamble!"""""	1	risk					6	0	6	0	0	17	17	17																															2379.774761	None	2381.813468	2383.317432	2383.300726	None	2384.838119	None	1	2386.826704	None	2386.826704	None	2386.826704	None	2387.762495	None	2387.762495	2388.765127	2389.901462	None	2389.901462	None	right	2389.901462	None	None	None	2390.452907	2391.890027	0.825514643	0.510749173													102	1	18	1	2019_Dec_04_1211	Test	3.2.4	59.84470323		Pictures/IA110_55_G95p.bmp	Pictures/IA110_55_G95p.bmp	Pictures/IA110.bmp	"Take a chance!"""""	1	risk					6	0	6	0	0	18	18	6																															2391.906739	None	2393.928735	2395.432706	2395.415992	None	2396.953376	None	2	2398.958664	None	2398.958664	None	2398.958664	None	None	None	None	None	2399.376429	None	2399.376429	None	left	2399.376429	None	2399.660515	2401.365001	None	None	0.261553943	0.243780731													102	1	18	1	2019_Dec_04_1211	Test	3.2.4	59.84470323		Pictures/IA75_G60.bmp	Pictures/IA75_G60.bmp	Pictures/IA75.bmp	"Make it exciting"	1	risk					6	0	6	0	0	19	19	18																															2401.381712	None	2403.403708	2404.924382	2404.907681	None	2406.478479	None	2	2408.433639	None	2408.433639	None	2408.433639	None	None	None	None	None	2409.168907	None	2409.168907	None	left	2409.168907	None	2409.28588	2411.157478	None	None	0.562584672	0.075307082													102	1	18	1	2019_Dec_04_1211	Test	3.2.4	59.84470323												6	0	6	0																																																																									2411.32459	None	return	4.495620654	2411.32459	None	102	1	18	1	2019_Dec_04_1211	Test	3.2.4	59.84470323		Pictures/IA25_L20.bmp	Pictures/IA25_L20.bmp	Pictures/IA25.bmp	"Don't be tempted to gamble."""""	0	safe					7	0	7	0	0	0	0	19													2415.986884	None	2415.986884	None	2415.986884	None	left	2.001323549	2415.986884	None	2415.986884	None	2415.986884	None	return	7.657108976	2415.986884	None	2423.690519	None	2425.695798	2427.216475	2427.199773	None	2428.72044	None	2	2430.725727	None	2430.725727	None	2430.725727	None	None	None	None	None	2431.561263	None	2431.561263	None	right	2431.561263	None	None	None	2431.928902	2433.56655	0.638493006	0.32294998													102	1	18	1	2019_Dec_04_1211	Test	3.2.4	59.84470323		Pictures/IA100_L80.bmp	Pictures/IA100_L80.bmp	Pictures/IA100.bmp	"Go all in!"""""	1	risk					7	0	7	0	0	1	1	4																															2433.583259	None	2435.605251	2437.125926	2437.109219	None	2438.646602	None	2	2440.635185	None	2440.635185	None	2440.635185	None	None	None	None	None	2441.420583	None	2441.420583	None	right	2441.420583	None	None	None	2442.022164	2443.409148	0.617035495	0.567621974													102	1	18	1	2019_Dec_04_1211	Test	3.2.4	59.84470323		Pictures/IA100_G20.bmp	Pictures/IA100_G20.bmp	Pictures/IA100.bmp	"Go ahead and gamble!"""""	1	risk					7	0	7	0	0	2	2	10																															2443.42587	None	2445.447862	2446.951825	2446.93513	None	2448.455799	None	1	2450.477787	None	2450.477787	None	2450.477787	None	2450.979109	None	2450.979109	2451.981746	2453.084666	None	2453.084666	None	right	2453.084666	None	None	None	2453.786506	2455.089941	0.414442653	0.663535683													102	1	18	1	2019_Dec_04_1211	Test	3.2.4	59.84470323		Pictures/IA25_G5.bmp	Pictures/IA25_G5.bmp	Pictures/IA25.bmp	"Let's stay with the certain option."""""	0	safe					7	0	7	0	0	3	3	13																															2455.106659	None	2457.128648	2458.649322	2458.632618	None	2460.136577	None	1	2462.158578	None	2462.158578	None	2462.158578	None	2463.228068	None	2463.228068	2464.230698	2465.333612	None	2465.333612	None	left	2465.333612	None	2465.734664	2467.338917	None	None	0.925643744	0.366593987													102	1	18	1	2019_Dec_04_1211	Test	3.2.4	59.84470323		Pictures/IA50_G30.bmp	Pictures/IA50_G30.bmp	Pictures/IA50.bmp	"I think you should gamble."""""	1	risk					7	0	7	0	0	4	4	9																															2467.355612	None	2469.377603	2470.898274	2470.881568	None	2472.41895	None	1	2474.407539	None	2474.407539	None	2474.407539	None	2475.209605	None	2475.209605	2476.21228	2477.315199	None	2477.315199	None	right	2477.315199	None	None	None	2478.451517	None	0.700678299	1.09701079													102	1	18	1	2019_Dec_04_1211	Test	3.2.4	59.84470323		Pictures/IA80_40_G95p.bmp	Pictures/IA80_40_G95p.bmp	Pictures/IA80.bmp	"Think of the payoff"	1	risk					7	0	7	0	0	5	5	8																															2479.337188	None	2481.359181	2482.879854	2482.863149	None	2484.400532	None	2	2486.389108	None	2486.389108	None	2486.389108	None	None	None	None	None	2487.508726	None	2487.508726	None	left	2487.508726	None	2488.294125	2489.497301	None	None	0.943118468	0.743491385													102	1	18	1	2019_Dec_04_1211	Test	3.2.4	59.84470323		Pictures/IA50_L20.bmp	Pictures/IA50_L20.bmp	Pictures/IA50.bmp	"Certainty is boring"	1	risk					7	0	7	0	0	6	6	15																															2489.514006	None	2491.536027	2493.056682	2493.03997	None	2494.577353	None	1	2496.565932	None	2496.565932	None	2496.565932	None	2497.117392	None	2497.117392	2498.120027	2499.222947	None	2499.222947	None	right	2499.222947	None	None	None	2499.674118	2501.211503	0.430287166	0.405268037													102	1	18	1	2019_Dec_04_1211	Test	3.2.4	59.84470323		Pictures/IA100_G40.bmp	Pictures/IA100_G40.bmp	Pictures/IA100.bmp	"Try your luck and gamble!"""""	1	risk					7	0	7	0	0	7	7	5																															2501.22824	None	2503.266924	2504.787597	2504.770897	None	2506.25814	None	1	2508.280145	None	2508.280145	None	2508.280145	None	2509.516737	None	2509.516737	2510.519379	2511.622283	None	2511.622283	None	right	2511.622283	None	None	None	2512.090181	2513.610857	1.132084755	0.429940655													102	1	18	1	2019_Dec_04_1211	Test	3.2.4	59.84470323		Pictures/IA25_L10.bmp	Pictures/IA25_L10.bmp	Pictures/IA25.bmp	"Dont be afraid to take the risk!"""""	1	risk					7	0	7	0	0	8	8	2																															2513.627559	None	2515.649573	2517.170239	2517.153527	None	2518.657487	None	2	2520.679495	None	2520.679495	None	2520.679495	None	None	None	None	None	2522.049767	None	2522.049767	None	right	2522.049767	None	None	None	2522.668056	2524.038334	1.20473653	0.570447386													102	1	18	1	2019_Dec_04_1211	Test	3.2.4	59.84470323		Pictures/IA25_G20.bmp	Pictures/IA25_G20.bmp	Pictures/IA25.bmp	"I wouldn't gamble for this one. """""	0	safe					7	0	7	0	0	9	9	12																															2524.055048	None	2526.077046	2527.597717	2527.581011	None	2529.101685	None	2	2531.106974	None	2531.106974	None	2531.106974	None	None	None	None	None	2532.009347	None	2532.009347	None	left	2532.009347	None	2532.711212	2534.014636	None	None	0.721253817	0.666870751													102	1	18	1	2019_Dec_04_1211	Test	3.2.4	59.84470323		Pictures/IA75_G60.bmp	Pictures/IA75_G60.bmp	Pictures/IA75.bmp	"Make it exciting"	1	risk					7	0	7	0	0	10	10	18																															2534.031341	None	2536.053339	2537.574009	2537.557304	None	2539.061269	None	2	2541.083268	None	2541.083268	None	2541.083268	None	None	None	None	None	2542.553807	None	2542.553807	None	left	2542.553807	None	2543.272394	2544.559123	None	None	1.296947185	0.690424102													102	1	18	1	2019_Dec_04_1211	Test	3.2.4	59.84470323		Pictures/IA100_L20.bmp	Pictures/IA100_L20.bmp	Pictures/IA100.bmp	"Try to win as much money as you can"	1	risk					7	0	7	0	0	11	11	17																															2544.575819	None	2546.597797	2548.118469	2548.101767	None	2549.622437	None	2	2551.62773	None	2551.62773	None	2551.62773	None	None	None	None	None	2553.014717	None	2553.014717	None	left	2553.014717	None	2554.301434	None	None	None	1.192502455	1.237497802													102	1	18	1	2019_Dec_04_1211	Test	3.2.4	59.84470323		Pictures/IA100_G60.bmp	Pictures/IA100_G60.bmp	Pictures/IA100.bmp	"Be cautious"	0	safe					7	0	7	0	0	12	12	16																															2555.019998	None	2557.041993	2558.562663	2558.54596	None	2560.083339	None	2	2562.071919	None	2562.071919	None	2562.071919	None	None	None	None	None	2563.057847	None	2563.057847	None	left	2563.057847	None	2564.027066	2565.06313	None	None	0.804300303	0.922376922													102	1	18	1	2019_Dec_04_1211	Test	3.2.4	59.84470323		Pictures/IA75_L45.bmp	Pictures/IA75_L45.bmp	Pictures/IA75.bmp	"Don't gamble for this one"	0	safe					7	0	7	0	0	13	13	3																															2565.079847	None	2567.101838	2568.62251	2568.605804	None	2570.143189	None	1	2572.13177	None	2572.13177	None	2572.13177	None	2574.036784	None	2574.036784	2575.039419	2576.142342	None	2576.142342	None	left	2576.142342	None	2576.493257	2578.130908	None	None	1.768446372	0.301861734													102	1	18	1	2019_Dec_04_1211	Test	3.2.4	59.84470323		Pictures/IA100_G80.bmp	Pictures/IA100_G80.bmp	Pictures/IA100.bmp	"Why not gamble?"""""	1	risk					7	0	7	0	0	14	14	1																															2578.147615	None	2580.169615	2581.690287	2581.673579	None	2583.210958	None	2	2585.199541	None	2585.199541	None	2585.199541	None	None	None	None	None	2586.419419	None	2586.419419	None	left	2586.419419	None	2586.686792	2588.424702	None	None	1.060679742	0.232793069													102	1	18	1	2019_Dec_04_1211	Test	3.2.4	59.84470323		Pictures/IA75_L30.bmp	Pictures/IA75_L30.bmp	Pictures/IA75.bmp	"Hold back"	0	safe					7	0	7	0	0	15	15	7																															2588.441412	None	2590.463412	2591.984081	2591.967375	None	2593.53818	None	2	2595.493337	None	2595.493337	None	2595.493337	None	None	None	None	None	2597.398355	None	2597.398355	None	left	2597.398355	None	2598.133625	2599.403633	None	None	1.734894868	0.701858345													102	1	18	1	2019_Dec_04_1211	Test	3.2.4	59.84470323		Pictures/IA50_L30.bmp	Pictures/IA50_L30.bmp	Pictures/IA50.bmp	"Take a leap"	1	risk					7	0	7	0	0	16	16	6																															2599.420346	None	2601.442346	2602.946307	2602.929603	None	2604.500403	None	1	2606.472272	None	2606.472272	None	2606.472272	None	2607.675443	None	2607.675443	2608.67808	2609.780999	None	2609.780999	None	right	2609.780999	None	None	None	2610.432706	2611.769565	1.059955366	0.607214318													102	1	18	1	2019_Dec_04_1211	Test	3.2.4	59.84470323		Pictures/IA50_L10.bmp	Pictures/IA50_L10.bmp	Pictures/IA50.bmp	"Play it safe"	0	safe					7	0	7	0	0	17	17	0																															2611.786274	None	2613.808273	2615.328945	2615.312242	None	2616.816206	None	2	2618.838204	None	2618.838204	None	2618.838204	None	None	None	None	None	2619.74057	None	2619.74057	None	left	2619.74057	None	2620.007971	2621.745855	None	None	0.710016413	0.231670451													102	1	18	1	2019_Dec_04_1211	Test	3.2.4	59.84470323		Pictures/IA75_G30.bmp	Pictures/IA75_G30.bmp	Pictures/IA75.bmp	"Be bold"	1	risk					7	0	7	0	0	18	18	14																															2621.762566	None	2623.784571	2625.305242	2625.288531	None	2626.825925	None	1	2628.814492	None	2628.814492	None	2628.814492	None	2630.43543	None	2630.43543	2631.438066	2632.55769	None	2632.55769	None	right	2632.55769	None	None	None	2632.925322	2634.562969	1.533718295	0.318535687													102	1	18	1	2019_Dec_04_1211	Test	3.2.4	59.84470323		Pictures/IA40_20_L95p.bmp	Pictures/IA40_20_L95p.bmp	Pictures/IA40.bmp	"Trust me"	1	risk					7	0	7	0	0	19	19	11																															2634.579682	None	2636.601677	2638.122359	2638.105649	None	2639.643029	None	2	2641.631605	None	2641.631605	None	2641.631605	None	None	None	None	None	2642.650923	None	2642.650923	None	right	2642.650923	None	None	None	2643.369512	2644.639528	0.868604464	0.673289644													102	1	18	1	2019_Dec_04_1211	Test	3.2.4	59.84470323												7	0	7	0																																																																									2644.806638	None	return	4.413567363	2644.806638	None	102	1	18	1	2019_Dec_04_1211	Test	3.2.4	59.84470323		Pictures/IA50_L40.bmp	Pictures/IA50_L40.bmp	Pictures/IA50.bmp	"That gamble doesn't sound too good"	0	safe					8	0	8	0	0	0	0	19													2649.385369	None	2649.385369	None	2649.385369	None	left	1.898840045	2649.385369	None	2649.385369	None	2649.385369	None	return	2.63462937	2649.385369	None	2652.05905	None	2654.064374	2655.585042	2655.568335	None	2657.105722	None	1	2659.094295	None	2659.094295	None	2659.094295	None	2660.832214	None	2660.832214	2661.834845	2662.937757	None	2662.937757	None	left	2662.937757	None	2664.341455	None	None	None	1.581927827	1.354451439													102	1	18	1	2019_Dec_04_1211	Test	3.2.4	59.84470323		Pictures/IA25_G15.bmp	Pictures/IA25_G15.bmp	Pictures/IA25.bmp	"I think you should take a gamble."""""	1	risk					8	0	8	0	0	1	1	17																															2664.959756	None	2666.981745	2668.502418	2668.485712	None	2670.023111	None	2	2672.011673	None	2672.011673	None	2672.011673	None	None	None	None	None	2674.117219	None	2674.117219	None	left	2674.117219	None	2675.186702	None	None	None	1.936545558	1.030985983													102	1	18	1	2019_Dec_04_1211	Test	3.2.4	59.84470323		Pictures/IA100_L20.bmp	Pictures/IA100_L20.bmp	Pictures/IA100.bmp	"Try to win as much money as you can"	1	risk					8	0	8	0	0	2	2	14																															2676.122503	None	2678.144503	2679.64846	2679.631764	None	2681.185854	None	2	2683.174461	None	2683.174461	None	2683.174461	None	None	None	None	None	2684.009959	None	2684.009959	None	left	2684.009959	None	2684.828796	2685.998533	None	None	0.661754509	0.778271908													102	1	18	1	2019_Dec_04_1211	Test	3.2.4	59.84470323		Pictures/IA50_L30.bmp	Pictures/IA50_L30.bmp	Pictures/IA50.bmp	"Take a leap"	1	risk					8	0	8	0	0	3	3	10																															2686.015245	None	2688.037238	2689.557911	2689.541205	None	2691.078587	None	1	2693.067164	None	2693.067164	None	2693.067164	None	2695.222845	None	2695.222845	2696.225481	2697.328395	None	2697.328395	None	right	2697.328395	None	None	None	2697.929985	2699.316967	2.017053563	0.555816947													102	1	18	1	2019_Dec_04_1211	Test	3.2.4	59.84470323		Pictures/IA25_G20.bmp	Pictures/IA25_G20.bmp	Pictures/IA25.bmp	"I wouldn't gamble for this one. """""	0	safe					8	0	8	0	0	4	4	13																															2699.333677	None	2701.355672	2702.876345	2702.859639	None	2704.363598	None	2	2706.385601	None	2706.385601	None	2706.385601	None	None	None	None	None	2707.070738	None	2707.070738	None	left	2707.070738	None	2707.906268	2709.076017	None	None	0.514609621	0.797491498													102	1	18	1	2019_Dec_04_1211	Test	3.2.4	59.84470323		Pictures/IA50_G20.bmp	Pictures/IA50_G20.bmp	Pictures/IA50.bmp	"Let's venture and take a risk!"""""	1	risk					8	0	8	0	0	5	5	11																															2709.092728	None	2711.114723	2712.635403	2712.618694	None	2714.156075	None	1	2716.144651	None	2716.144651	None	2716.144651	None	2717.51494	None	2717.51494	2718.517566	2719.62048	None	2719.62048	None	right	2719.62048	None	None	None	2720.222079	2721.625764	1.25157523	0.551740582													102	1	18	1	2019_Dec_04_1211	Test	3.2.4	59.84470323		Pictures/IA75_G60.bmp	Pictures/IA75_G60.bmp	Pictures/IA75.bmp	"Make it exciting"	1	risk					8	0	8	0	0	6	6	12																															2721.642477	None	2723.664471	2725.185139	2725.168433	None	2726.689105	None	2	2728.694399	None	2728.694399	None	2728.694399	None	None	None	None	None	2729.295979	None	2729.295979	None	left	2729.295979	None	2729.580056	2731.284552	None	None	0.421827674	0.2362349													102	1	18	1	2019_Dec_04_1211	Test	3.2.4	59.84470323		Pictures/IA75_L60.bmp	Pictures/IA75_L60.bmp	Pictures/IA75.bmp	"Why not take the gamble?"""""	1	risk					8	0	8	0	0	7	7	2																															2731.301259	None	2733.323261	2734.843929	2734.82723	None	2736.364608	None	1	2738.353184	None	2738.353184	None	2738.353184	None	2738.73753	None	2738.73753	2739.740164	2740.859788	None	2740.859788	None	right	2740.859788	None	None	None	2741.344394	2742.865077	0.283031798	0.448419524													102	1	18	1	2019_Dec_04_1211	Test	3.2.4	59.84470323		Pictures/IA100_L40.bmp	Pictures/IA100_L40.bmp	Pictures/IA100.bmp	"Think of the payoff"	1	risk					8	0	8	0	0	8	8	5																															2742.881781	None	2744.903776	2746.42445	2746.407747	None	2747.945133	None	2	2749.933703	None	2749.933703	None	2749.933703	None	None	None	None	None	2750.969764	None	2750.969764	None	left	2750.969764	None	2752.223067	None	None	None	0.878532893	1.21844612													102	1	18	1	2019_Dec_04_1211	Test	3.2.4	59.84470323		Pictures/IA75_G30.bmp	Pictures/IA75_G30.bmp	Pictures/IA75.bmp	"Be bold"	1	risk					8	0	8	0	0	9	9	7																															2752.991758	None	2755.013753	2756.534427	2756.51772	None	2758.021682	None	1	2760.043679	None	2760.043679	None	2760.043679	None	2761.280308	None	2761.280308	2762.282908	2763.402532	None	2763.402532	None	right	2763.402532	None	None	None	2763.669904	2765.407837	1.15253181	0.233670112													102	1	18	1	2019_Dec_04_1211	Test	3.2.4	59.84470323		Pictures/IA40_20_L95p.bmp	Pictures/IA40_20_L95p.bmp	Pictures/IA40.bmp	"Trust me"	1	risk					8	0	8	0	0	10	10	18																															2765.424523	None	2767.446519	2768.967191	2768.950487	None	2770.487868	None	2	2772.47645	None	2772.47645	None	2772.47645	None	None	None	None	None	2772.894216	None	2772.894216	None	right	2772.894216	None	None	None	2773.64619	2774.882782	0.263761329	0.701983887													102	1	18	1	2019_Dec_04_1211	Test	3.2.4	59.84470323		Pictures/IA100_G60.bmp	Pictures/IA100_G60.bmp	Pictures/IA100.bmp	"Be cautious"	0	safe					8	0	8	0	0	11	11	6																															2774.899493	None	2776.921489	2778.442171	2778.425457	None	2779.929416	None	2	2781.951417	None	2781.951417	None	2781.951417	None	None	None	None	None	2782.803661	None	2782.803661	None	left	2782.803661	None	2783.655904	2784.792231	None	None	0.676804159	0.816546176													102	1	18	1	2019_Dec_04_1211	Test	3.2.4	59.84470323		Pictures/IA50_G30.bmp	Pictures/IA50_G30.bmp	Pictures/IA50.bmp	"I think you should gamble."""""	1	risk					8	0	8	0	0	12	12	3																															2784.80895	None	2786.830953	2788.351611	2788.334909	None	2789.872287	None	2	2791.860867	None	2791.860867	None	2791.860867	None	None	None	None	None	2793.632202	None	2793.632202	None	left	2793.632202	None	2794.217068	2795.620768	None	None	1.591352727	0.548002941													102	1	18	1	2019_Dec_04_1211	Test	3.2.4	59.84470323		Pictures/IA25_L5.bmp	Pictures/IA25_L5.bmp	Pictures/IA25.bmp	"It would be smarter to choose the safe option."""""	0	safe					8	0	8	0	0	13	13	0																															2795.637479	None	2797.659476	2799.180157	2799.163443	None	2800.717545	None	2	2802.689404	None	2802.689404	None	2802.689404	None	None	None	None	None	2803.458099	None	2803.458099	None	left	2803.458099	None	2804.042966	2805.446667	None	None	0.570815889	0.538111012													102	1	18	1	2019_Dec_04_1211	Test	3.2.4	59.84470323		Pictures/IA100_G80.bmp	Pictures/IA100_G80.bmp	Pictures/IA100.bmp	"Why not gamble?"""""	1	risk					8	0	8	0	0	14	14	8																															2805.463374	None	2807.485372	2809.006045	2808.989349	None	2810.526742	None	2	2812.515297	None	2812.515297	None	2812.515297	None	None	None	None	None	2813.233861	None	2813.233861	None	left	2813.233861	None	2813.835456	2815.239137	None	None	0.520934991	0.562349295													102	1	18	1	2019_Dec_04_1211	Test	3.2.4	59.84470323		Pictures/IA25_L15.bmp	Pictures/IA25_L15.bmp	Pictures/IA25.bmp	"There's not much on the line here"	1	risk					8	0	8	0	0	15	15	16																															2815.255849	None	2817.277845	2818.798519	2818.781812	None	2820.302496	None	1	2822.307771	None	2822.307771	None	2822.307771	None	2823.577786	None	2823.577786	2824.58043	2825.683335	None	2825.683335	None	right	2825.683335	None	None	None	2826.502154	2827.671907	1.120458381	0.776876486													102	1	18	1	2019_Dec_04_1211	Test	3.2.4	59.84470323		Pictures/IA25_G5.bmp	Pictures/IA25_G5.bmp	Pictures/IA25.bmp	"Let's stay with the certain option."""""	0	safe					8	0	8	0	0	16	16	4																															2827.688614	None	2829.710611	2831.231287	2831.214577	None	2832.735252	None	2	2834.740539	None	2834.740539	None	2834.740539	None	None	None	None	None	2836.277927	None	2836.277927	None	right	2836.277927	None	None	None	2837.213722	2838.2832	1.367686278	0.894289004													102	1	18	1	2019_Dec_04_1211	Test	3.2.4	59.84470323		Pictures/IA75_L30.bmp	Pictures/IA75_L30.bmp	Pictures/IA75.bmp	"Hold back"	0	safe					8	0	8	0	0	17	17	1																															2838.299911	None	2840.321908	2841.842597	2841.825886	None	2843.329836	None	1	2845.351841	None	2845.351841	None	2845.351841	None	2846.905959	None	2846.905959	2847.913814	2849.028216	None	2849.028216	None	left	2849.028216	None	2849.429262	2851.033469	None	None	1.420398838	0.360001079													102	1	18	1	2019_Dec_04_1211	Test	3.2.4	59.84470323		Pictures/IA50_G10.bmp	Pictures/IA50_G10.bmp	Pictures/IA50.bmp	"Go with the safe option here!"""""	0	safe					8	0	8	0	0	18	18	9																															2851.050186	None	2853.072249	2854.576169	2854.559411	None	2856.130234	None	1	2858.102103	None	2858.102103	None	2858.102103	None	2859.171586	None	2859.171586	2860.174228	2861.293852	None	2861.293852	None	left	2861.293852	None	2861.678189	2863.282422	None	None	0.95812374	0.350344353													102	1	18	1	2019_Dec_04_1211	Test	3.2.4	59.84470323		Pictures/IA80_40_L95p.bmp	Pictures/IA80_40_L95p.bmp	Pictures/IA80.bmp	"Let's stay with the certain option."""""	0	safe					8	0	8	0	0	19	19	15																															2863.299127	None	2865.354546	2866.858512	2866.841813	None	2868.379186	None	2	2870.351056	None	2870.351056	None	2870.351056	None	None	None	None	None	2870.869082	None	2870.869082	None	right	2870.869082	None	None	None	2871.504083	2872.874363	0.34915455	0.591138264													102	1	18	1	2019_Dec_04_1211	Test	3.2.4	59.84470323												8	0	8	0																																																																									2873.041472	None	return	3.122720936	2873.041472	None	102	1	18	1	2019_Dec_04_1211	Test	3.2.4	59.84470323		Pictures/IA110_55_L95p.bmp	Pictures/IA110_55_L95p.bmp	Pictures/IA110.bmp	"Trust me"	1	risk					9	0	9	0	0	0	0	8													2876.35019	None	2876.35019	None	2876.35019	None	left	3.494037795	2876.35019	None	2876.35019	None	2876.35019	None	return	4.285897274	2876.35019	None	2880.694983	None	2882.716967	2884.23764	2884.220935	None	2885.741604	None	1	2887.713475	None	2887.713475	None	2887.713475	None	2888.448744	None	2888.448744	2889.451378	2890.554292	None	2890.554292	None	right	2890.554292	None	None	None	2890.921925	2892.55957	0.618731019	0.321925642													102	1	18	1	2019_Dec_04_1211	Test	3.2.4	59.84470323		Pictures/IA40_20_G95p.bmp	Pictures/IA40_20_G95p.bmp	Pictures/IA40.bmp	"Hold back"	0	safe					9	0	9	0	0	1	1	5																															2892.576281	None	2894.598281	2896.118951	2896.102247	None	2897.656337	None	2	2899.628204	None	2899.628204	None	2899.628204	None	None	None	None	None	2900.51387	None	2900.51387	None	left	2900.51387	None	2901.583357	None	None	None	0.704007065	1.026346669													102	1	18	1	2019_Dec_04_1211	Test	3.2.4	59.84470323		Pictures/IA25_L15.bmp	Pictures/IA25_L15.bmp	Pictures/IA25.bmp	"There's not much on the line here"	1	risk					9	0	9	0	0	2	2	0																															2902.535856	None	2904.557862	2906.07853	2906.061829	None	2907.565788	None	2	2909.587785	None	2909.587785	None	2909.587785	None	None	None	None	None	2910.139243	None	2910.139243	None	right	2910.139243	None	None	None	2910.724116	2912.127802	0.352437463	0.544959898													102	1	18	1	2019_Dec_04_1211	Test	3.2.4	59.84470323		Pictures/IA50_L40.bmp	Pictures/IA50_L40.bmp	Pictures/IA50.bmp	"That gamble doesn't sound too good"	0	safe					9	0	9	0	0	3	3	9																															2912.144521	None	2914.166513	2915.687185	2915.670482	None	2917.224577	None	2	2919.196439	None	2919.196439	None	2919.196439	None	None	None	None	None	2921.118169	None	2921.118169	None	left	2921.118169	None	2922.120814	None	None	None	1.735772786	0.958038963													102	1	18	1	2019_Dec_04_1211	Test	3.2.4	59.84470323		Pictures/IA20_10_G95p.bmp	Pictures/IA20_10_G95p.bmp	Pictures/IA20.bmp	"Take a leap"	1	risk					9	0	9	0	0	4	4	19																															2923.123449	None	2925.178872	2926.682829	2926.666124	None	2928.22024	None	2	2930.17537	None	2930.17537	None	2930.17537	None	None	None	None	None	2930.810382	None	2930.810382	None	left	2930.810382	None	2931.762888	2932.815677	None	None	0.436855731	0.913829326													102	1	18	1	2019_Dec_04_1211	Test	3.2.4	59.84470323		Pictures/IA100_G60.bmp	Pictures/IA100_G60.bmp	Pictures/IA100.bmp	"Be cautious"	0	safe					9	0	9	0	0	5	5	16																															2932.832368	None	2934.854376	2936.375036	2936.358332	None	2937.879008	None	2	2939.884291	None	2939.884291	None	2939.884291	None	None	None	None	None	2941.187725	None	2941.187725	None	left	2941.187725	None	2941.872864	2943.176299	None	None	1.127935017	0.640501859													102	1	18	1	2019_Dec_04_1211	Test	3.2.4	59.84470323		Pictures/IA75_G45.bmp	Pictures/IA75_G45.bmp	Pictures/IA75.bmp	"Don't gamble for this one."""""	0	safe					9	0	9	0	0	6	6	1																															2943.193005	None	2945.215029	2946.735674	2946.718966	None	2948.273064	None	2	2950.244928	None	2950.244928	None	2950.244928	None	None	None	None	None	2950.829807	None	2950.829807	None	left	2950.829807	None	2951.548356	2952.835098	None	None	0.423300083	0.678401868													102	1	18	1	2019_Dec_04_1211	Test	3.2.4	59.84470323		Pictures/IA40_20_L95p.bmp	Pictures/IA40_20_L95p.bmp	Pictures/IA40.bmp	"Trust me"	1	risk					9	0	9	0	0	7	7	7																															2952.851792	None	2954.873787	2956.39446	2956.377753	None	2957.915136	None	2	2959.903726	None	2959.903726	None	2959.903726	None	None	None	None	None	2960.388323	None	2960.388323	None	right	2960.388323	None	None	None	2961.190434	2962.393606	0.332481292	0.759888011													102	1	18	1	2019_Dec_04_1211	Test	3.2.4	59.84470323		Pictures/IA75_L60.bmp	Pictures/IA75_L60.bmp	Pictures/IA75.bmp	"Why not take the gamble?"""""	1	risk					9	0	9	0	0	8	8	18																															2962.410314	None	2964.432311	2965.952987	2965.936277	None	2967.473658	None	2	2969.462241	None	2969.462241	None	2969.462241	None	None	None	None	None	2970.765669	None	2970.765669	None	right	2970.765669	None	None	None	2971.584496	2972.770952	1.141977442	0.782540633													102	1	18	1	2019_Dec_04_1211	Test	3.2.4	59.84470323		Pictures/IA25_L5.bmp	Pictures/IA25_L5.bmp	Pictures/IA25.bmp	"