Choice,Choice2,Amount,AdviceVar1,GambleAdviceNum,GambleAdviceType,practice.thisRepN,practice.thisTrialN,practice.thisN,practice.thisIndex,trials_2.thisRepN,trials_2.thisTrialN,trials_2.thisN,trials_2.thisIndex,trials.thisRepN,trials.thisTrialN,trials.thisN,trials.thisIndex,text.started,text.stopped,key_resp_4.keys,key_resp_4.rt,key_resp_4.started,key_resp_4.stopped,instructions.started,instructions.stopped,space.keys,space.rt,space.started,space.stopped,chooseInst.started,chooseInst.stopped,Ad1.started,Ad1.stopped,Ad2.started,Ad2.stopped,key_resp_3.keys,key_resp_3.rt,key_resp_3.started,key_resp_3.stopped,Ad1pic.started,Ad1pic.stopped,Ad2pic.started,Ad2pic.stopped,enter.keys,enter.rt,enter.started,enter.stopped,iSi.started,iSi.stopped,receiveMoneyPicture.started,receiveMoneyPicture.stopped,ISI2.started,ISI2.stopped,ChoicePic.started,ChoicePic.stopped,response.keys,response.started,response.stopped,yesNo.started,yesNo.stopped,ask.started,ask.stopped,getAdv.started,getAdv.stopped,textForCode.started,textForCode.stopped,blank.started,blank.stopped,ChoicePic2.started,ChoicePic2.stopped,resp.keys,resp.started,resp.stopped,checkL1.started,checkL1.stopped,checkR1.started,checkR1.stopped,response.rt,resp.rt,EndPrac.started,EndPrac.stopped,key_resp.keys,key_resp.rt,key_resp.started,key_resp.stopped,endText.started,endText.stopped,key_resp_2.keys,key_resp_2.rt,key_resp_2.started,key_resp_2.stopped,participant,session,age,gender (0=male, 1 = female, 2 = other),date,expName,psychopyVersion,frameRate,
,,,,,,,,,,,,,,,,,,254.3939264400001,None,space,1182.0255747880005,254.3939264400001,None,,,,,,,,,,,,,,,,,,,,,,,,,,,,,,,,,,,,,,,,,,,,,,,,,,,,,,,,,,,,,,,,,,,,,103,001,18,1,2019_Dec_05_0924,Test,3.2.4,59.8396474574584,
,,,,,,,,,,,,,,,,,,,,,,,,1436.4606862210003,None,space,4.32681778999995,1436.4606862210003,None,,,,,,,,,,,,,,,,,,,,,,,,,,,,,,,,,,,,,,,,,,,,,,,,,,,,,,,,,,,,,,,103,001,18,1,2019_Dec_05_0924,Test,3.2.4,59.8396474574584,
,,,,,,,,,,,,,,,,,,,,,,,,,,,,,,1442.0086579360004,None,1442.0086579360004,None,1442.0086579360004,None,left,13.466833868999856,1442.0086579360004,None,,,,,,,,,,,,,,,,,,,,,,,,,,,,,,,,,,,,,,,,,,,,,,,,,,,,,103,001,18,1,2019_Dec_05_0924,Test,3.2.4,59.8396474574584,
,,,,,,,,,,,,,,,,,,,,,,,,,,,,,,,,,,,,,,,,1442.0086579360004,None,1442.0086579360004,None,return,15.506727615999807,1442.0086579360004,None,,,,,,,,,,,,,,,,,,,,,,,,,,,,,,,,,,,,,,,,,,,,,103,001,18,1,2019_Dec_05_0924,Test,3.2.4,59.8396474574584,
Pictures/IA100_G40.bmp,Pictures/IA100_G40.bmp,Pictures/IA100.bmp,"

"Try your luck and gamble!"",1,risk,0,0,0,5,,,,,,,,,,,,,,,,,,,,,,,,,,,,,,,,,,,,,,,1457.633145625,None,1459.6050247580006,1461.108987949,1461.0922697759997,None,1462.6296650700006,None,None,1464.6850802879999,None,1464.6850802879999,None,1464.6850802879999,None,None,None,None,None,1467.7598429529999,None,1467.7598429529999,None,None,1467.7598429529999,None,None,None,None,None,,,,,,,,,,,,,,,103,001,18,1,2019_Dec_05_0924,Test,3.2.4,59.8396474574584,
Pictures/IA50_G10.bmp,Pictures/IA50_G10.bmp,Pictures/IA50.bmp,"

"Go with the safe option here!"",0,safe,0,1,1,0,,,,,,,,,,,,,,,,,,,,,,,,,,,,,,,,,,,,,,,1469.7651204109998,None,1471.8038295340002,1473.3245029649997,1473.3078075860003,None,1474.8619061070003,None,1,1476.8170445920005,None,1476.8170445920005,None,1476.8170445920005,None,1477.6693046,None,1477.6693046,1478.6719407629998,1479.7748537360003,None,1479.7748537360003,None,left,1479.7748537360003,None,1481.0615756060006,None,None,None,0.7224685330002103,1.2446495630001664,,,,,,,,,,,,,103,001,18,1,2019_Dec_05_0924,Test,3.2.4,59.8396474574584,
Pictures/IA50_G20.bmp,Pictures/IA50_G20.bmp,Pictures/IA50.bmp,"

"Let's venture and take a risk!"",1,risk,0,2,2,1,,,,,,,,,,,,,,,,,,,,,,,,,,,,,,,,,,,,,,,1481.7801355339998,None,1483.8021389330006,1485.3228105910002,1485.3060884440001,None,1486.8769057750005,None,1,1488.8320475609999,None,1488.8320475609999,None,1488.8320475609999,None,1490.3360154910006,None,1490.3360154910006,1491.3386520519998,1492.4415689810003,None,1492.4415689810003,None,left,1492.4415689810003,None,1493.4609149590005,None,None,None,1.3714704089998122,0.9699371020005856,,,,,,,,,,,,,103,001,18,1,2019_Dec_05_0924,Test,3.2.4,59.8396474574584,
Pictures/IA50_G30.bmp,Pictures/IA50_G30.bmp,Pictures/IA50.bmp,"

"I think you should gamble."",1,risk,0,3,3,2,,,,,,,,,,,,,,,,,,,,,,,,,,,,,,,,,,,,,,,1494.4468438869999,None,1496.468844553,1497.989513763,1497.9728218669998,None,1499.526902427,None,2,1501.498768632,None,1501.498768632,None,1501.498768632,None,None,None,None,None,1503.9552697099998,None,1503.9552697099998,None,left,1503.9552697099998,None,1505.77671843,None,None,None,2.272751728000003,1.7762376180007777,,,,,,,,,,,,,103,001,18,1,2019_Dec_05_0924,Test,3.2.4,59.8396474574584,
Pictures/IA50_G40.bmp,Pictures/IA50_G40.bmp,Pictures/IA50.bmp,"

"It would probably be best to play it safe."",0,safe,0,4,4,3,,,,,,,,,,,,,,,,,,,,,,,,,,,,,,,,,,,,,,,1505.9605348730001,None,1507.9825328719999,1509.5032079780003,1509.486488431,None,1511.057305833,None,1,1513.0124497260003,None,1513.0124497260003,None,1513.0124497260003,None,1514.8840609440003,None,1514.8840609440003,1515.8866986310004,1516.9896118570005,None,1516.9896118570005,None,right,1516.9896118570005,None,None,None,1518.4434397590003,None,1.7270492590005233,1.4138896699996621,,,,,,,,,,,,,103,001,18,1,2019_Dec_05_0924,Test,3.2.4,59.8396474574584,
Pictures/IA100_G20.bmp,Pictures/IA100_G20.bmp,Pictures/IA100.bmp,"

"Go ahead and gamble!"",1,risk,0,5,5,4,,,,,,,,,,,,,,,,,,,,,,,,,,,,,,,,,,,,,,,1518.9948814620002,None,1521.0168798490004,1522.5375515080004,1522.5208601579998,None,1524.091664054,None,1,1526.0468182209997,None,1526.0468182209997,None,1526.0468182209997,None,1526.7653643009999,None,1526.7653643009999,1527.7680033980005,1528.8876268920003,None,1528.8876268920003,None,left,1528.8876268920003,None,1529.3053916119998,1530.8929088820005,None,None,0.6286951479996787,0.3798695959994802,,,,,,,,,,,,,103,001,18,1,2019_Dec_05_0924,Test,3.2.4,59.8396474574584,
,,,,,,,,,,,,,,,,,,,,,,,,,,,,,,,,,,,,,,,,,,,,,,,,,,,,,,,,,,,,,,,,,,,,,,,,,,,,,,,,1530.909632195,None,space,60.34986704499988,1530.909632195,None,,,,,,,103,001,18,1,2019_Dec_05_0924,Test,3.2.4,59.8396474574584,
Pictures/IA100_G80.bmp,Pictures/IA100_G80.bmp,Pictures/IA100.bmp,"

"Why not gamble?"",1,risk,,,,,0,0,0,0,0,0,0,1,,,,,,,,,,,,,1591.435825224,None,1591.435825224,None,1591.435825224,None,left,2.9516747950001445,1591.435825224,None,1591.435825224,None,1591.435825224,None,return,9.655454730000201,1591.435825224,None,1601.161470766,None,1603.1500480470004,1604.6707193439997,1604.6540005920006,None,1606.20810016,None,1,1608.163266689,None,1608.163266689,None,1608.163266689,None,1608.6311666460006,None,1608.6311666460006,1609.6338005910002,1610.7534106889998,None,1610.7534106889998,None,right,1610.7534106889998,None,None,None,1611.7727637919998,None,0.36824511699978757,0.9700944639998852,,,,,,,,,,,,,103,001,18,1,2019_Dec_05_0924,Test,3.2.4,59.8396474574584,
Pictures/IA75_L60.bmp,Pictures/IA75_L60.bmp,Pictures/IA75.bmp,"

"Why not take the gamble?"",1,risk,,,,,0,0,0,0,0,1,1,2,,,,,,,,,,,,,,,,,,,,,,,,,,,,,,,1612.7586927510001,None,1614.797407471,1616.318075405,1616.3013807349998,None,1617.855474893,None,1,1619.810616529,None,1619.810616529,None,1619.810616529,None,1620.2451065120003,None,1620.2451065120003,1621.2477456610004,1622.3506579650002,None,1622.3506579650002,None,left,1622.3506579650002,None,1623.2530223969998,1624.3559397079998,None,None,0.3208994870001334,0.8528485540000474,,,,,,,,,,,,,103,001,18,1,2019_Dec_05_0924,Test,3.2.4,59.8396474574584,
Pictures/IA75_L30.bmp,Pictures/IA75_L30.bmp,Pictures/IA75.bmp,"

"Hold back, stay with the safe choice."",0,safe,,,,,0,0,0,0,0,2,2,18,,,,,,,,,,,,,,,,,,,,,,,,,,,,,,,1624.372646666,None,1626.3946373939998,1627.915311744,1627.898613114,None,1629.469412464,None,1,1631.424573872,None,1631.424573872,None,1631.424573872,None,1631.9592842060001,None,1631.9592842060001,1632.9619613530003,1634.0648686410004,None,1634.0648686410004,None,left,1634.0648686410004,None,1635.0173757500006,1636.0534261000003,None,None,0.402929924000091,0.9066476109992436,,,,,,,,,,,,,103,001,18,1,2019_Dec_05_0924,Test,3.2.4,59.8396474574584,
Pictures/IA25_L20.bmp,Pictures/IA25_L20.bmp,Pictures/IA25.bmp,"

"Don't be tempted to gamble."",0,safe,,,,,0,0,0,0,0,3,3,16,,,,,,,,,,,,,,,,,,,,,,,,,,,,,,,1636.0701491959999,None,1638.1088611920004,1639.6295299929998,1639.6128163499998,None,1641.1669071240003,None,1,1643.1220748810001,None,1643.1220748810001,None,1643.1220748810001,None,1643.5231194560001,None,1643.5231194560001,1644.5257569650003,1645.628669023,None,1645.628669023,None,left,1645.628669023,None,1646.7482853420006,None,None,None,0.29742868399989675,1.070829190999575,,,,,,,,,,,,,103,001,18,1,2019_Dec_05_0924,Test,3.2.4,59.8396474574584,
Pictures/IA25_L15.bmp,Pictures/IA25_L15.bmp,Pictures/IA25.bmp,"

"There's not much on the line here, gamble!"",1,risk,,,,,0,0,0,0,0,4,4,7,,,,,,,,,,,,,,,,,,,,,,,,,,,,,,,1647.6339634940005,None,1649.6559651759999,1651.1766343890004,1651.1599168510002,None,1652.7307315420003,None,1,1654.6858777859998,None,1654.6858777859998,None,1654.6858777859998,None,1655.521411052,None,1655.521411052,1656.5240508200004,1657.6269613200002,None,1657.6269613200002,None,right,1657.6269613200002,None,None,None,1659.0306706090005,None,0.6776312350002627,1.3685398870002246,,,,,,,,,,,,,103,001,18,1,2019_Dec_05_0924,Test,3.2.4,59.8396474574584,
Pictures/IA50_G40.bmp,Pictures/IA50_G40.bmp,Pictures/IA50.bmp,"

"It would probably be best to play it safe."",0,safe,,,,,0,0,0,0,0,5,5,14,,,,,,,,,,,,,,,,,,,,,,,,,,,,,,,1659.6489578620003,None,1661.6709558560005,1663.1916361040003,1663.1749337830006,None,1664.6788820680003,None,1,1666.7008916240002,None,1666.7008916240002,None,1666.7008916240002,None,1667.4862877510004,None,1667.4862877510004,1668.4889239149998,1669.5918427590004,None,1669.5918427590004,None,right,1669.5918427590004,None,None,None,1670.310389108,1671.5971376050002,0.6226329119999718,0.6836459090000062,,,,,,,,,,,,,103,001,18,1,2019_Dec_05_0924,Test,3.2.4,59.8396474574584,
Pictures/IA110_55_G95p.bmp,Pictures/IA110_55_G95p.bmp,Pictures/IA110.bmp,"

"Take a chance!"",1,risk,,,,,0,0,0,0,0,6,6,19,,,,,,,,,,,,,,,,,,,,,,,,,,,,,,,1671.6138247469999,None,1673.6692490679998,1675.1732222110004,1675.1565002859998,None,1676.7105955240004,None,1,1678.6657612850004,None,1678.6657612850004,None,1678.6657612850004,None,1679.4010354700004,None,1679.4010354700004,1680.4036709230004,1681.5400059920003,None,1681.5400059920003,None,left,1681.5400059920003,None,1682.8601464040003,None,None,None,0.6417502659996899,1.2794996860002357,,,,,,,,,,,,,103,001,18,1,2019_Dec_05_0924,Test,3.2.4,59.8396474574584,
Pictures/IA25_G10.bmp,Pictures/IA25_G10.bmp,Pictures/IA25.bmp,"

"What's life without a little risk?"",1,risk,,,,,0,0,0,0,0,7,7,5,,,,,,,,,,,,,,,,,,,,,,,,,,,,,,,1683.5453100140003,None,1685.5673018120006,1687.08795843,1687.0712364330002,None,1688.6420565600001,None,1,1690.5972007210003,None,1690.5972007210003,None,1690.5972007210003,None,1691.21550621,None,1691.21550621,1692.218143651,1693.321056656,None,1693.321056656,None,right,1693.321056656,None,None,None,1694.5409346450006,None,0.49431192399970314,1.1784597509995365,,,,,,,,,,,,,103,001,18,1,2019_Dec_05_0924,Test,3.2.4,59.8396474574584,
Pictures/IA75_G45.bmp,Pictures/IA75_G45.bmp,Pictures/IA75.bmp,"

"Don't gamble for this one."",0,safe,,,,,0,0,0,0,0,8,8,0,,,,,,,,,,,,,,,,,,,,,,,,,,,,,,,1695.326339327,None,1697.34833755,1698.8690108609999,1698.8522899750005,None,1700.4231080030004,None,1,1702.3782529070004,None,1702.3782529070004,None,1702.3782529070004,None,1703.063391453,None,1703.063391453,1704.066028925,1705.168941129,None,1705.168941129,None,left,1705.168941129,None,1706.7230336940002,None,None,None,0.5772596489996431,1.5145612249998521,,,,,,,,,,,,,103,001,18,1,2019_Dec_05_0924,Test,3.2.4,59.8396474574584,
Pictures/IA20_10_G95p.bmp,Pictures/IA20_10_G95p.bmp,Pictures/IA20.bmp,"

"Take a leap, I think you should gamble."",1,risk,,,,,0,0,0,0,0,9,9,17,,,,,,,,,,,,,,,,,,,,,,,,,,,,,,,1707.1742218460004,None,1709.2129330810003,1710.7336086320001,1710.7169085550004,None,1712.271003451,None,1,1714.2261469980003,None,1714.2261469980003,None,1714.2261469980003,None,1714.7274791210002,None,1714.7274791210002,1715.7301196119997,1716.833031835,None,1716.833031835,None,right,1716.833031835,None,None,None,1718.3704155599999,None,0.353361878999749,1.4904749580000498,,,,,,,,,,,,,103,001,18,1,2019_Dec_05_0924,Test,3.2.4,59.8396474574584,
Pictures/IA20_10_L95p.bmp,Pictures/IA20_10_L95p.bmp,Pictures/IA20.bmp,"

"Don't be tempted to gamble."",0,safe,,,,,0,0,0,0,0,10,10,3,,,,,,,,,,,,,,,,,,,,,,,,,,,,,,,1718.8550241110006,None,1720.87702516,1722.3976937790003,1722.3809816700004,None,1723.9517946300002,None,1,1725.9069369110002,None,1725.9069369110002,None,1725.9069369110002,None,1726.5586533690002,None,1726.5586533690002,1727.5612904110003,1728.6642042949998,None,1728.6642042949998,None,right,1728.6642042949998,None,None,None,1730.151461157,None,0.5445765710001069,1.443301713999972,,,,,,,,,,,,,103,001,18,1,2019_Dec_05_0924,Test,3.2.4,59.8396474574584,
Pictures/IA50_L20.bmp,Pictures/IA50_L20.bmp,Pictures/IA50.bmp,"

"Certainty is boring, take a risk!"",1,risk,,,,,0,0,0,0,0,11,11,4,,,,,,,,,,,,,,,,,,,,,,,,,,,,,,,1730.669485681,None,1732.6914819720005,1734.212157473,1734.1954591120002,None,1735.7662568630003,None,1,1737.7214222310004,None,1737.7214222310004,None,1737.7214222310004,None,1738.1392063450003,None,1738.1392063450003,1739.1418296410002,1740.2614520570005,None,1740.2614520570005,None,right,1740.2614520570005,None,None,None,1741.2640781190003,None,0.3140889360001893,0.9580625250000594,,,,,,,,,,,,,103,001,18,1,2019_Dec_05_0924,Test,3.2.4,59.8396474574584,
Pictures/IA100_L40.bmp,Pictures/IA100_L40.bmp,Pictures/IA100.bmp,"

"Think of the payoff, gamble!"",1,risk,,,,,0,0,0,0,0,12,12,10,,,,,,,,,,,,,,,,,,,,,,,,,,,,,,,1742.2834423180002,None,1744.3054398080003,1745.826117343,1745.8093961579998,None,1747.3802139099998,None,1,1749.335356269,None,1749.335356269,None,1749.335356269,None,1749.9035197880003,None,1749.9035197880003,1750.9061582470003,1752.0090710410004,None,1752.0090710410004,None,right,1752.0090710410004,None,None,None,1753.6968522839998,None,0.4441524310004752,1.6504237190001732,,,,,,,,,,,,,103,001,18,1,2019_Dec_05_0924,Test,3.2.4,59.8396474574584,
Pictures/IA100_G60.bmp,Pictures/IA100_G60.bmp,Pictures/IA100.bmp,"

"Be cautious, don't gamble for this one."",0,safe,,,,,0,0,0,0,0,13,13,15,,,,,,,,,,,,,,,,,,,,,,,,,,,,,,,1754.0143498349998,None,1756.036349948,1757.557023161,1757.5403272920003,None,1759.111121809,None,1,1761.0662900490006,None,1761.0662900490006,None,1761.0662900490006,None,1761.7514258660003,None,1761.7514258660003,1762.754065231,1763.8569779480003,None,1763.8569779480003,None,left,1763.8569779480003,None,1764.3582845870005,1765.862269835,None,None,0.5452195429998028,0.45852446499975485,,,,,,,,,,,,,103,001,18,1,2019_Dec_05_0924,Test,3.2.4,59.8396474574584,
Pictures/IA100_G40.bmp,Pictures/IA100_G40.bmp,Pictures/IA100.bmp,"

"Try your luck and gamble!"",1,risk,,,,,0,0,0,0,0,14,14,6,,,,,,,,,,,,,,,,,,,,,,,,,,,,,,,1765.878960172,None,1767.900957586,1769.4216265619998,1769.4049344249997,None,1770.9255995880003,None,1,1772.9308836850005,None,1772.9308836850005,None,1772.9308836850005,None,1773.3987863480006,None,1773.3987863480006,1774.4014198450004,1775.5210474430005,None,1775.5210474430005,None,left,1775.5210474430005,None,1776.1393403640004,1777.5096266050004,None,None,0.336625396999807,0.5784546129998489,,,,,,,,,,,,,103,001,18,1,2019_Dec_05_0924,Test,3.2.4,59.8396474574584,
Pictures/IA80_40_L95p.bmp,Pictures/IA80_40_L95p.bmp,Pictures/IA80.bmp,"

"Let's stay with the certain option."",0,safe,,,,,0,0,0,0,0,15,15,11,,,,,,,,,,,,,,,,,,,,,,,,,,,,,,,1777.5263240619997,None,1779.565033369,1781.0857070040001,1781.069012901,None,1782.623105365,None,1,1784.5782479830004,None,1784.5782479830004,None,1784.5782479830004,None,1785.263387901,None,1785.263387901,1786.266061636,1787.368938099,None,1787.368938099,None,right,1787.368938099,None,None,None,1787.8368502889998,1789.374230804,0.5452613490006115,0.4265628810007911,,,,,,,,,,,,,103,001,18,1,2019_Dec_05_0924,Test,3.2.4,59.8396474574584,
Pictures/IA75_G60.bmp,Pictures/IA75_G60.bmp,Pictures/IA75.bmp,"

"Make it exciting, take a chance!"",1,risk,,,,,0,0,0,0,0,16,16,8,,,,,,,,,,,,,,,,,,,,,,,,,,,,,,,1789.3909337100004,None,1791.412932358,1792.9336017240003,1792.9169074000001,None,1794.4877002160001,None,1,1796.4428697080002,None,1796.4428697080002,None,1796.4428697080002,None,1796.8773461520004,None,1796.8773461520004,1797.8799823730005,1798.982896296,None,1798.982896296,None,left,1798.982896296,None,1800.2863161320001,None,None,None,0.30464660699999513,1.2606081800004176,,,,,,,,,,,,,103,001,18,1,2019_Dec_05_0924,Test,3.2.4,59.8396474574584,
Pictures/IA50_L30.bmp,Pictures/IA50_L30.bmp,Pictures/IA50.bmp,"

"Take a leap, I think you should gamble."",1,risk,,,,,0,0,0,0,0,17,17,12,,,,,,,,,,,,,,,,,,,,,,,,,,,,,,,1800.9881640410003,None,1803.0101636,1804.5308359070004,1804.5141442250006,None,1806.0849363050002,None,1,1808.0401017089998,None,1808.0401017089998,None,1808.0401017089998,None,1808.5748305730003,None,1808.5748305730003,1809.5774698149999,1810.6803823090004,None,1810.6803823090004,None,None,1810.6803823090004,None,None,None,None,None,0.3874096340005053,,,,,,,,,,,,,,103,001,18,1,2019_Dec_05_0924,Test,3.2.4,59.8396474574584,
Pictures/IA40_20_G95p.bmp,Pictures/IA40_20_G95p.bmp,Pictures/IA40.bmp,"

"Hold back, stay with the safe choice."",0,safe,,,,,0,0,0,0,0,18,18,13,,,,,,,,,,,,,,,,,,,,,,,,,,,,,,,1812.6856673789998,None,1814.74108437,1816.2450627560002,1816.228338815,None,1817.7323021290003,None,1,1819.7375894850002,None,1819.7375894850002,None,1819.7375894850002,None,1820.1720781109998,None,1820.1720781109998,1821.1747229820003,1822.2776288610003,None,1822.2776288610003,None,left,1822.2776288610003,None,1822.745513543,1824.2828982,None,None,0.28992764799932047,0.4298675830004868,,,,,,,,,,,,,103,001,18,1,2019_Dec_05_0924,Test,3.2.4,59.8396474574584,
Pictures/IA25_L5.bmp,Pictures/IA25_L5.bmp,Pictures/IA25.bmp,"

"It would be smarter to choose the safe option."",0,safe,,,,,0,0,0,0,0,19,19,9,,,,,,,,,,,,,,,,,,,,,,,,,,,,,,,1824.299620615,None,1826.32161946,1827.8422898640001,1827.8255727619999,None,1829.3963951840005,None,1,1831.3515334700005,None,1831.3515334700005,None,1831.3515334700005,None,1832.1369382880002,None,1832.1369382880002,1833.1395800330001,1834.2759092249999,None,1834.2759092249999,None,right,1834.2759092249999,None,None,None,1834.7270936940004,1836.264478563,0.6359826819998489,0.4155863739997585,,,,,,,,,,,,,103,001,18,1,2019_Dec_05_0924,Test,3.2.4,59.8396474574584,
,,,,,,,,,,0,0,0,0,,,,,,,,,,,,,,,,,,,,,,,,,,,,,,,,,,,,,,,,,,,,,,,,,,,,,,,,,,,,,,,,,,,,,,,,,1836.5151599390001,None,return,31.168335301999832,1836.5151599390001,None,103,001,18,1,2019_Dec_05_0924,Test,3.2.4,59.8396474574584,
Pictures/IA25_G10.bmp,Pictures/IA25_G10.bmp,Pictures/IA25.bmp,"

"What's life without a little risk?"",1,risk,,,,,1,0,1,0,0,0,0,13,,,,,,,,,,,,,1867.8477275300002,None,1867.8477275300002,None,1867.8477275300002,None,right,12.56376684999941,1867.8477275300002,None,1867.8477275300002,None,1867.8477275300002,None,return,25.69156054999985,1867.8477275300002,None,1893.5822318770006,None,1895.5875484130001,1897.1081912509999,1897.0914771100006,None,1898.5954599349998,None,1,1900.617439879,None,1900.617439879,None,1900.617439879,None,1901.0686222120003,None,1901.0686222120003,1902.0712588140004,1903.174176611,None,1903.174176611,None,left,1903.174176611,None,1904.1768230730004,None,None,None,0.3060755070000596,0.9573263530000986,,,,,,,,,,,,,103,001,18,1,2019_Dec_05_0924,Test,3.2.4,59.8396474574584,
Pictures/IA50_L20.bmp,Pictures/IA50_L20.bmp,Pictures/IA50.bmp,"

"Certainty is boring, take a risk!"",1,risk,,,,,1,0,1,0,0,1,1,15,,,,,,,,,,,,,,,,,,,,,,,,,,,,,,,1905.1961635019998,None,1907.2181624000004,1908.7388353820006,1908.7221401420002,None,1910.2260891329997,None,1,1912.2481003600005,None,1912.2481003600005,None,1912.2481003600005,None,1912.6658535900006,None,1912.6658535900006,1913.668493827,1914.7714058780002,None,1914.7714058780002,None,right,1914.7714058780002,None,None,None,1915.1891700100005,1916.759986864,0.29941633099952014,0.3761001799994119,,,,,,,,,,,,,103,001,18,1,2019_Dec_05_0924,Test,3.2.4,59.8396474574584,
Pictures/IA75_G45.bmp,Pictures/IA75_G45.bmp,Pictures/IA75.bmp,"

"Don't gamble for this one."",0,safe,,,,,1,0,1,0,0,2,2,17,,,,,,,,,,,,,,,,,,,,,,,,,,,,,,,1916.7766856489998,None,1918.798685277,1920.3193596749998,1920.3026620010005,None,1921.8233277170002,None,1,1923.828614684,None,1923.828614684,None,1923.828614684,None,1924.4636294270003,None,1924.4636294270003,1925.466265981,1926.585909671,None,1926.585909671,None,left,1926.585909671,None,1927.8391908600006,None,None,None,0.5189052989999254,1.2095529289999831,,,,,,,,,,,,,103,001,18,1,2019_Dec_05_0924,Test,3.2.4,59.8396474574584,
Pictures/IA25_L5.bmp,Pictures/IA25_L5.bmp,Pictures/IA25.bmp,"

"It would be smarter to choose the safe option."",0,safe,,,,,1,0,1,0,0,3,3,2,,,,,,,,,,,,,,,,,,,,,,,,,,,,,,,1928.5911741380005,None,1930.61315724,1932.133830791,1932.1171345210005,None,1933.637796346,None,1,1935.6430804090005,None,1935.6430804090005,None,1935.6430804090005,None,1936.2112562419998,None,1936.2112562419998,1937.2138962520003,1938.3168073940005,None,1938.3168073940005,None,right,1938.3168073940005,None,None,None,1939.5032668909998,None,0.4324364770000102,1.1426976740003738,,,,,,,,,,,,,103,001,18,1,2019_Dec_05_0924,Test,3.2.4,59.8396474574584,
Pictures/IA75_G60.bmp,Pictures/IA75_G60.bmp,Pictures/IA75.bmp,"

"Make it exciting, take a chance!"",1,risk,,,,,1,0,1,0,0,4,4,12,,,,,,,,,,,,,,,,,,,,,,,,,,,,,,,1940.3220771040005,None,1942.34407543,1943.8647502570002,1943.8480530470006,None,1945.352002865,None,1,1947.3740181370003,None,1947.3740181370003,None,1947.3740181370003,None,1948.0758643690006,None,1948.0758643690006,1949.0785039410002,1950.1981248769998,None,1950.1981248769998,None,left,1950.1981248769998,None,1951.13390764,1952.2033957270005,None,None,0.5734924609996597,0.9013763410002866,,,,,,,,,,,,,103,001,18,1,2019_Dec_05_0924,Test,3.2.4,59.8396474574584,
Pictures/IA20_10_G95p.bmp,Pictures/IA20_10_G95p.bmp,Pictures/IA20.bmp,"

"Take a leap, I think you should gamble."",1,risk,,,,,1,0,1,0,0,5,5,8,,,,,,,,,,,,,,,,,,,,,,,,,,,,,,,1952.2201193090004,None,1954.242117848,1955.7627856730005,1955.74607208,None,1957.2500471620006,None,1,1959.2720340329997,None,1959.2720340329997,None,1959.2720340329997,None,1959.6897931170006,None,1959.6897931170006,1960.6924334570003,1961.8120580490004,None,1961.8120580490004,None,left,1961.8120580490004,None,1962.162976398,1963.800637929,None,None,0.2754775820003488,0.3114380480001273,,,,,,,,,,,,,103,001,18,1,2019_Dec_05_0924,Test,3.2.4,59.8396474574584,
Pictures/IA25_G15.bmp,Pictures/IA25_G15.bmp,Pictures/IA25.bmp,"

"I think you should take a gamble."",1,risk,,,,,1,0,1,0,0,6,6,11,,,,,,,,,,,,,,,,,,,,,,,,,,,,,,,1963.8173352740005,None,1965.839334714,1967.3600058150005,1967.3433104619999,None,1968.91411814,None,1,1970.869271982,None,1970.869271982,None,1970.869271982,None,1972.022303887,None,1972.022303887,1973.0249397030002,1974.1278483530004,None,1974.1278483530004,None,left,1974.1278483530004,None,1974.8129852110005,1976.1164349870005,None,None,1.0222460109998792,0.6356531660003384,,,,,,,,,,,,,103,001,18,1,2019_Dec_05_0924,Test,3.2.4,59.8396474574584,
Pictures/IA75_G15.bmp,Pictures/IA75_G15.bmp,Pictures/IA75.bmp,"

"Take a chance!"",1,risk,,,,,1,0,1,0,0,7,7,1,,,,,,,,,,,,,,,,,,,,,,,,,,,,,,,1976.1331285349997,None,1978.1551293769999,1979.675799232,1979.659105654,None,1981.229896031,None,1,1983.1850606910002,None,1983.1850606910002,None,1983.1850606910002,None,1983.5861347660002,None,1983.5861347660002,1984.5887751770006,1985.6916706970005,None,1985.6916706970005,None,right,1985.6916706970005,None,None,None,1986.7945663030005,None,0.3064529590001257,1.0638251459995445,,,,,,,,,,,,,103,001,18,1,2019_Dec_05_0924,Test,3.2.4,59.8396474574584,
Pictures/IA75_L45.bmp,Pictures/IA75_L45.bmp,Pictures/IA75.bmp,"

"Don't gamble for this one, play it safe."",0,safe,,,,,1,0,1,0,0,8,8,19,,,,,,,,,,,,,,,,,,,,,,,,,,,,,,,1987.7136513610003,None,1989.7356774930004,1991.2563218100004,1991.2396272000005,None,1992.8104232650003,None,1,1994.7655880869997,None,1994.7655880869997,None,1994.7655880869997,None,1995.2167738019998,None,1995.2167738019998,1996.2194166030004,1997.3223256210003,None,1997.3223256210003,None,left,1997.3223256210003,None,1998.074305483,1999.3276084440004,None,None,0.30992007199984073,0.7131758879995687,,,,,,,,,,,,,103,001,18,1,2019_Dec_05_0924,Test,3.2.4,59.8396474574584,
Pictures/IA25_L10.bmp,Pictures/IA25_L10.bmp,Pictures/IA25.bmp,"

"Dont be afraid to take the risk!"",1,risk,,,,,1,0,1,0,0,9,9,6,,,,,,,,,,,,,,,,,,,,,,,,,,,,,,,1999.344306117,None,2001.3663066320005,2002.886974252,2002.8702857580001,None,2004.4410782189998,None,1,2006.3962406620003,None,2006.3962406620003,None,2006.3962406620003,None,2006.9476753170002,None,2006.9476753170002,2007.950317281,2009.0532302150004,None,2009.0532302150004,None,right,2009.0532302150004,None,None,None,2009.4542971319997,2011.0418141219998,0.42327678200035734,0.36626503099978436,,,,,,,,,,,,,103,001,18,1,2019_Dec_05_0924,Test,3.2.4,59.8396474574584,
Pictures/IA50_G30.bmp,Pictures/IA50_G30.bmp,Pictures/IA50.bmp,"

"I think you should gamble."",1,risk,,,,,1,0,1,0,0,10,10,5,,,,,,,,,,,,,,,,,,,,,,,,,,,,,,,2011.0585106180006,None,2013.0805116020001,2014.601189805,2014.5844940349998,None,2016.1051507600005,None,1,2018.1104342180006,None,2018.1104342180006,None,2018.1104342180006,None,2018.5115074020005,None,2018.5115074020005,2019.514141398,2020.6170531420003,None,2020.6170531420003,None,left,2020.6170531420003,None,2022.1544231650005,None,None,None,0.2930769340000552,1.498442834999878,,,,,,,,,,,,,103,001,18,1,2019_Dec_05_0924,Test,3.2.4,59.8396474574584,
Pictures/IA100_G40.bmp,Pictures/IA100_G40.bmp,Pictures/IA100.bmp,"

"Try your luck and gamble!"",1,risk,,,,,1,0,1,0,0,11,11,3,,,,,,,,,,,,,,,,,,,,,,,,,,,,,,,2022.6390495860005,None,2024.661042619,2026.181720609,2026.164997076,None,2027.6689705,None,1,2029.6909677020003,None,2029.6909677020003,None,2029.6909677020003,None,2030.1588564100002,None,2030.1588564100002,2031.161494045,2032.2811196620005,None,2032.2811196620005,None,right,2032.2811196620005,None,2033.6012716699997,None,2033.7015395110002,None,0.3365372469997965,1.3863752549996207,,,,,,,,,,,,,103,001,18,1,2019_Dec_05_0924,Test,3.2.4,59.8396474574584,
Pictures/IA110_55_G95p.bmp,Pictures/IA110_55_G95p.bmp,Pictures/IA110.bmp,"

"Take a chance!"",1,risk,,,,,1,0,1,0,0,12,12,18,,,,,,,,,,,,,,,,,,,,,,,,,,,,,,,2034.286418527,None,2036.425429645,2037.9293290360001,2037.8959098599998,None,2039.3665071780006,None,1,2041.3383166920003,None,2041.3383166920003,None,2041.3383166920003,None,2041.68923764,None,2041.68923764,2042.6918808239998,2043.8114914160005,None,2043.8114914160005,None,left,2043.8114914160005,None,2044.4632117330002,2045.800028089,None,None,0.26519805199950497,0.6159725469997284,,,,,,,,,,,,,103,001,18,1,2019_Dec_05_0924,Test,3.2.4,59.8396474574584,
Pictures/IA100_G80.bmp,Pictures/IA100_G80.bmp,Pictures/IA100.bmp,"

"Why not gamble?"",1,risk,,,,,1,0,1,0,0,13,13,16,,,,,,,,,,,,,,,,,,,,,,,,,,,,,,,2045.8179421969999,None,2047.8554899090004,2049.3594620860003,2049.342741288,None,2050.8634082119997,None,1,2052.868703952,None,2052.868703952,None,2052.868703952,None,2053.4368648810005,None,2053.4368648810005,2054.43950528,2055.5591170340003,None,2055.5591170340003,None,right,2055.5591170340003,None,None,None,2056.4280812430006,2057.5476861380002,0.47080745699986437,0.8203865049999877,,,,,,,,,,,,,103,001,18,1,2019_Dec_05_0924,Test,3.2.4,59.8396474574584,
Pictures/IA20_10_L95p.bmp,Pictures/IA20_10_L95p.bmp,Pictures/IA20.bmp,"

"Don't be tempted to gamble."",0,safe,,,,,1,0,1,0,0,14,14,7,,,,,,,,,,,,,,,,,,,,,,,,,,,,,,,2057.564410856,None,2059.6031412910006,2061.107084479,2061.0903624330003,None,2062.6444798370003,None,1,2064.6163467820006,None,2064.6163467820006,None,2064.6163467820006,None,2064.9839755410003,None,2064.9839755410003,2065.986615838,2067.0895156240003,None,2067.0895156240003,None,right,2067.0895156240003,None,None,None,2067.4571498370005,2069.0780851950003,0.2671655940002893,0.3219839759995011,,,,,,,,,,,,,103,001,18,1,2019_Dec_05_0924,Test,3.2.4,59.8396474574584,
Pictures/IA75_L60.bmp,Pictures/IA75_L60.bmp,Pictures/IA75.bmp,"

"Why not take the gamble?"",1,risk,,,,,1,0,1,0,0,15,15,4,,,,,,,,,,,,,,,,,,,,,,,,,,,,,,,2069.094794212,None,2071.1335057730003,2072.6374655130003,2072.6207615680005,None,2074.1581451110005,None,1,2076.146733335,None,2076.146733335,None,2076.146733335,None,2076.531067363,None,2076.531067363,2077.5337068119998,2078.636629302,None,2078.636629302,None,left,2078.636629302,None,2079.204790535,2080.6251999180004,None,None,0.280765443000746,0.518873411999266,,,,,,,,,,,,,103,001,18,1,2019_Dec_05_0924,Test,3.2.4,59.8396474574584,
Pictures/IA75_L30.bmp,Pictures/IA75_L30.bmp,Pictures/IA75.bmp,"

"Hold back, stay with the safe choice."",0,safe,,,,,1,0,1,0,0,16,16,9,,,,,,,,,,,,,,,,,,,,,,,,,,,,,,,2080.641901205,None,2082.663899309,2084.1845712880004,2084.1678773330004,None,2085.738674362,None,1,2087.6938365759997,None,2087.6938365759997,None,2087.6938365759997,None,2088.1951439350005,None,2088.1951439350005,2089.197782782,2090.317404657,None,2090.317404657,None,right,2090.317404657,None,None,None,2090.8855826139998,2092.3226842980002,0.3576753750003263,0.526107742000022,,,,,,,,,,,,,103,001,18,1,2019_Dec_05_0924,Test,3.2.4,59.8396474574584,
Pictures/IA25_G20.bmp,Pictures/IA25_G20.bmp,Pictures/IA25.bmp,"

"I wouldn't gamble for this one. "",0,safe,,,,,1,0,1,0,0,17,17,0,,,,,,,,,,,,,,,,,,,,,,,,,,,,,,,2092.3394085070004,None,2094.3781271340004,2095.8820707350005,2095.865395017,None,2097.43616511,None,1,2099.3913362109997,None,2099.3913362109997,None,2099.3913362109997,None,2099.8258087760005,None,2099.8258087760005,2100.828448544,2101.931359524,None,2101.931359524,None,left,2101.931359524,None,2102.298977935,2103.9366390570003,None,None,0.31617971200012107,0.32014624099974753,,,,,,,,,,,,,103,001,18,1,2019_Dec_05_0924,Test,3.2.4,59.8396474574584,
Pictures/IA110_55_L95p.bmp,Pictures/IA110_55_L95p.bmp,Pictures/IA110.bmp,"

"Trust me, gamble!"",1,risk,,,,,1,0,1,0,0,18,18,14,,,,,,,,,,,,,,,,,,,,,,,,,,,,,,,2103.9533385120003,None,2105.9753349869998,2107.496007977,2107.4793124180005,None,2109.0501059340004,None,1,2111.0052745600005,None,2111.0052745600005,None,2111.0052745600005,None,2111.389620084,None,2111.389620084,2112.392259776,2113.4951694760002,None,2113.4951694760002,None,right,2113.4951694760002,None,None,None,2114.2304236580003,2115.500438041,0.2702412409998942,0.7003305999996883,,,,,,,,,,,,,103,001,18,1,2019_Dec_05_0924,Test,3.2.4,59.8396474574584,
Pictures/IA50_G10.bmp,Pictures/IA50_G10.bmp,Pictures/IA50.bmp,"

"Go with the safe option here!"",0,safe,,,,,1,0,1,0,0,19,19,10,,,,,,,,,,,,,,,,,,,,,,,,,,,,,,,2115.517160943,None,2117.555868581,2119.0765394790005,2119.059821553,None,2120.6139181480003,None,1,2122.569082121,None,2122.569082121,None,2122.569082121,None,2123.2876066280005,None,2123.2876066280005,2124.290280305,2125.393191614,None,2125.393191614,None,left,2125.393191614,None,2126.312275964,2127.381761183,None,None,0.6104321430002528,0.8743153479999819,,,,,,,,,,,,,103,001,18,1,2019_Dec_05_0924,Test,3.2.4,59.8396474574584,
,,,,,,,,,,1,0,1,0,,,,,,,,,,,,,,,,,,,,,,,,,,,,,,,,,,,,,,,,,,,,,,,,,,,,,,,,,,,,,,,,,,,,,,,,,2127.5488596249997,None,return,18.66262652000023,2127.5488596249997,None,103,001,18,1,2019_Dec_05_0924,Test,3.2.4,59.8396474574584,
Pictures/IA75_G30.bmp,Pictures/IA75_G30.bmp,Pictures/IA75.bmp,"

"Be bold, gamble!"",1,risk,,,,,2,0,2,0,0,0,0,18,,,,,,,,,,,,,2146.398537514,None,2146.398537514,None,2146.398537514,None,left,2.3169779440004277,2146.398537514,None,2146.398537514,None,2146.398537514,None,return,5.212754066999878,2146.398537514,None,2151.662409699,None,2153.6677051060005,2155.188376919,2155.171661487,None,2156.725753504,None,1,2158.680920496,None,2158.680920496,None,2158.680920496,None,2159.115388475,None,2159.115388475,2160.1180217700003,2161.220935542,None,2161.220935542,None,right,2161.220935542,None,None,None,2162.140030185,2163.209509026,0.3305885550007588,0.8705693530000644,,,,,,,,,,,,,103,001,18,1,2019_Dec_05_0924,Test,3.2.4,59.8396474574584,
Pictures/IA50_L10.bmp,Pictures/IA50_L10.bmp,Pictures/IA50.bmp,"

"Play it safe, don’t gamble!"",0,safe,,,,,2,0,2,0,0,1,1,16,,,,,,,,,,,,,,,,,,,,,,,,,,,,,,,2163.226226775,None,2165.248224598,2166.7688967800004,2166.7522026120005,None,2168.3397045440006,None,1,2170.278148419,None,2170.278148419,None,2170.278148419,None,2170.6959202280004,None,2170.6959202280004,2171.6985569400003,2172.801466309,None,2172.801466309,None,right,2172.801466309,None,None,None,2173.169086209,2174.8067451160005,0.24535598500006017,0.3220403940003962,,,,,,,,,,,,,103,001,18,1,2019_Dec_05_0924,Test,3.2.4,59.8396474574584,
Pictures/IA50_L20.bmp,Pictures/IA50_L20.bmp,Pictures/IA50.bmp,"

"Certainty is boring, take a risk!"",1,risk,,,,,2,0,2,0,0,2,2,0,,,,,,,,,,,,,,,,,,,,,,,,,,,,,,,2174.8234494,None,2176.8454421000006,2178.3661146619997,2178.3494215340006,None,2179.903501791,None,1,2181.8753676860006,None,2181.8753676860006,None,2181.8753676860006,None,2182.326555392,None,2182.326555392,2183.3291940360004,2184.4321050119997,None,2184.4321050119997,None,left,2184.4321050119997,None,2186.170026076,None,None,None,0.34414322699922195,1.6994076929995572,,,,,,,,,,,,,103,001,18,1,2019_Dec_05_0924,Test,3.2.4,59.8396474574584,
Pictures/IA25_L15.bmp,Pictures/IA25_L15.bmp,Pictures/IA25.bmp,"

"There's not much on the line here, gamble!"",1,risk,,,,,2,0,2,0,0,3,3,4,,,,,,,,,,,,,,,,,,,,,,,,,,,,,,,2186.454097537,None,2188.4760937990004,2189.9967669160005,2189.980069477,None,2191.53415255,None,1,2193.506019671,None,2193.506019671,None,2193.506019671,None,2193.94050606,None,2193.94050606,2194.9431453750003,2196.0460584760003,None,2196.0460584760003,None,left,2196.0460584760003,None,2197.55000407,None,None,None,0.2974895360002847,1.4694437649995962,,,,,,,,,,,,,103,001,18,1,2019_Dec_05_0924,Test,3.2.4,59.8396474574584,
Pictures/IA100_L60.bmp,Pictures/IA100_L60.bmp,Pictures/IA100.bmp,"

"You'd have a lot to lose, don't gamble."",0,safe,,,,,2,0,2,0,0,4,4,10,,,,,,,,,,,,,,,,,,,,,,,,,,,,,,,2198.06803709,None,2200.0900332290003,2201.6107048310005,2201.5940103580006,None,2203.148094395,None,1,2205.1199582910003,None,2205.1199582910003,None,2205.1199582910003,None,2205.6547128930006,None,2205.6547128930006,2206.657345885,2207.760260639,None,2207.760260639,None,left,2207.760260639,None,2208.6626306730004,2209.765541672,None,None,0.3875557729998036,0.8592576999999437,,,,,,,,,,,,,103,001,18,1,2019_Dec_05_0924,Test,3.2.4,59.8396474574584,
Pictures/IA25_L10.bmp,Pictures/IA25_L10.bmp,Pictures/IA25.bmp,"

"Dont be afraid to take the risk!"",1,risk,,,,,2,0,2,0,0,5,5,19,,,,,,,,,,,,,,,,,,,,,,,,,,,,,,,2209.782241348,None,2211.804238709,2213.3249110470006,2213.3082146860006,None,2214.8622968170002,None,1,2216.8341614420005,None,2216.8341614420005,None,2216.8341614420005,None,2217.452470243,None,2217.452470243,2218.455107201,2219.5580215870004,None,2219.5580215870004,None,right,2219.5580215870004,None,None,None,2219.9423799349997,2221.5632884200004,0.4893607140002132,0.3414794290001737,,,,,,,,,,,,,103,001,18,1,2019_Dec_05_0924,Test,3.2.4,59.8396474574584,
Pictures/IA80_40_L95p.bmp,Pictures/IA80_40_L95p.bmp,Pictures/IA80.bmp,"

"Let's stay with the certain option."",0,safe,,,,,2,0,2,0,0,6,6,9,,,,,,,,,,,,,,,,,,,,,,,,,,,,,,,2221.5800096450002,None,2223.7189935510005,2225.222944254,2225.1895275100005,None,2226.660068534,None,1,2228.6319320640005,None,2228.6319320640005,None,2228.6319320640005,None,2229.032988141,None,2229.032988141,2230.035625619,2231.1385465820003,None,2231.1385465820003,None,right,2231.1385465820003,None,None,None,2231.556305327,2233.1270940470004,0.2755804979997265,0.37694865399953414,,,,,,,,,,,,,103,001,18,1,2019_Dec_05_0924,Test,3.2.4,59.8396474574584,
Pictures/IA50_G10.bmp,Pictures/IA50_G10.bmp,Pictures/IA50.bmp,"

"Go with the safe option here!"",0,safe,,,,,2,0,2,0,0,7,7,13,,,,,,,,,,,,,,,,,,,,,,,,,,,,,,,2233.1438318910004,None,2235.16581513,2236.6864909430005,2236.6697680240004,None,2238.190458264,None,1,2240.1957413540003,None,2240.1957413540003,None,2240.1957413540003,None,2240.5132407480005,None,2240.5132407480005,2241.515887306,2242.635504011,None,2242.635504011,None,left,2242.635504011,None,2242.9697003310002,2244.640771644,None,None,0.21576628999991954,0.2880001710000215,,,,,,,,,,,,,103,001,18,1,2019_Dec_05_0924,Test,3.2.4,59.8396474574584,
Pictures/IA25_G5.bmp,Pictures/IA25_G5.bmp,Pictures/IA25.bmp,"

"Let's stay with the certain option."",0,safe,,,,,2,0,2,0,0,8,8,7,,,,,,,,,,,,,,,,,,,,,,,,,,,,,,,2244.6574937570003,None,2246.6794903640002,2248.2001624800005,2248.183449712,None,2249.7542612360003,None,1,2251.7094030220005,None,2251.7094030220005,None,2251.7094030220005,None,2252.093762091,None,2252.093762091,2253.096397452,2254.1993084800006,None,2254.1993084800006,None,left,2254.1993084800006,None,2255.4693076290005,None,None,None,0.25411022099979164,1.2361918759997934,,,,,,,,,,,,,103,001,18,1,2019_Dec_05_0924,Test,3.2.4,59.8396474574584,
Pictures/IA25_L20.bmp,Pictures/IA25_L20.bmp,Pictures/IA25.bmp,"

"Don't be tempted to gamble."",0,safe,,,,,2,0,2,0,0,9,9,3,,,,,,,,,,,,,,,,,,,,,,,,,,,,,,,2256.221304594,None,2258.24329862,2259.7639712440005,2259.7472509990002,None,2261.3013597130002,None,1,2263.2732208530006,None,2263.2732208530006,None,2263.2732208530006,None,2263.6408489390005,None,2263.6408489390005,2264.643482595,2265.763105285,None,2265.763105285,None,left,2265.763105285,None,2266.464967127,2267.7683860409998,None,None,0.2662824560002264,0.6563988040006734,,,,,,,,,,,,,103,001,18,1,2019_Dec_05_0924,Test,3.2.4,59.8396474574584,
Pictures/IA40_20_G95p.bmp,Pictures/IA40_20_G95p.bmp,Pictures/IA40.bmp,"

"Hold back, stay with the safe choice."",0,safe,,,,,2,0,2,0,0,10,10,15,,,,,,,,,,,,,,,,,,,,,,,,,,,,,,,2267.7851091950006,None,2269.8238615030004,2271.3444907840003,2271.3277745160003,None,2272.865151643,None,1,2274.8370233160003,None,2274.8370233160003,None,2274.8370233160003,None,2275.1879547610006,None,2275.1879547610006,2276.1905905640006,2277.293503283,None,2277.293503283,None,left,2277.293503283,None,2277.627701747,2279.298774625,None,None,0.23048980400017172,0.2860038879998683,,,,,,,,,,,,,103,001,18,1,2019_Dec_05_0924,Test,3.2.4,59.8396474574584,
Pictures/IA75_G15.bmp,Pictures/IA75_G15.bmp,Pictures/IA75.bmp,"

"Take a chance!"",1,risk,,,,,2,0,2,0,0,11,11,12,,,,,,,,,,,,,,,,,,,,,,,,,,,,,,,2279.315494104,None,2281.3374917270003,2282.858168848,2282.8414442190006,None,2284.395554136,None,1,2286.367416745,None,2286.367416745,None,2286.367416745,None,2286.7350554619998,None,2286.7350554619998,2287.7376899010005,2288.8406004099998,None,2288.8406004099998,None,left,2288.8406004099998,None,2290.277705161,None,None,None,0.2840913290001481,1.4029031889995167,,,,,,,,,,,,,103,001,18,1,2019_Dec_05_0924,Test,3.2.4,59.8396474574584,
Pictures/IA50_L40.bmp,Pictures/IA50_L40.bmp,Pictures/IA50.bmp,"

"That gamble doesn't sound too good, play it safe."",0,safe,,,,,2,0,2,0,0,12,12,1,,,,,,,,,,,,,,,,,,,,,,,,,,,,,,,2290.8458693290004,None,2292.8678642700006,2294.388542529,2294.371845848,None,2295.942638257,None,1,2297.8978072150003,None,2297.8978072150003,None,2297.8978072150003,None,2298.465962796,None,2298.465962796,2299.4686027220005,2300.571514499,None,2300.571514499,None,left,2300.571514499,None,2300.939137626,2302.5767938770005,None,None,0.41771494900058315,0.31999265200010996,,,,,,,,,,,,,103,001,18,1,2019_Dec_05_0924,Test,3.2.4,59.8396474574584,
Pictures/IA75_L15.bmp,Pictures/IA75_L15.bmp,Pictures/IA75.bmp,"

"Trust me, gamble!"",1,risk,,,,,2,0,2,0,0,13,13,8,,,,,,,,,,,,,,,,,,,,,,,,,,,,,,,2302.5934913769997,None,2304.6154876299997,2306.136178347,2306.119466391,None,2307.6902661800004,None,1,2309.645426223,None,2309.645426223,None,2309.645426223,None,2310.2637211680003,None,2310.2637211680003,2311.2663579790005,2312.385980524,None,2312.385980524,None,right,2312.385980524,None,None,None,2312.770322696,2314.3745507150006,0.5180827040003351,0.337520535999829,,,,,,,,,,,,,103,001,18,1,2019_Dec_05_0924,Test,3.2.4,59.8396474574584,
Pictures/IA80_40_G95p.bmp,Pictures/IA80_40_G95p.bmp,Pictures/IA80.bmp,"

"Think of the payoff, gamble!"",1,risk,,,,,2,0,2,0,0,14,14,11,,,,,,,,,,,,,,,,,,,,,,,,,,,,,,,2314.391248125,None,2316.413247961,2317.9339192859998,2317.9172219680004,None,2319.4880159060003,None,1,2321.4431860510003,None,2321.4431860510003,None,2321.4431860510003,None,2321.8442397710005,None,2321.8442397710005,2322.846876265,2323.949787972,None,2323.949787972,None,left,2323.949787972,None,2324.685044897,2325.9550556510003,None,None,0.2803217640002913,0.6857200260001264,,,,,,,,,,,,,103,001,18,1,2019_Dec_05_0924,Test,3.2.4,59.8396474574584,
Pictures/IA40_20_L95p.bmp,Pictures/IA40_20_L95p.bmp,Pictures/IA40.bmp,"

"Trust me, gamble!"",1,risk,,,,,2,0,2,0,0,15,15,6,,,,,,,,,,,,,,,,,,,,,,,,,,,,,,,2325.971778929,None,2327.993775707,2329.5144477579997,2329.4977296220004,None,2331.0685444830006,None,1,2333.023688208,None,2333.023688208,None,2333.023688208,None,2333.408033597,None,2333.408033597,2334.410671052,2335.5135822890006,None,2335.5135822890006,None,right,2335.5135822890006,None,None,None,2336.1318748350004,2337.5021689390005,0.28382964999946125,0.5779204370001025,,,,,,,,,,,,,103,001,18,1,2019_Dec_05_0924,Test,3.2.4,59.8396474574584,
Pictures/IA50_G20.bmp,Pictures/IA50_G20.bmp,Pictures/IA50.bmp,"

"Let's venture and take a risk!"",1,risk,,,,,2,0,2,0,0,16,16,17,,,,,,,,,,,,,,,,,,,,,,,,,,,,,,,2337.5188626240006,None,2339.5408637130004,2341.061532113,2341.0448402419997,None,2342.598916629,None,None,2344.570784689,None,2344.570784689,None,2344.570784689,None,None,None,None,None,2347.695702408,None,2347.695702408,None,left,2347.695702408,None,2349.634122722,None,None,None,,1.8918061529993793,,,,,,,,,,,,,103,001,18,1,2019_Dec_05_0924,Test,3.2.4,59.8396474574584,
Pictures/IA20_10_L95p.bmp,Pictures/IA20_10_L95p.bmp,Pictures/IA20.bmp,"

"Don't be tempted to gamble."",0,safe,,,,,2,0,2,0,0,17,17,5,,,,,,,,,,,,,,,,,,,,,,,,,,,,,,,2349.71768858,None,2351.7731074900003,2353.2770689139998,2353.260347837,None,2354.8478645800005,None,None,2356.7696102500004,None,2356.7696102500004,None,2356.7696102500004,None,None,None,None,None,2359.861076632,None,2359.861076632,None,right,2359.861076632,None,None,None,2360.3624073150004,2361.8663739250005,,0.45442933499998617,,,,,,,,,,,,,103,001,18,1,2019_Dec_05_0924,Test,3.2.4,59.8396474574584,
Pictures/IA100_L80.bmp,Pictures/IA100_L80.bmp,Pictures/IA100.bmp,"

"Go all in!"",1,risk,,,,,2,0,2,0,0,18,18,2,,,,,,,,,,,,,,,,,,,,,,,,,,,,,,,2361.883067822,None,2363.905065948,2365.425738895,2365.409042022,None,2366.996544849,None,2,2368.934989464,None,2368.934989464,None,2368.934989464,None,None,None,None,None,2370.2885561900002,None,2370.2885561900002,None,left,2370.2885561900002,None,2370.923572668,2372.293839741,None,None,1.2045309899995118,0.5949573549996785,,,,,,,,,,,,,103,001,18,1,2019_Dec_05_0924,Test,3.2.4,59.8396474574584,
Pictures/IA100_G80.bmp,Pictures/IA100_G80.bmp,Pictures/IA100.bmp,"

"Why not gamble?"",1,risk,,,,,2,0,2,0,0,19,19,14,,,,,,,,,,,,,,,,,,,,,,,,,,,,,,,2372.310557046,None,2374.332557453,2375.8532329500003,2375.8365099540006,None,2377.3739054770003,None,2,2379.3624694640002,None,2379.3624694640002,None,2379.3624694640002,None,None,None,None,None,2379.9640523220005,None,2379.9640523220005,None,right,2379.9640523220005,None,None,None,2380.749452055,2381.969343686,0.4410448360004011,0.7434567800000877,,,,,,,,,,,,,103,001,18,1,2019_Dec_05_0924,Test,3.2.4,59.8396474574584,
,,,,,,,,,,2,0,2,0,,,,,,,,,,,,,,,,,,,,,,,,,,,,,,,,,,,,,,,,,,,,,,,,,,,,,,,,,,,,,,,,,,,,,,,,,2382.136456511,None,return,42.51503478500035,2382.136456511,None,103,001,18,1,2019_Dec_05_0924,Test,3.2.4,59.8396474574584,
Pictures/IA100_G20.bmp,Pictures/IA100_G20.bmp,Pictures/IA100.bmp,"

"Go ahead and gamble!"",1,risk,,,,,3,0,3,0,0,0,0,0,,,,,,,,,,,,,2424.8323010840004,None,2424.8323010840004,None,2424.8323010840004,None,left,1.2272009970001818,2424.8323010840004,None,2424.8323010840004,None,2424.8323010840004,None,return,1.8909730170007606,2424.8323010840004,None,2426.787439793,None,2428.792738934,2430.313407025,2430.296687612,None,2431.834072251,None,1,2433.805941159,None,2433.805941159,None,2433.805941159,None,2434.240412536,None,2434.240412536,2435.243051304,2436.3459641400004,None,2436.3459641400004,None,right,2436.3459641400004,None,None,None,2437.3318919900003,None,0.34158481099984783,0.9375374319997718,,,,,,,,,,,,,103,001,18,1,2019_Dec_05_0924,Test,3.2.4,59.8396474574584,
Pictures/IA50_L30.bmp,Pictures/IA50_L30.bmp,Pictures/IA50.bmp,"

"Take a leap, I think you should gamble."",1,risk,,,,,3,0,3,0,0,1,1,19,,,,,,,,,,,,,,,,,,,,,,,,,,,,,,,2438.3512605980004,None,2440.3732515,2441.893923957,2441.877204955,None,2443.4313098270004,None,1,2445.4031755350006,None,2445.4031755350006,None,2445.4031755350006,None,2445.7707978959997,None,2445.7707978959997,2446.7734359840006,2447.8763602220006,None,2447.8763602220006,None,left,2447.8763602220006,None,2448.177145046,2449.881640601,None,None,0.22433837999960815,0.2631522279998535,,,,,,,,,,,,,103,001,18,1,2019_Dec_05_0924,Test,3.2.4,59.8396474574584,
Pictures/IA75_G30.bmp,Pictures/IA75_G30.bmp,Pictures/IA75.bmp,"

"Be bold, gamble!"",1,risk,,,,,3,0,3,0,0,2,2,6,,,,,,,,,,,,,,,,,,,,,,,,,,,,,,,2449.8983384470002,None,2451.9203353049998,2453.441006319,2453.4243121830004,None,2454.9282639900002,None,1,2456.9502706920002,None,2456.9502706920002,None,2456.9502706920002,None,2457.3513260710006,None,2457.3513260710006,2458.3539644869998,2459.4902975100003,None,2459.4902975100003,None,left,2459.4902975100003,None,2460.5764950950006,None,None,None,0.3092401849999078,1.0491960509998535,,,,,,,,,,,,,103,001,18,1,2019_Dec_05_0924,Test,3.2.4,59.8396474574584,
Pictures/IA25_G10.bmp,Pictures/IA25_G10.bmp,Pictures/IA25.bmp,"

"What's life without a little risk?"",1,risk,,,,,3,0,3,0,0,3,3,8,,,,,,,,,,,,,,,,,,,,,,,,,,,,,,,2461.512276425,None,2463.5342729080003,2465.0382457670003,2465.021531096,None,2466.5923374270005,None,1,2468.564197173,None,2468.564197173,None,2468.564197173,None,2468.9986735840002,None,2468.9986735840002,2470.0013095940003,2471.1042245320004,None,2471.1042245320004,None,right,2471.1042245320004,None,None,None,2471.5052924620004,2473.109514259,0.3113142289994357,0.3632759949996398,,,,,,,,,,,,,103,001,18,1,2019_Dec_05_0924,Test,3.2.4,59.8396474574584,
Pictures/IA50_L40.bmp,Pictures/IA50_L40.bmp,Pictures/IA50.bmp,"

"That gamble doesn't sound too good, play it safe."",0,safe,,,,,3,0,3,0,0,4,4,12,,,,,,,,,,,,,,,,,,,,,,,,,,,,,,,2473.12621311,None,2475.148219218,2476.6688827750004,2476.652189935,None,2478.156146245,None,1,2480.178146696,None,2480.178146696,None,2480.178146696,None,2480.612625672,None,2480.612625672,2481.615261049,2482.7181728140004,None,2482.7181728140004,None,left,2482.7181728140004,None,2483.0857933340003,2484.723451901,None,None,0.2813653780003733,0.3253354459993716,,,,,,,,,,,,,103,001,18,1,2019_Dec_05_0924,Test,3.2.4,59.8396474574584,
Pictures/IA40_20_G95p.bmp,Pictures/IA40_20_G95p.bmp,Pictures/IA40.bmp,"

"Hold back, stay with the safe choice."",0,safe,,,,,3,0,3,0,0,5,5,13,,,,,,,,,,,,,,,,,,,,,,,,,,,,,,,2484.7401528709997,None,2486.762148293,2488.2828221,2488.2661246140005,None,2489.7700742300003,None,1,2491.792083667,None,2491.792083667,None,2491.792083667,None,2492.226548208,None,2492.226548208,2493.229186054,2494.3321013570003,None,2494.3321013570003,None,left,2494.3321013570003,None,2494.6830202270003,2496.320678469,None,None,0.2914260950001335,0.3114036050001232,,,,,,,,,,,,,103,001,18,1,2019_Dec_05_0924,Test,3.2.4,59.8396474574584,
Pictures/IA50_L20.bmp,Pictures/IA50_L20.bmp,Pictures/IA50.bmp,"

"Certainty is boring, take a risk!"",1,risk,,,,,3,0,3,0,0,6,6,1,,,,,,,,,,,,,,,,,,,,,,,,,,,,,,,2496.3373794200006,None,2498.3593769500003,2499.8800469260004,2499.8633521910006,None,2501.400724071,None,1,2503.3893169600005,None,2503.3893169600005,None,2503.3893169600005,None,2503.807065954,None,2503.807065954,2504.8097078270002,2505.912616222,None,2505.912616222,None,right,2505.912616222,None,None,None,2506.948685583,None,0.2941920740004207,0.9948841280001943,,,,,,,,,,,,,103,001,18,1,2019_Dec_05_0924,Test,3.2.4,59.8396474574584,
Pictures/IA100_L80.bmp,Pictures/IA100_L80.bmp,Pictures/IA100.bmp,"

"Go all in!"",1,risk,,,,,3,0,3,0,0,7,7,18,,,,,,,,,,,,,,,,,,,,,,,,,,,,,,,2507.934620369,None,2509.956618954,2511.4772885190005,2511.460571654,None,2512.964545795,None,1,2514.986526715,None,2514.986526715,None,2514.986526715,None,2515.4042934240006,None,2515.4042934240006,2516.406956351,2517.5098409,None,2517.5098409,None,left,2517.5098409,None,2517.9777502710003,2519.515133713,None,None,0.3369884579997233,0.4216633770001863,,,,,,,,,,,,,103,001,18,1,2019_Dec_05_0924,Test,3.2.4,59.8396474574584,
Pictures/IA75_G45.bmp,Pictures/IA75_G45.bmp,Pictures/IA75.bmp,"

"Don't gamble for this one."",0,safe,,,,,3,0,3,0,0,8,8,17,,,,,,,,,,,,,,,,,,,,,,,,,,,,,,,2519.531835367,None,2521.553827738,2523.0745010970004,2523.057806015,None,2524.6285995260005,None,1,2526.58376504,None,2526.58376504,None,2526.58376504,None,2527.051643844,None,2527.051643844,2528.0542885510004,2529.157201829,None,2529.157201829,None,right,2529.157201829,None,None,None,2530.4439198890004,None,0.36373851300049864,1.2462929979992623,,,,,,,,,,,,,103,001,18,1,2019_Dec_05_0924,Test,3.2.4,59.8396474574584,
Pictures/IA110_55_L95p.bmp,Pictures/IA110_55_L95p.bmp,Pictures/IA110.bmp,"

"Trust me, gamble!"",1,risk,,,,,3,0,3,0,0,9,9,16,,,,,,,,,,,,,,,,,,,,,,,,,,,,,,,2531.1792030080005,None,2533.201199895,2534.721871187,2534.7051532200003,None,2536.2425485680005,None,1,2538.231111768,None,2538.231111768,None,2538.231111768,None,2538.615457559,None,2538.615457559,2539.618093063,2540.7210064270002,None,2540.7210064270002,None,right,2540.7210064270002,None,None,None,2541.088648698,2542.7095871090005,0.2763968009994642,0.33049436599958426,,,,,,,,,,,,,103,001,18,1,2019_Dec_05_0924,Test,3.2.4,59.8396474574584,
Pictures/IA100_G80.bmp,Pictures/IA100_G80.bmp,Pictures/IA100.bmp,"

"Why not gamble?"",1,risk,,,,,3,0,3,0,0,10,10,5,,,,,,,,,,,,,,,,,,,,,,,,,,,,,,,2542.726290531,None,2544.748281888,2546.268956062,2546.2522581949997,None,2547.772917374,None,1,2549.7782044690002,None,2549.7782044690002,None,2549.7782044690002,None,2550.162562318,None,2550.162562318,2551.1652024060004,2552.284826723,None,2552.284826723,None,right,2552.284826723,None,None,None,2552.669166883,2554.273392168,0.2893192289993749,0.3426750369999354,,,,,,,,,,,,,103,001,18,1,2019_Dec_05_0924,Test,3.2.4,59.8396474574584,
Pictures/IA100_L60.bmp,Pictures/IA100_L60.bmp,Pictures/IA100.bmp,"

"You'd have a lot to lose, don't gamble."",0,safe,,,,,3,0,3,0,0,11,11,14,,,,,,,,,,,,,,,,,,,,,,,,,,,,,,,2554.290090409,None,2556.3120877110005,2557.8327584480003,2557.8160627830002,None,2559.353438718,None,1,2561.3420221779998,None,2561.3420221779998,None,2561.3420221779998,None,2562.094003391,None,2562.094003391,2563.0966400920006,2564.1995545520003,None,2564.1995545520003,None,left,2564.1995545520003,None,2564.817844802,2566.188110115,None,None,0.6054901820007217,0.5719477869997718,,,,,,,,,,,,,103,001,18,1,2019_Dec_05_0924,Test,3.2.4,59.8396474574584,
Pictures/IA25_G15.bmp,Pictures/IA25_G15.bmp,Pictures/IA25.bmp,"

"I think you should take a gamble."",1,risk,,,,,3,0,3,0,0,12,12,9,,,,,,,,,,,,,,,,,,,,,,,,,,,,,,,2566.204834045,None,2568.2268330839997,2569.7475009930004,2569.730782029,None,2571.3016050610004,None,1,2573.2567422290003,None,2573.2567422290003,None,2573.2567422290003,None,2573.6410968640002,None,2573.6410968640002,2574.643736328,2575.7466475090005,None,2575.7466475090005,None,right,2575.7466475090005,None,None,None,2576.164412469,2577.735203923,0.2587708520004526,0.36885869599973375,,,,,,,,,,,,,103,001,18,1,2019_Dec_05_0924,Test,3.2.4,59.8396474574584,
Pictures/IA100_L40.bmp,Pictures/IA100_L40.bmp,Pictures/IA100.bmp,"

"Think of the payoff, gamble!"",1,risk,,,,,3,0,3,0,0,13,13,3,,,,,,,,,,,,,,,,,,,,,,,,,,,,,,,2577.7519263490003,None,2579.773924929,2581.294598941,2581.2778761030004,None,2582.8319805380006,None,1,2584.803846834,None,2584.803846834,None,2584.803846834,None,2585.255021197,None,2585.255021197,2586.257662563,2587.360572587,None,2587.360572587,None,right,2587.360572587,None,None,None,2587.711493711,2589.3491541800004,0.31967083100062155,0.3069302150006479,,,,,,,,,,,,,103,001,18,1,2019_Dec_05_0924,Test,3.2.4,59.8396474574584,
Pictures/IA20_10_L95p.bmp,Pictures/IA20_10_L95p.bmp,Pictures/IA20.bmp,"

"Don't be tempted to gamble."",0,safe,,,,,3,0,3,0,0,14,14,11,,,,,,,,,,,,,,,,,,,,,,,,,,,,,,,2589.3658537480005,None,2591.387853894,2592.908521587,2592.891824949,None,2594.4124905360004,None,1,2596.41777207,None,2596.41777207,None,2596.41777207,None,2596.7854055039998,None,2596.7854055039998,2597.7880453750004,2598.907666659,None,2598.907666659,None,right,2598.907666659,None,None,None,2599.3755744190003,2600.9129608040002,0.24973177900028531,0.4238405030000649,,,,,,,,,,,,,103,001,18,1,2019_Dec_05_0924,Test,3.2.4,59.8396474574584,
Pictures/IA75_G15.bmp,Pictures/IA75_G15.bmp,Pictures/IA75.bmp,"

"Take a chance!"",1,risk,,,,,3,0,3,0,0,15,15,2,,,,,,,,,,,,,,,,,,,,,,,,,,,,,,,2600.929656698,None,2602.9516802489998,2604.4723252969998,2604.455633998,None,2605.993005575,None,1,2607.9815891380003,None,2607.9815891380003,None,2607.9815891380003,None,2608.466186654,None,2608.466186654,2609.468829714,2610.5717359090004,None,2610.5717359090004,None,right,2610.5717359090004,None,None,None,2611.975443047,None,0.39792041500004416,1.359768645999793,,,,,,,,,,,,,103,001,18,1,2019_Dec_05_0924,Test,3.2.4,59.8396474574584,
Pictures/IA110_55_G95p.bmp,Pictures/IA110_55_G95p.bmp,Pictures/IA110.bmp,"

"Take a chance!"",1,risk,,,,,3,0,3,0,0,16,16,4,,,,,,,,,,,,,,,,,,,,,,,,,,,,,,,2612.5937288140003,None,2614.6157222290003,2616.136414584,2616.11969882,None,2617.6570720380005,None,1,2619.6456592590002,None,2619.6456592590002,None,2619.6456592590002,None,2619.979873016,None,2619.979873016,2620.9825091000002,2622.0854195760003,None,2622.0854195760003,None,left,2622.0854195760003,None,2622.703714159,2624.073976988,None,None,0.277853954999955,0.5820835000004081,,,,,,,,,,,,,103,001,18,1,2019_Dec_05_0924,Test,3.2.4,59.8396474574584,
Pictures/IA75_L15.bmp,Pictures/IA75_L15.bmp,Pictures/IA75.bmp,"

"Trust me, gamble!"",1,risk,,,,,3,0,3,0,0,17,17,15,,,,,,,,,,,,,,,,,,,,,,,,,,,,,,,2624.090699634,None,2626.112696286,2627.633370021,2627.6166548950005,None,2629.1540559610003,None,1,2631.1426214040002,None,2631.1426214040002,None,2631.1426214040002,None,2631.5102454260004,None,2631.5102454260004,2632.512879784,2633.6157915390004,None,2633.6157915390004,None,right,2633.6157915390004,None,None,None,2633.9834370460003,2635.621071943,0.26887897699998575,0.3237120039993897,,,,,,,,,,,,,103,001,18,1,2019_Dec_05_0924,Test,3.2.4,59.8396474574584,
Pictures/IA100_G60.bmp,Pictures/IA100_G60.bmp,Pictures/IA100.bmp,"

"Be cautious, don't gamble for this one."",0,safe,,,,,3,0,3,0,0,18,18,10,,,,,,,,,,,,,,,,,,,,,,,,,,,,,,,2635.637795271,None,2637.6597895940004,2639.163741724,2639.147054577,None,2640.7178512480004,None,1,2642.689714417,None,2642.689714417,None,2642.689714417,None,2643.0740608329997,None,2643.0740608329997,2644.076697828,2645.1796136250005,None,2645.1796136250005,None,left,2645.1796136250005,None,2646.616712502,None,None,None,0.24179626000022836,1.3919018340002367,,,,,,,,,,,,,103,001,18,1,2019_Dec_05_0924,Test,3.2.4,59.8396474574584,
Pictures/IA25_L5.bmp,Pictures/IA25_L5.bmp,Pictures/IA25.bmp,"

"It would be smarter to choose the safe option."",0,safe,,,,,3,0,3,0,0,19,19,7,,,,,,,,,,,,,,,,,,,,,,,,,,,,,,,2647.2015871680005,None,2649.2235829,2650.744260202,2650.7275612350004,None,2652.2816388359997,None,1,2654.2535078660003,None,2654.2535078660003,None,2654.2535078660003,None,2654.6545763230006,None,2654.6545763230006,2655.6572119029997,2656.7601240840004,None,2656.7601240840004,None,right,2656.7601240840004,None,None,None,2657.0442018310005,2658.7486817569998,0.2620011200006047,0.24337596199984546,,,,,,,,,,,,,103,001,18,1,2019_Dec_05_0924,Test,3.2.4,59.8396474574584,
,,,,,,,,,,3,0,3,0,,,,,,,,,,,,,,,,,,,,,,,,,,,,,,,,,,,,,,,,,,,,,,,,,,,,,,,,,,,,,,,,,,,,,,,,,2658.915806582,None,return,18.463687460000074,2658.915806582,None,103,001,18,1,2019_Dec_05_0924,Test,3.2.4,59.8396474574584,
Pictures/IA25_G10.bmp,Pictures/IA25_G10.bmp,Pictures/IA25.bmp,"

"What's life without a little risk?"",1,risk,,,,,4,0,4,0,0,0,0,14,,,,,,,,,,,,,2677.5315241099997,None,2677.5315241099997,None,2677.5315241099997,None,right,6.567969821999213,2677.5315241099997,None,2677.5315241099997,None,2677.5315241099997,None,return,11.079766150000069,2677.5315241099997,None,2688.6775600170004,None,2690.6828520830004,2692.203519365,2692.1868023690004,None,2693.674045003,None,1,2695.6960717090005,None,2695.6960717090005,None,2695.6960717090005,None,2696.0970995650005,None,2696.0970995650005,2697.099735824,2698.202655096,None,2698.202655096,None,right,2698.202655096,None,None,None,2698.8543630660006,2700.191219603,0.259453196999857,0.6088462379993871,,,,,,,,,,,,,103,001,18,1,2019_Dec_05_0924,Test,3.2.4,59.8396474574584,
Pictures/IA25_G5.bmp,Pictures/IA25_G5.bmp,Pictures/IA25.bmp,"

"Let's stay with the certain option."",0,safe,,,,,4,0,4,0,0,1,1,5,,,,,,,,,,,,,,,,,,,,,,,,,,,,,,,2700.2079458320004,None,2702.229936717,2703.750612725,2703.7338906860004,None,2705.254579368,None,1,2707.25986612,None,2707.25986612,None,2707.25986612,None,2707.694326559,None,2707.694326559,2708.696968079,2709.799892393,None,2709.799892393,None,left,2709.799892393,None,2710.83594884,None,None,None,0.2876468340000429,0.9876067720006176,,,,,,,,,,,,,103,001,18,1,2019_Dec_05_0924,Test,3.2.4,59.8396474574584,
Pictures/IA25_L20.bmp,Pictures/IA25_L20.bmp,Pictures/IA25.bmp,"

"Don't be tempted to gamble."",0,safe,,,,,4,0,4,0,0,2,2,17,,,,,,,,,,,,,,,,,,,,,,,,,,,,,,,2711.8218772950004,None,2713.843875144,2715.3645461800006,2715.3478267950004,None,2716.851802825,None,1,2718.873785306,None,2718.873785306,None,2718.873785306,None,2719.3249737100004,None,2719.3249737100004,2720.3276115260005,2721.430554746,None,2721.430554746,None,left,2721.430554746,None,2721.7814440439997,2723.4191026770004,None,None,0.3377311610001925,0.31693022699982976,,,,,,,,,,,,,103,001,18,1,2019_Dec_05_0924,Test,3.2.4,59.8396474574584,
Pictures/IA25_L10.bmp,Pictures/IA25_L10.bmp,Pictures/IA25.bmp,"

"Dont be afraid to take the risk!"",1,risk,,,,,4,0,4,0,0,3,3,4,,,,,,,,,,,,,,,,,,,,,,,,,,,,,,,2723.4358024089997,None,2725.4577983340005,2726.9784727320002,2726.9617754380006,None,2728.499151739,None,1,2730.4877351470004,None,2730.4877351470004,None,2730.4877351470004,None,2730.8887886270004,None,2730.8887886270004,2731.8914305400003,2732.9943409960006,None,2732.9943409960006,None,right,2732.9943409960006,None,None,None,2733.996928898,None,0.28377367699977185,0.9691772149999451,,,,,,,,,,,,,103,001,18,1,2019_Dec_05_0924,Test,3.2.4,59.8396474574584,
Pictures/IA25_G15.bmp,Pictures/IA25_G15.bmp,Pictures/IA25.bmp,"

"I think you should take a gamble."",1,risk,,,,,4,0,4,0,0,4,4,0,,,,,,,,,,,,,,,,,,,,,,,,,,,,,,,2735.0163295889997,None,2737.0383283,2738.55900242,2738.5422793280004,None,2740.0629685660006,None,1,2742.06825594,None,2742.06825594,None,2742.06825594,None,2742.452590424,None,2742.452590424,2743.4552213920006,2744.558130724,None,2744.558130724,None,right,2744.558130724,None,None,None,2745.276690015,2746.54669932,0.2632521129999077,0.6693746660002944,,,,,,,,,,,,,103,001,18,1,2019_Dec_05_0924,Test,3.2.4,59.8396474574584,
Pictures/IA100_G80.bmp,Pictures/IA100_G80.bmp,Pictures/IA100.bmp,"

"Why not gamble?"",1,risk,,,,,4,0,4,0,0,5,5,13,,,,,,,,,,,,,,,,,,,,,,,,,,,,,,,2746.563424004,None,2748.5854243740005,2750.1060908050003,2750.089381713,None,2751.626768948,None,1,2753.6153323750004,None,2753.6153323750004,None,2753.6153323750004,None,2753.999688823,None,2753.999688823,2755.0023269840003,2756.105233753,None,2756.105233753,None,right,2756.105233753,None,None,None,2756.6901077029997,2758.0938082150005,0.2921836089999488,0.5462698499995895,,,,,,,,,,,,,103,001,18,1,2019_Dec_05_0924,Test,3.2.4,59.8396474574584,
Pictures/IA40_20_L95p.bmp,Pictures/IA40_20_L95p.bmp,Pictures/IA40.bmp,"

"Trust me, gamble!"",1,risk,,,,,4,0,4,0,0,6,6,15,,,,,,,,,,,,,,,,,,,,,,,,,,,,,,,2758.110510376,None,2760.132500535,2761.653175695,2761.636481136,None,2763.1738476750006,None,1,2765.162436828,None,2765.162436828,None,2765.162436828,None,2765.5467816110004,None,2765.5467816110004,2766.549419076,2767.6523321760005,None,2767.6523321760005,None,right,2767.6523321760005,None,None,None,2768.003250897,2769.6408922810006,0.2730782949993227,0.3111616309997771,,,,,,,,,,,,,103,001,18,1,2019_Dec_05_0924,Test,3.2.4,59.8396474574584,
Pictures/IA80_40_L95p.bmp,Pictures/IA80_40_L95p.bmp,Pictures/IA80.bmp,"

"Let's stay with the certain option."",0,safe,,,,,4,0,4,0,0,7,7,16,,,,,,,,,,,,,,,,,,,,,,,,,,,,,,,2769.6576122369997,None,2771.679607807,2773.200277737,2773.183560644,None,2774.720954386,None,1,2776.7095174370006,None,2776.7095174370006,None,2776.7095174370006,None,2777.144016587,None,2777.144016587,2778.1466556679998,2779.2495574020004,None,2779.2495574020004,None,right,2779.2495574020004,None,None,None,2780.385869633,None,0.29398943399974087,1.0979436050001823,,,,,,,,,,,,,103,001,18,1,2019_Dec_05_0924,Test,3.2.4,59.8396474574584,
Pictures/IA50_L10.bmp,Pictures/IA50_L10.bmp,Pictures/IA50.bmp,"

"Play it safe, don’t gamble!"",0,safe,,,,,4,0,4,0,0,8,8,12,,,,,,,,,,,,,,,,,,,,,,,,,,,,,,,2781.2548238830004,None,2783.2768204490003,2784.797490598,2784.780796782,None,2786.31816763,None,1,2788.306759686,None,2788.306759686,None,2788.306759686,None,2788.6409707880002,None,2788.6409707880002,2789.643605178,2790.763227446,None,2790.763227446,None,right,2790.763227446,None,None,None,2791.130847853,2792.7685082650005,0.20875035899916838,0.3282731450008214,,,,,,,,,,,,,103,001,18,1,2019_Dec_05_0924,Test,3.2.4,59.8396474574584,
Pictures/IA100_L80.bmp,Pictures/IA100_L80.bmp,Pictures/IA100.bmp,"

"Go all in!"",1,risk,,,,,4,0,4,0,0,9,9,11,,,,,,,,,,,,,,,,,,,,,,,,,,,,,,,2792.7852060450005,None,2794.807201765,2796.3278803450003,2796.3111833020002,None,2797.8485510360006,None,1,2799.8371398320005,None,2799.8371398320005,None,2799.8371398320005,None,2800.2047723960004,None,2800.2047723960004,2801.2074113220006,2802.310326869,None,2802.310326869,None,left,2802.310326869,None,2802.811626965,2804.3156053889998,None,None,0.27037704799931817,0.45317477299977327,,,,,,,,,,,,,103,001,18,1,2019_Dec_05_0924,Test,3.2.4,59.8396474574584,
Pictures/IA50_G10.bmp,Pictures/IA50_G10.bmp,Pictures/IA50.bmp,"

"Go with the safe option here!"",0,safe,,,,,4,0,4,0,0,10,10,8,,,,,,,,,,,,,,,,,,,,,,,,,,,,,,,2804.3323010530003,None,2806.354300049,2807.8749688030002,2807.85827299,None,2809.3956454010004,None,1,2811.384232468,None,2811.384232468,None,2811.384232468,None,2811.8187080260004,None,2811.8187080260004,2812.821346388,2813.9576786790003,None,2813.9576786790003,None,right,2813.9576786790003,None,None,None,2814.3420206680003,2815.946247512,0.31527580200054217,0.34981610600061686,,,,,,,,,,,,,103,001,18,1,2019_Dec_05_0924,Test,3.2.4,59.8396474574584,
Pictures/IA80_40_G95p.bmp,Pictures/IA80_40_G95p.bmp,Pictures/IA80.bmp,"

"Think of the payoff, gamble!"",1,risk,,,,,4,0,4,0,0,11,11,6,,,,,,,,,,,,,,,,,,,,,,,,,,,,,,,2815.9629477750004,None,2817.984943814,2819.505614998,2819.4889210150004,None,2821.0095805640003,None,1,2823.014867355,None,2823.014867355,None,2823.014867355,None,2823.415924012,None,2823.415924012,2824.418560708,2825.5548946930003,None,2825.5548946930003,None,left,2825.5548946930003,None,2825.9893800219998,2827.5601721560006,None,None,0.2686476839999159,0.38460692199987534,,,,,,,,,,,,,103,001,18,1,2019_Dec_05_0924,Test,3.2.4,59.8396474574584,
Pictures/IA50_G40.bmp,Pictures/IA50_G40.bmp,Pictures/IA50.bmp,"

"It would probably be best to play it safe."",0,safe,,,,,4,0,4,0,0,12,12,9,,,,,,,,,,,,,,,,,,,,,,,,,,,,,,,2827.5768944460006,None,2829.59889123,2831.119564023,2831.1028448670004,None,2832.65695178,None,1,2834.628816069,None,2834.628816069,None,2834.628816069,None,2835.263820677,None,2835.263820677,2836.266530778,2837.3693703950003,None,2837.3693703950003,None,left,2837.3693703950003,None,2838.2550342410004,2839.3579267450004,None,None,0.4786934439998731,0.8421427979992586,,,,,,,,,,,,,103,001,18,1,2019_Dec_05_0924,Test,3.2.4,59.8396474574584,
Pictures/IA20_10_L95p.bmp,Pictures/IA20_10_L95p.bmp,Pictures/IA20.bmp,"

"Don't be tempted to gamble."",0,safe,,,,,4,0,4,0,0,13,13,7,,,,,,,,,,,,,,,,,,,,,,,,,,,,,,,2839.3746486560003,None,2841.396650801,2842.917318582,2842.900602517,None,2844.4045756800006,None,1,2846.426556546,None,2846.426556546,None,2846.426556546,None,2846.9111796610005,None,2846.9111796610005,2847.9138164160004,2849.033438577,None,2849.033438577,None,right,2849.033438577,None,None,None,2849.9358003830002,2851.02200583,0.3529534409999542,0.8660618469994006,,,,,,,,,,,,,103,001,18,1,2019_Dec_05_0924,Test,3.2.4,59.8396474574584,
Pictures/IA75_G45.bmp,Pictures/IA75_G45.bmp,Pictures/IA75.bmp,"

"Don't gamble for this one."",0,safe,,,,,4,0,4,0,0,14,14,10,,,,,,,,,,,,,,,,,,,,,,,,,,,,,,,2851.0387054740004,None,2853.060701675,2854.564675285,2854.547960185,None,2856.1020505080005,None,1,2858.0906397870003,None,2858.0906397870003,None,2858.0906397870003,None,2858.4916831709997,None,2858.4916831709997,2859.4943209290004,2860.613940473,None,2860.613940473,None,left,2860.613940473,None,2861.917390007,None,None,None,0.28888298099991516,1.2535586100002547,,,,,,,,,,,,,103,001,18,1,2019_Dec_05_0924,Test,3.2.4,59.8396474574584,
Pictures/IA25_L15.bmp,Pictures/IA25_L15.bmp,Pictures/IA25.bmp,"

"There's not much on the line here, gamble!"",1,risk,,,,,4,0,4,0,0,15,15,2,,,,,,,,,,,,,,,,,,,,,,,,,,,,,,,2862.635944986,None,2864.657938331,2866.161890917,2866.1452174739998,None,2867.682576051,None,1,2869.687861263,None,2869.687861263,None,2869.687861263,None,2870.105620573,None,2870.105620573,2871.10825287,2872.2111666420005,None,2872.2111666420005,None,left,2872.2111666420005,None,2873.514611683,None,None,None,0.2596492809998381,1.2563233519995265,,,,,,,,,,,,,103,001,18,1,2019_Dec_05_0924,Test,3.2.4,59.8396474574584,
Pictures/IA50_L20.bmp,Pictures/IA50_L20.bmp,Pictures/IA50.bmp,"

"Certainty is boring, take a risk!"",1,risk,,,,,4,0,4,0,0,16,16,19,,,,,,,,,,,,,,,,,,,,,,,,,,,,,,,2874.233168349,None,2876.255163273,2877.7758361260003,2877.7591207470005,None,2879.2965124310003,None,1,2881.285075269,None,2881.285075269,None,2881.285075269,None,2881.4020502840003,None,2881.4020502840003,2882.40468737,2883.507607881,None,2883.507607881,None,right,2883.507607881,None,None,None,2884.3932625060006,2885.496177891,0.014438318999964395,0.8478861470002812,,,,,,,,,,,,,103,001,18,1,2019_Dec_05_0924,Test,3.2.4,59.8396474574584,
Pictures/IA50_L30.bmp,Pictures/IA50_L30.bmp,Pictures/IA50.bmp,"

"Take a leap, I think you should gamble."",1,risk,,,,,4,0,4,0,0,17,17,1,,,,,,,,,,,,,,,,,,,,,,,,,,,,,,,2885.512877497,None,2887.534874498,2889.0555455800004,2889.038852285,None,2890.5595103269998,None,1,2892.564797997,None,2892.564797997,None,2892.564797997,None,2892.899023072,None,2892.899023072,2893.9016583330003,2895.0045712,None,2895.0045712,None,left,2895.0045712,None,2895.8233917730004,2897.009850089,None,None,0.19071258900021348,0.7749310130002414,,,,,,,,,,,,,103,001,18,1,2019_Dec_05_0924,Test,3.2.4,59.8396474574584,
Pictures/IA40_20_G95p.bmp,Pictures/IA40_20_G95p.bmp,Pictures/IA40.bmp,"

"Hold back, stay with the safe choice."",0,safe,,,,,4,0,4,0,0,18,18,18,,,,,,,,,,,,,,,,,,,,,,,,,,,,,,,2897.026549993,None,2899.048546455,2900.5692175579998,2900.552523857,None,2902.089893567,None,1,2904.078481458,None,2904.078481458,None,2904.078481458,None,2904.4795242950004,None,2904.4795242950004,2905.48216392,2906.5850731279997,None,2906.5850731279997,None,left,2906.5850731279997,None,2907.1031036570002,2908.573641234,None,None,0.26102450500002305,0.48242646499966213,,,,,,,,,,,,,103,001,18,1,2019_Dec_05_0924,Test,3.2.4,59.8396474574584,
Pictures/IA75_L45.bmp,Pictures/IA75_L45.bmp,Pictures/IA75.bmp,"

"Don't gamble for this one, play it safe."",0,safe,,,,,4,0,4,0,0,19,19,3,,,,,,,,,,,,,,,,,,,,,,,,,,,,,,,2908.590365129,None,2910.6123611090006,2912.1330332730004,2912.1163182930004,None,2913.670423765,None,1,2915.642290533,None,2915.642290533,None,2915.642290533,None,2916.076751343,None,2916.076751343,2917.079388135,2918.199010145,None,2918.199010145,None,left,2918.199010145,None,2918.984411609,2920.1875971930003,None,None,0.2972222549997241,0.7484904550001374,,,,,,,,,,,,,103,001,18,1,2019_Dec_05_0924,Test,3.2.4,59.8396474574584,
,,,,,,,,,,4,0,4,0,,,,,,,,,,,,,,,,,,,,,,,,,,,,,,,,,,,,,,,,,,,,,,,,,,,,,,,,,,,,,,,,,,,,,,,,,2920.354704489,None,return,12.232783985999959,2920.354704489,None,103,001,18,1,2019_Dec_05_0924,Test,3.2.4,59.8396474574584,
Pictures/IA20_10_L95p.bmp,Pictures/IA20_10_L95p.bmp,Pictures/IA20.bmp,"

"Don't be tempted to gamble."",0,safe,,,,,5,0,5,0,0,0,0,6,,,,,,,,,,,,,2932.754041252,None,2932.754041252,None,2932.754041252,None,left,1.009468113999901,2932.754041252,None,2932.754041252,None,2932.754041252,None,return,1.5053369959996417,2932.754041252,None,2934.308140903,None,2936.330134416,2937.850798738,2937.8340814720004,None,2939.354754457,None,1,2941.343346656,None,2941.343346656,None,2941.343346656,None,2941.8279488870003,None,2941.8279488870003,2942.8305878769997,2943.933503253,None,2943.933503253,None,right,2943.933503253,None,None,None,2944.2844185470003,2945.922055893,0.37216231799993693,0.3100014490000831,,,,,,,,,,,,,103,001,18,1,2019_Dec_05_0924,Test,3.2.4,59.8396474574584,
Pictures/IA75_G30.bmp,Pictures/IA75_G30.bmp,Pictures/IA75.bmp,"

"Be bold, gamble!"",1,risk,,,,,5,0,5,0,0,1,1,17,,,,,,,,,,,,,,,,,,,,,,,,,,,,,,,2945.938778607,None,2947.960774311,2949.481449561,2949.4647304280006,None,2951.0021208550006,None,1,2952.9906839269997,None,2952.9906839269997,None,2952.9906839269997,None,2953.458594773,None,2953.458594773,2954.461232855,2955.5975658240004,None,2955.5975658240004,None,right,2955.5975658240004,None,None,None,2956.4665061510004,2957.602838107,0.36481995199937955,0.8219390229996861,,,,,,,,,,,,,103,001,18,1,2019_Dec_05_0924,Test,3.2.4,59.8396474574584,
Pictures/IA50_G20.bmp,Pictures/IA50_G20.bmp,Pictures/IA50.bmp,"

"Let's venture and take a risk!"",1,risk,,,,,5,0,5,0,0,2,2,15,,,,,,,,,,,,,,,,,,,,,,,,,,,,,,,2957.619555051,None,2959.641558823,2961.1622258490006,2961.145519033,None,2962.6828981979997,None,1,2964.67146298,None,2964.67146298,None,2964.67146298,None,2965.1560934609997,None,2965.1560934609997,2966.1587169880004,2967.261635004,None,2967.261635004,None,right,2967.261635004,None,None,None,2967.930045604,2969.266899604,0.3640460200003872,0.6298665129997971,,,,,,,,,,,,,103,001,18,1,2019_Dec_05_0924,Test,3.2.4,59.8396474574584,
Pictures/IA40_20_G95p.bmp,Pictures/IA40_20_G95p.bmp,Pictures/IA40.bmp,"

"Hold back, stay with the safe choice."",0,safe,,,,,5,0,5,0,0,3,3,16,,,,,,,,,,,,,,,,,,,,,,,,,,,,,,,2969.2836229840004,None,2971.305623937,2972.826291161,2972.8095730630002,None,2974.3469663060005,None,1,2976.335526975,None,2976.335526975,None,2976.335526975,None,2976.686458381,None,2976.686458381,2977.6890911110004,2978.79200451,None,2978.79200451,None,left,2978.79200451,None,2979.2599104250003,2980.797260794,None,None,0.2039817110007789,0.42750761800016335,,,,,,,,,,,,,103,001,18,1,2019_Dec_05_0924,Test,3.2.4,59.8396474574584,
Pictures/IA25_G5.bmp,Pictures/IA25_G5.bmp,Pictures/IA25.bmp,"

"Let's stay with the certain option."",0,safe,,,,,5,0,5,0,0,4,4,5,,,,,,,,,,,,,,,,,,,,,,,,,,,,,,,2980.813963423,None,2982.835990488,2984.356665892,2984.3399666820005,None,2985.84391813,None,1,2987.865928004,None,2987.865928004,None,2987.865928004,None,2988.3505213710005,None,2988.3505213710005,2989.353161862,2990.456084658,None,2990.456084658,None,right,2990.456084658,None,None,None,2991.776227255,None,0.3535706390002815,1.2754184429995803,,,,,,,,,,,,,103,001,18,1,2019_Dec_05_0924,Test,3.2.4,59.8396474574584,
Pictures/IA100_L80.bmp,Pictures/IA100_L80.bmp,Pictures/IA100.bmp,"

"Go all in!"",1,risk,,,,,5,0,5,0,0,5,5,19,,,,,,,,,,,,,,,,,,,,,,,,,,,,,,,2992.4613516890004,None,2994.483354876,2996.0040199720006,2995.9873306500003,None,2997.4912787470003,None,1,2999.5132872140002,None,2999.5132872140002,None,2999.5132872140002,None,3000.047975673,None,3000.047975673,3001.050646545,3002.1535726680004,None,3002.1535726680004,None,left,3002.1535726680004,None,3002.6214690960005,3004.158860753,None,None,0.46622087600007944,0.4339248910000606,,,,,,,,,,,,,103,001,18,1,2019_Dec_05_0924,Test,3.2.4,59.8396474574584,
Pictures/IA75_L60.bmp,Pictures/IA75_L60.bmp,Pictures/IA75.bmp,"

"Why not take the gamble?"",1,risk,,,,,5,0,5,0,0,6,6,14,,,,,,,,,,,,,,,,,,,,,,,,,,,,,,,3004.175551388,None,3006.1975461010006,3007.7182172270004,3007.7015225160003,None,3009.238856131,None,1,3011.2274808520006,None,3011.2274808520006,None,3011.2274808520006,None,3011.6285261430003,None,3011.6285261430003,3012.6311612670006,3013.7340748389997,None,3013.7340748389997,None,left,3013.7340748389997,None,3014.068296982,3015.739365118,None,None,0.2960243580000679,0.29342350299975806,,,,,,,,,,,,,103,001,18,1,2019_Dec_05_0924,Test,3.2.4,59.8396474574584,
Pictures/IA75_G45.bmp,Pictures/IA75_G45.bmp,Pictures/IA75.bmp,"

"Don't gamble for this one."",0,safe,,,,,5,0,5,0,0,7,7,7,,,,,,,,,,,,,,,,,,,,,,,,,,,,,,,3015.756065363,None,3017.778060513,3019.298737737,3019.2820366280002,None,3020.7859925580005,None,1,3022.807995172,None,3022.807995172,None,3022.807995172,None,3023.3260289690006,None,3023.3260289690006,3024.32866294,3025.431574473,None,3025.431574473,None,right,3025.431574473,None,None,None,3026.818558166,None,0.4035179020002033,1.3399302540001372,,,,,,,,,,,,,103,001,18,1,2019_Dec_05_0924,Test,3.2.4,59.8396474574584,
Pictures/IA25_G10.bmp,Pictures/IA25_G10.bmp,Pictures/IA25.bmp,"

"What's life without a little risk?"",1,risk,,,,,5,0,5,0,0,8,8,0,,,,,,,,,,,,,,,,,,,,,,,,,,,,,,,3027.4368431600005,None,3029.458838824,3030.9795132460004,3030.9628153370004,None,3032.483473495,None,1,3034.4887615320004,None,3034.4887615320004,None,3034.4887615320004,None,3035.056923979,None,3035.056923979,3036.0595605930002,3037.162473308,None,3037.162473308,None,right,3037.162473308,None,None,None,3037.7640681170005,3039.1677665360003,0.4427621389995693,0.5530241340002249,,,,,,,,,,,,,103,001,18,1,2019_Dec_05_0924,Test,3.2.4,59.8396474574584,
Pictures/IA25_G15.bmp,Pictures/IA25_G15.bmp,Pictures/IA25.bmp,"

"I think you should take a gamble."",1,risk,,,,,5,0,5,0,0,9,9,1,,,,,,,,,,,,,,,,,,,,,,,,,,,,,,,3039.184464408,None,3041.2064631780004,3042.727130925,3042.710440723,None,3044.247806716,None,1,3046.2363935270005,None,3046.2363935270005,None,3046.2363935270005,None,3046.704293119,None,3046.704293119,3047.706929234,3048.8098412910003,None,3048.8098412910003,None,left,3048.8098412910003,None,3049.929454139,None,None,None,0.33512219800013554,1.0816596029999346,,,,,,,,,,,,,103,001,18,1,2019_Dec_05_0924,Test,3.2.4,59.8396474574584,
Pictures/IA100_L40.bmp,Pictures/IA100_L40.bmp,Pictures/IA100.bmp,"

"Think of the payoff, gamble!"",1,risk,,,,,5,0,5,0,0,10,10,2,,,,,,,,,,,,,,,,,,,,,,,,,,,,,,,3050.8150704300006,None,3052.837103907,3054.357780909,3054.3410835310005,None,3055.8784580130005,None,1,3057.8670398840004,None,3057.8670398840004,None,3057.8670398840004,None,3058.334927432,None,3058.334927432,3059.3375630640003,3060.440475659,None,3060.440475659,None,right,3060.440475659,None,None,None,3061.2425976430004,3062.4457656800005,0.3604730629995174,0.7550289769997107,,,,,,,,,,,,,103,001,18,1,2019_Dec_05_0924,Test,3.2.4,59.8396474574584,
Pictures/IA25_G20.bmp,Pictures/IA25_G20.bmp,Pictures/IA25.bmp,"

"I wouldn't gamble for this one. "",0,safe,,,,,5,0,5,0,0,11,11,8,,,,,,,,,,,,,,,,,,,,,,,,,,,,,,,3062.462465586,None,3064.4844615500006,3065.9884362500006,3065.971715404,None,3067.525808771,None,1,3069.514395673,None,3069.514395673,None,3069.514395673,None,3070.199519977,None,3070.199519977,3071.20215954,3072.3050720110004,None,3072.3050720110004,None,left,3072.3050720110004,None,3072.7395574680004,3074.310312646,None,None,0.5611127700003635,0.3944407660001161,,,,,,,,,,,,,103,001,18,1,2019_Dec_05_0924,Test,3.2.4,59.8396474574584,
Pictures/IA110_55_G95p.bmp,Pictures/IA110_55_G95p.bmp,Pictures/IA110.bmp,"

"Take a chance!"",1,risk,,,,,5,0,5,0,0,12,12,18,,,,,,,,,,,,,,,,,,,,,,,,,,,,,,,3074.327073357,None,3076.3490710800006,3077.869744636,3077.8530221890005,None,3079.390418221,None,1,3081.378978707,None,3081.378978707,None,3081.378978707,None,3081.7800371190006,None,3081.7800371190006,3082.782672192,3083.8855850600003,None,3083.8855850600003,None,left,3083.8855850600003,None,3084.47045771,3085.8741630000004,None,None,0.312531403000321,0.5499153430000661,,,,,,,,,,,,,103,001,18,1,2019_Dec_05_0924,Test,3.2.4,59.8396474574584,
Pictures/IA75_G15.bmp,Pictures/IA75_G15.bmp,Pictures/IA75.bmp,"

"Take a chance!"",1,risk,,,,,5,0,5,0,0,13,13,13,,,,,,,,,,,,,,,,,,,,,,,,,,,,,,,3085.8908775340005,None,3087.9128721730003,3089.4335440590003,3089.416826144,None,3090.9542188860005,None,1,3092.942783855,None,3092.942783855,None,3092.942783855,None,3093.4942494080005,None,3093.4942494080005,3094.49688599,3095.5997950910005,None,3095.5997950910005,None,right,3095.5997950910005,None,None,None,3096.151254931,3097.58835507,0.4927257389999795,0.5157034659996498,,,,,,,,,,,,,103,001,18,1,2019_Dec_05_0924,Test,3.2.4,59.8396474574584,
Pictures/IA50_L10.bmp,Pictures/IA50_L10.bmp,Pictures/IA50.bmp,"

"Play it safe, don’t gamble!"",0,safe,,,,,5,0,5,0,0,14,14,3,,,,,,,,,,,,,,,,,,,,,,,,,,,,,,,3097.6050760960006,None,3099.6270750940002,3101.147752383,3101.1310238040005,None,3102.685130684,None,1,3104.656995239,None,3104.656995239,None,3104.656995239,None,3105.0246461490005,None,3105.0246461490005,3106.0272656670004,3107.130177854,None,3107.130177854,None,right,3107.130177854,None,None,None,3108.233067014,None,0.24252553099995566,1.0573279039999761,,,,,,,,,,,,,103,001,18,1,2019_Dec_05_0924,Test,3.2.4,59.8396474574584,
Pictures/IA100_G60.bmp,Pictures/IA100_G60.bmp,Pictures/IA100.bmp,"

"Be cautious, don't gamble for this one."",0,safe,,,,,5,0,5,0,0,15,15,12,,,,,,,,,,,,,,,,,,,,,,,,,,,,,,,3109.1521605890002,None,3111.1741502250006,3112.694823523,3112.6781281080002,None,3114.215504215,None,1,3116.204087487,None,3116.204087487,None,3116.204087487,None,3116.571722977,None,3116.571722977,3117.5743588390005,3118.677269776,None,3118.677269776,None,None,3118.677269776,None,None,None,None,None,0.2474222450000525,,,,,,,,,,,,,,103,001,18,1,2019_Dec_05_0924,Test,3.2.4,59.8396474574584,
Pictures/IA100_L60.bmp,Pictures/IA100_L60.bmp,Pictures/IA100.bmp,"

"You'd have a lot to lose, don't gamble."",0,safe,,,,,5,0,5,0,0,16,16,9,,,,,,,,,,,,,,,,,,,,,,,,,,,,,,,3120.6825501130006,None,3122.70454625,3124.2252170740003,3124.2084994590004,None,3125.745894744,None,1,3127.734456989,None,3127.734456989,None,3127.734456989,None,3128.0519696290003,None,3128.0519696290003,3129.0546059480002,3130.157520807,None,3130.157520807,None,left,3130.157520807,None,3130.3079130280003,3132.1628102590003,None,None,0.19705075900037627,0.1019742190001125,,,,,,,,,,,,,103,001,18,1,2019_Dec_05_0924,Test,3.2.4,59.8396474574584,
Pictures/IA50_L40.bmp,Pictures/IA50_L40.bmp,Pictures/IA50.bmp,"

"That gamble doesn't sound too good, play it safe."",0,safe,,,,,5,0,5,0,0,17,17,10,,,,,,,,,,,,,,,,,,,,,,,,,,,,,,,3132.17949754,None,3134.2014936200003,3135.7221646010003,3135.7054736010004,None,3137.226131509,None,1,3139.231425455,None,3139.231425455,None,3139.231425455,None,3139.632484066,None,3139.632484066,3140.635150686,3141.738034164,None,3141.738034164,None,left,3141.738034164,None,3142.0889543580006,3143.7265917430004,None,None,0.2601210210004865,0.31346643999950174,,,,,,,,,,,,,103,001,18,1,2019_Dec_05_0924,Test,3.2.4,59.8396474574584,
Pictures/IA25_L15.bmp,Pictures/IA25_L15.bmp,Pictures/IA25.bmp,"

"There's not much on the line here, gamble!"",1,risk,,,,,5,0,5,0,0,18,18,11,,,,,,,,,,,,,,,,,,,,,,,,,,,,,,,3143.7433126260003,None,3145.765310001,3147.2859792830004,3147.2692610980002,None,3148.773233291,None,1,3150.795180424,None,3150.795180424,None,3150.795180424,None,3151.229698301,None,3151.229698301,3152.232332345,3153.368666833,None,3153.368666833,None,right,3153.368666833,None,None,None,3153.8031526000004,3155.373944608,0.28032572800020716,0.3868376749996969,,,,,,,,,,,,,103,001,18,1,2019_Dec_05_0924,Test,3.2.4,59.8396474574584,
Pictures/IA40_20_L95p.bmp,Pictures/IA40_20_L95p.bmp,Pictures/IA40.bmp,"

"Trust me, gamble!"",1,risk,,,,,5,0,5,0,0,19,19,4,,,,,,,,,,,,,,,,,,,,,,,,,,,,,,,3155.3906682120005,None,3157.4126652310006,3158.9333380570006,3158.9166184860005,None,3160.45401667,None,1,3162.442573657,None,3162.442573657,None,3162.442573657,None,3163.194555987,None,3163.194555987,3164.197193772,3165.3335258020006,None,3165.3335258020006,None,right,3165.3335258020006,None,None,None,3165.95181832,3167.3221059859998,0.6489350519996151,0.573977506999654,,,,,,,,,,,,,103,001,18,1,2019_Dec_05_0924,Test,3.2.4,59.8396474574584,
,,,,,,,,,,5,0,5,0,,,,,,,,,,,,,,,,,,,,,,,,,,,,,,,,,,,,,,,,,,,,,,,,,,,,,,,,,,,,,,,,,,,,,,,,,3167.4892058900004,None,return,7.338290185000005,3167.4892058900004,None,103,001,18,1,2019_Dec_05_0924,Test,3.2.4,59.8396474574584,
Pictures/IA75_G15.bmp,Pictures/IA75_G15.bmp,Pictures/IA75.bmp,"

"Take a chance!"",1,risk,,,,,6,0,6,0,0,0,0,13,,,,,,,,,,,,,3174.9923200350004,None,3174.9923200350004,None,3174.9923200350004,None,right,36.78719598000043,3174.9923200350004,None,3174.9923200350004,None,3174.9923200350004,None,return,37.514977217000705,3174.9923200350004,None,3212.557967252,None,3214.5632380020006,3216.083910485,3216.067215156,None,3217.5878863919997,None,1,3219.5764519660006,None,3219.5764519660006,None,3219.5764519660006,None,3220.0610704440005,None,3220.0610704440005,3221.063709743,3222.200043072,None,3222.200043072,None,right,3222.200043072,None,None,None,3223.770835575,None,0.387060145999385,1.531458642000871,,,,,,,,,,,,,103,001,18,1,2019_Dec_05_0924,Test,3.2.4,59.8396474574584,
Pictures/IA50_G30.bmp,Pictures/IA50_G30.bmp,Pictures/IA50.bmp,"

"I think you should gamble."",1,risk,,,,,6,0,6,0,0,1,1,15,,,,,,,,,,,,,,,,,,,,,,,,,,,,,,,3224.222020909,None,3226.2440209960005,3227.764686452,3227.747998064,None,3229.3020755300004,None,1,3231.273941085,None,3231.273941085,None,3231.273941085,None,3231.608172389,None,3231.608172389,3232.610804909,3233.713716839,None,3233.713716839,None,right,3233.713716839,None,None,None,3234.682920714,3235.718992837,0.23356358899945917,0.9297840540002653,,,,,,,,,,,,,103,001,18,1,2019_Dec_05_0924,Test,3.2.4,59.8396474574584,
Pictures/IA40_20_G95p.bmp,Pictures/IA40_20_G95p.bmp,Pictures/IA40.bmp,"

"Hold back, stay with the safe choice."",0,safe,,,,,6,0,6,0,0,2,2,7,,,,,,,,,,,,,,,,,,,,,,,,,,,,,,,3235.7356903810005,None,3237.7576875350005,3239.278359185,3239.261662879,None,3240.7823309390005,None,1,3242.787608715,None,3242.787608715,None,3242.787608715,None,3243.205375875,None,3243.205375875,3244.208013013,3245.31092488,None,3245.31092488,None,left,3245.31092488,None,3245.678569783,3247.3162062130004,None,None,0.2799004729995431,0.3325687010001275,,,,,,,,,,,,,103,001,18,1,2019_Dec_05_0924,Test,3.2.4,59.8396474574584,
Pictures/IA50_L10.bmp,Pictures/IA50_L10.bmp,Pictures/IA50.bmp,"

"Play it safe, don’t gamble!"",0,safe,,,,,6,0,6,0,0,3,3,0,,,,,,,,,,,,,,,,,,,,,,,,,,,,,,,3247.33292858,None,3249.3549228070005,3250.8755953770005,3250.8588761380006,None,3252.362850083,None,1,3254.384833575,None,3254.384833575,None,3254.384833575,None,3254.769191151,None,3254.769191151,3255.7718273480004,3256.8747402440003,None,3256.8747402440003,None,right,3256.8747402440003,None,None,None,3257.1922385530006,3258.86330636,0.25868101399919396,0.27277475299979415,,,,,,,,,,,,,103,001,18,1,2019_Dec_05_0924,Test,3.2.4,59.8396474574584,
Pictures/IA25_G5.bmp,Pictures/IA25_G5.bmp,Pictures/IA25.bmp,"

"Let's stay with the certain option."",0,safe,,,,,6,0,6,0,0,4,4,18,,,,,,,,,,,,,,,,,,,,,,,,,,,,,,,3258.880009003,None,3260.9020029330004,3262.4226758570003,3262.405979481,None,3263.943349784,None,1,3265.931939473,None,3265.931939473,None,3265.931939473,None,3266.366403829,None,3266.366403829,3267.3690404480003,3268.4719530250004,None,3268.4719530250004,None,right,3268.4719530250004,None,None,None,3269.123665297,3270.460521444,0.28757174699967436,0.6115492760000052,,,,,,,,,,,,,103,001,18,1,2019_Dec_05_0924,Test,3.2.4,59.8396474574584,
Pictures/IA75_G30.bmp,Pictures/IA75_G30.bmp,Pictures/IA75.bmp,"

"Be bold, gamble!"",1,risk,,,,,6,0,6,0,0,5,5,14,,,,,,,,,,,,,,,,,,,,,,,,,,,,,,,3270.477243087,None,3272.4992461870006,3274.0199153109997,3274.0031979220003,None,3275.540587867,None,1,3277.529149383,None,3277.529149383,None,3277.529149383,None,3278.030487459,None,3278.030487459,3279.0331227410006,3280.1360436720006,None,3280.1360436720006,None,right,3280.1360436720006,None,None,None,3280.921429997,3282.124600475,0.38635410300048534,0.7394577230006689,,,,,,,,,,,,,103,001,18,1,2019_Dec_05_0924,Test,3.2.4,59.8396474574584,
Pictures/IA100_G80.bmp,Pictures/IA100_G80.bmp,Pictures/IA100.bmp,"

"Why not gamble?"",1,risk,,,,,6,0,6,0,0,6,6,10,,,,,,,,,,,,,,,,,,,,,,,,,,,,,,,3282.1413087870005,None,3284.1633111319998,3285.6839814490004,3285.6672578919997,None,3287.187948091,None,1,3289.1932315800004,None,3289.1932315800004,None,3289.1932315800004,None,3289.5608575779997,None,3289.5608575779997,3290.563503067,3291.6664106770004,None,3291.6664106770004,None,left,3291.6664106770004,None,3292.8194455800003,None,None,None,0.25828204299978097,1.105093854000188,,,,,,,,,,,,,103,001,18,1,2019_Dec_05_0924,Test,3.2.4,59.8396474574584,
Pictures/IA20_10_G95p.bmp,Pictures/IA20_10_G95p.bmp,Pictures/IA20.bmp,"

"Take a leap, I think you should gamble."",1,risk,,,,,6,0,6,0,0,7,7,12,,,,,,,,,,,,,,,,,,,,,,,,,,,,,,,3293.671690802,None,3295.6936880190005,3297.214359453,3297.197640638,None,3298.7684556000004,None,1,3300.7235974590003,None,3300.7235974590003,None,3300.7235974590003,None,3301.141377961,None,3301.141377961,3302.144012562,3303.246912371,None,3303.246912371,None,left,3303.246912371,None,3304.232839085,None,None,None,0.2799053090002417,0.9485835569994379,,,,,,,,,,,,,103,001,18,1,2019_Dec_05_0924,Test,3.2.4,59.8396474574584,
Pictures/IA110_55_L95p.bmp,Pictures/IA110_55_L95p.bmp,Pictures/IA110.bmp,"

"Trust me, gamble!"",1,risk,,,,,6,0,6,0,0,8,8,19,,,,,,,,,,,,,,,,,,,,,,,,,,,,,,,3305.2522032200004,None,3307.274201163,3308.794871284,3308.778152017,None,3310.298836041,None,1,3312.304122869,None,3312.304122869,None,3312.304122869,None,3312.671749319,None,3312.671749319,3313.6743817710003,3314.827425652,None,3314.827425652,None,right,3314.827425652,None,None,None,3315.1282256000004,3316.815994677,0.2593928920005055,0.2560807460004071,,,,,,,,,,,,,103,001,18,1,2019_Dec_05_0924,Test,3.2.4,59.8396474574584,
Pictures/IA75_G60.bmp,Pictures/IA75_G60.bmp,Pictures/IA75.bmp,"

"Make it exciting, take a chance!"",1,risk,,,,,6,0,6,0,0,9,9,9,,,,,,,,,,,,,,,,,,,,,,,,,,,,,,,3316.832717014,None,3318.8547194170005,3320.3753844840003,3320.35866894,None,3321.896093081,None,1,3323.88462411,None,3323.88462411,None,3323.88462411,None,3324.369244771,None,3324.369244771,3325.371882034,3326.4747946429998,None,3326.4747946429998,None,right,3326.4747946429998,None,None,None,3326.8591342600002,3328.463362247,0.2628969760007749,0.3367131269997117,,,,,,,,,,,,,103,001,18,1,2019_Dec_05_0924,Test,3.2.4,59.8396474574584,
Pictures/IA25_G10.bmp,Pictures/IA25_G10.bmp,Pictures/IA25.bmp,"

"What's life without a little risk?"",1,risk,,,,,6,0,6,0,0,10,10,1,,,,,,,,,,,,,,,,,,,,,,,,,,,,,,,3328.4800615740005,None,3330.5020600960006,3332.0227317520003,3332.0060346230002,None,3333.54340579,None,1,3335.5319955180003,None,3335.5319955180003,None,3335.5319955180003,None,3335.899624851,None,3335.899624851,3336.902266833,3338.005174467,None,3338.005174467,None,right,3338.005174467,None,None,None,3338.9409581750006,3340.0104397840005,0.24751323600048636,0.9023365250004645,,,,,,,,,,,,,103,001,18,1,2019_Dec_05_0924,Test,3.2.4,59.8396474574584,
Pictures/IA75_L45.bmp,Pictures/IA75_L45.bmp,Pictures/IA75.bmp,"

"Don't gamble for this one, play it safe."",0,safe,,,,,6,0,6,0,0,11,11,11,,,,,,,,,,,,,,,,,,,,,,,,,,,,,,,3340.027161391,None,3342.049159559,3343.569836181,3343.55311662,None,3345.090510295,None,1,3347.079069775,None,3347.079069775,None,3347.079069775,None,3347.563678042,None,3347.563678042,3348.566316646,3349.6692278190003,None,3349.6692278190003,None,left,3349.6692278190003,None,3350.421207489,3351.6577983220004,None,None,0.3484392829996068,0.7022771080000894,,,,,,,,,,,,,103,001,18,1,2019_Dec_05_0924,Test,3.2.4,59.8396474574584,
Pictures/IA80_40_G95p.bmp,Pictures/IA80_40_G95p.bmp,Pictures/IA80.bmp,"

"Think of the payoff, gamble!"",1,risk,,,,,6,0,6,0,0,12,12,17,,,,,,,,,,,,,,,,,,,,,,,,,,,,,,,3351.6745190190004,None,3353.696514227,3355.2171855100005,3355.20046775,None,3356.73786903,None,1,3358.726425946,None,3358.726425946,None,3358.726425946,None,3359.0940615609998,None,3359.0940615609998,3360.0966964930003,3361.216319929,None,3361.216319929,None,left,3361.216319929,None,3361.4669773180003,3363.2048874720003,None,None,0.2370856770003229,0.20318328400026076,,,,,,,,,,,,,103,001,18,1,2019_Dec_05_0924,Test,3.2.4,59.8396474574584,
Pictures/IA100_L20.bmp,Pictures/IA100_L20.bmp,Pictures/IA100.bmp,"

"Try to win as much money as you can, gamble!"",1,risk,,,,,6,0,6,0,0,13,13,16,,,,,,,,,,,,,,,,,,,,,,,,,,,,,,,3363.221612343,None,3365.243606457,3366.7642843969998,3366.7475609660005,None,3368.3183747499997,None,1,3370.273517238,None,3370.273517238,None,3370.273517238,None,3370.7414157089997,None,3370.7414157089997,3371.7440538030005,3372.8469633980003,None,3372.8469633980003,None,right,3372.8469633980003,None,None,None,3373.2146071380002,3374.852241779,0.30599492600049416,0.3325309079991712,,,,,,,,,,,,,103,001,18,1,2019_Dec_05_0924,Test,3.2.4,59.8396474574584,
Pictures/IA25_L10.bmp,Pictures/IA25_L10.bmp,Pictures/IA25.bmp,"

"Dont be afraid to take the risk!"",1,risk,,,,,6,0,6,0,0,14,14,3,,,,,,,,,,,,,,,,,,,,,,,,,,,,,,,3374.8689668730003,None,3376.89096111,3378.4116344190006,3378.394913596,None,3379.932310892,None,1,3381.9208742640003,None,3381.9208742640003,None,3381.9208742640003,None,3382.3052293870005,None,3382.3052293870005,3383.3078674140006,3384.4107778060006,None,3384.4107778060006,None,right,3384.4107778060006,None,None,None,3384.7617023840003,3386.399334177,0.2586369399996329,0.31272192300002644,,,,,,,,,,,,,103,001,18,1,2019_Dec_05_0924,Test,3.2.4,59.8396474574584,
Pictures/IA75_G45.bmp,Pictures/IA75_G45.bmp,Pictures/IA75.bmp,"

"Don't gamble for this one."",0,safe,,,,,6,0,6,0,0,15,15,6,,,,,,,,,,,,,,,,,,,,,,,,,,,,,,,3386.416058019,None,3388.438054104,3389.958725206,3389.942007099,None,3391.462691384,None,1,3393.4679769820004,None,3393.4679769820004,None,3393.4679769820004,None,3394.33691938,None,3394.33691938,3395.339555298,3396.442468206,None,3396.442468206,None,left,3396.442468206,None,3397.5955172470003,None,None,None,0.7675313669997195,1.105035202000181,,,,,,,,,,,,,103,001,18,1,2019_Dec_05_0924,Test,3.2.4,59.8396474574584,
Pictures/IA25_G20.bmp,Pictures/IA25_G20.bmp,Pictures/IA25.bmp,"

"I wouldn't gamble for this one. "",0,safe,,,,,6,0,6,0,0,16,16,5,,,,,,,,,,,,,,,,,,,,,,,,,,,,,,,3398.447747059,None,3400.469742941,3401.9904158030004,3401.9737233739997,None,3403.511092019,None,1,3405.499673761,None,3405.499673761,None,3405.499673761,None,3405.934158792,None,3405.934158792,3406.936790801,3408.0397029960004,None,3408.0397029960004,None,left,3408.0397029960004,None,3408.407321789,3410.028271458,None,None,0.3038450770000054,0.3237978919996749,,,,,,,,,,,,,103,001,18,1,2019_Dec_05_0924,Test,3.2.4,59.8396474574584,
Pictures/IA40_20_L95p.bmp,Pictures/IA40_20_L95p.bmp,Pictures/IA40.bmp,"

"Trust me, gamble!"",1,risk,,,,,6,0,6,0,0,17,17,8,,,,,,,,,,,,,,,,,,,,,,,,,,,,,,,3410.044970027,None,3412.066969789,3413.587640637,3413.57094538,None,3415.091606909,None,1,3417.096887402,None,3417.096887402,None,3417.096887402,None,3417.4979559620006,None,3417.4979559620006,3418.500594372,3419.6035047200003,None,3419.6035047200003,None,right,3419.6035047200003,None,None,None,3420.2384950350006,3421.5920714060003,0.29062056099974143,0.59999405400049,,,,,,,,,,,,,103,001,18,1,2019_Dec_05_0924,Test,3.2.4,59.8396474574584,
Pictures/IA20_10_L95p.bmp,Pictures/IA20_10_L95p.bmp,Pictures/IA20.bmp,"

"Don't be tempted to gamble."",0,safe,,,,,6,0,6,0,0,18,18,2,,,,,,,,,,,,,,,,,,,,,,,,,,,,,,,3421.608771241,None,3423.630771407,3425.151443969,3425.1348015920003,None,3426.6721145170004,None,1,3428.660703466,None,3428.660703466,None,3428.660703466,None,3429.0784568,None,3429.0784568,3430.081092339,3431.184004852,None,3431.184004852,None,right,3431.184004852,None,None,None,3431.5015078410006,3433.1725762550004,0.28680915200038726,0.2755003679994843,,,,,,,,,,,,,103,001,18,1,2019_Dec_05_0924,Test,3.2.4,59.8396474574584,
Pictures/IA75_L60.bmp,Pictures/IA75_L60.bmp,Pictures/IA75.bmp,"

"Why not take the gamble?"",1,risk,,,,,6,0,6,0,0,19,19,4,,,,,,,,,,,,,,,,,,,,,,,,,,,,,,,3433.1892950440006,None,3435.211291898,3436.731963737,3436.7152447050003,None,3438.2359290619997,None,1,3440.241214552,None,3440.241214552,None,3440.241214552,None,3440.6255467400006,None,3440.6255467400006,3441.6281870520006,3442.731096138,None,3442.731096138,None,left,3442.731096138,None,3443.516495549,3444.7196643140005,None,None,0.2662931730001219,0.7364074189999883,,,,,,,,,,,,,103,001,18,1,2019_Dec_05_0924,Test,3.2.4,59.8396474574584,
,,,,,,,,,,6,0,6,0,,,,,,,,,,,,,,,,,,,,,,,,,,,,,,,,,,,,,,,,,,,,,,,,,,,,,,,,,,,,,,,,,,,,,,,,,3444.886788117,None,return,4.972703538999667,3444.886788117,None,103,001,18,1,2019_Dec_05_0924,Test,3.2.4,59.8396474574584,
Pictures/IA110_55_G95p.bmp,Pictures/IA110_55_G95p.bmp,Pictures/IA110.bmp,"

"Take a chance!"",1,risk,,,,,7,0,7,0,0,0,0,11,,,,,,,,,,,,,3450.016958643,None,3450.016958643,None,3450.016958643,None,left,0.8505386099996031,3450.016958643,None,3450.016958643,None,3450.016958643,None,return,1.3783202109998456,3450.016958643,None,3451.4540758470002,None,3453.4593756619997,3454.980044215,3454.9633265110006,None,3456.4839965749998,None,1,3458.4725839620005,None,3458.4725839620005,None,3458.4725839620005,None,3458.823500607,None,3458.823500607,3459.826132935,3460.9290473210003,None,3460.9290473210003,None,left,3460.9290473210003,None,3461.5473362640005,3462.9176272160003,None,None,0.25092672600021615,0.5784640790006961,,,,,,,,,,,,,103,001,18,1,2019_Dec_05_0924,Test,3.2.4,59.8396474574584,
Pictures/IA50_L40.bmp,Pictures/IA50_L40.bmp,Pictures/IA50.bmp,"

"That gamble doesn't sound too good, play it safe."",0,safe,,,,,7,0,7,0,0,1,1,10,,,,,,,,,,,,,,,,,,,,,,,,,,,,,,,3462.9343253530005,None,3464.956319047,3466.476989213,3466.460295375,None,3467.9809566680005,None,1,3469.986246918,None,3469.986246918,None,3469.986246918,None,3471.0891472060002,None,3471.0891472060002,3472.0917900700006,3473.2114097969998,None,3473.2114097969998,None,left,3473.2114097969998,None,3473.562335482,3475.19998658,None,None,0.9452674820004177,0.30409236700052134,,,,,,,,,,,,,103,001,18,1,2019_Dec_05_0924,Test,3.2.4,59.8396474574584,
Pictures/IA40_20_G95p.bmp,Pictures/IA40_20_G95p.bmp,Pictures/IA40.bmp,"

"Hold back, stay with the safe choice."",0,safe,,,,,7,0,7,0,0,2,2,1,,,,,,,,,,,,,,,,,,,,,,,,,,,,,,,3475.216684463,None,3477.2386832370003,3478.759351244,3478.742657828,None,3480.2633172610003,None,1,3482.268603675,None,3482.268603675,None,3482.268603675,None,3482.736505009,None,3482.736505009,3483.739139753,3484.8587607830004,None,3484.8587607830004,None,left,3484.8587607830004,None,3485.209680209,3486.847342493,None,None,0.33490808900023694,0.31274842900074873,,,,,,,,,,,,,103,001,18,1,2019_Dec_05_0924,Test,3.2.4,59.8396474574584,
Pictures/IA25_G5.bmp,Pictures/IA25_G5.bmp,Pictures/IA25.bmp,"

"Let's stay with the certain option."",0,safe,,,,,7,0,7,0,0,3,3,15,,,,,,,,,,,,,,,,,,,,,,,,,,,,,,,3486.864039203,None,3488.8860356330006,3490.4067120320005,3490.3900122370005,None,3491.893966148,None,1,3493.915977879,None,3493.915977879,None,3493.915977879,None,3494.417289223,None,3494.417289223,3495.4199267900003,3496.522838002,None,3496.522838002,None,right,3496.522838002,None,None,None,3497.07428722,3498.5113933110006,0.37554206699951465,0.5126622369998586,,,,,,,,,,,,,103,001,18,1,2019_Dec_05_0924,Test,3.2.4,59.8396474574584,
Pictures/IA100_G80.bmp,Pictures/IA100_G80.bmp,Pictures/IA100.bmp,"

"Why not gamble?"",1,risk,,,,,7,0,7,0,0,4,4,7,,,,,,,,,,,,,,,,,,,,,,,,,,,,,,,3498.528121071,None,3500.5501130479997,3502.0707840120003,3502.0540661200002,None,3503.558040395,None,1,3505.580022848,None,3505.580022848,None,3505.580022848,None,3505.947670802,None,3505.947670802,3506.9503066650004,3508.0699282060004,None,3508.0699282060004,None,right,3508.0699282060004,None,None,None,3509.3900698429998,None,0.26348820200018963,1.2775791329995627,,,,,,,,,,,,,103,001,18,1,2019_Dec_05_0924,Test,3.2.4,59.8396474574584,
Pictures/IA50_G40.bmp,Pictures/IA50_G40.bmp,Pictures/IA50.bmp,"

"It would probably be best to play it safe."",0,safe,,,,,7,0,7,0,0,5,5,16,,,,,,,,,,,,,,,,,,,,,,,,,,,,,,,3510.07519504,None,3512.0971934380004,3513.617864695,3513.601167693,None,3515.138550975,None,1,3517.1271266100002,None,3517.1271266100002,None,3517.1271266100002,None,3517.5949789240003,None,3517.5949789240003,3518.597648946,3519.7005618640005,None,3519.7005618640005,None,left,3519.7005618640005,None,3521.204533958,None,None,None,0.3323819960005494,1.4549589589996685,,,,,,,,,,,,,103,001,18,1,2019_Dec_05_0924,Test,3.2.4,59.8396474574584,
Pictures/IA25_L15.bmp,Pictures/IA25_L15.bmp,Pictures/IA25.bmp,"

"There's not much on the line here, gamble!"",1,risk,,,,,7,0,7,0,0,6,6,5,,,,,,,,,,,,,,,,,,,,,,,,,,,,,,,3521.7225625970004,None,3523.744558347,3525.2652306070004,3525.2485154510005,None,3526.7691962070003,None,1,3528.7744821410006,None,3528.7744821410006,None,3528.7744821410006,None,3529.4763173700003,None,3529.4763173700003,3530.478954174,3531.58186672,None,3531.58186672,None,left,3531.58186672,None,3532.869672985,None,None,None,0.5570300339995811,1.2536339910002425,,,,,,,,,,,,,103,001,18,1,2019_Dec_05_0924,Test,3.2.4,59.8396474574584,
Pictures/IA25_L10.bmp,Pictures/IA25_L10.bmp,Pictures/IA25.bmp,"

"Dont be afraid to take the risk!"",1,risk,,,,,7,0,7,0,0,7,7,17,,,,,,,,,,,,,,,,,,,,,,,,,,,,,,,3533.60386311,None,3535.6258507459997,3537.146533684,3537.129827035,None,3538.6671996860005,None,1,3540.65578725,None,3540.65578725,None,3540.65578725,None,3541.040129737,None,3541.040129737,3542.0427672610003,3543.1456899370005,None,3543.1456899370005,None,right,3543.1456899370005,None,None,None,3543.5968663370004,3545.1342532569997,0.2837146299998494,0.41780392700002267,,,,,,,,,,,,,103,001,18,1,2019_Dec_05_0924,Test,3.2.4,59.8396474574584,
Pictures/IA20_10_G95p.bmp,Pictures/IA20_10_G95p.bmp,Pictures/IA20.bmp,"

"Take a leap, I think you should gamble."",1,risk,,,,,7,0,7,0,0,8,8,4,,,,,,,,,,,,,,,,,,,,,,,,,,,,,,,3545.1509471710006,None,3547.1729461200002,3548.693612897,3548.676922846,None,3550.197579863,None,1,3552.202863822,None,3552.202863822,None,3552.202863822,None,3552.7041957030006,None,3552.7041957030006,3553.7068333409998,3554.809744677,None,3554.809744677,None,left,3554.809744677,None,3555.69540813,3556.815026771,None,None,0.35264958900006604,0.8417733460000818,,,,,,,,,,,,,103,001,18,1,2019_Dec_05_0924,Test,3.2.4,59.8396474574584,
Pictures/IA100_G60.bmp,Pictures/IA100_G60.bmp,Pictures/IA100.bmp,"

"Be cautious, don't gamble for this one."",0,safe,,,,,7,0,7,0,0,9,9,14,,,,,,,,,,,,,,,,,,,,,,,,,,,,,,,3556.83172319,None,3558.8537225500004,3560.374390829,3560.3576993020006,None,3561.8950648050004,None,1,3563.8836522190004,None,3563.8836522190004,None,3563.8836522190004,None,3564.418410208,None,3564.418410208,3565.421023269,3566.5239312600006,None,3566.5239312600006,None,left,3566.5239312600006,None,3567.87749419,None,None,None,0.3998513489996185,1.3035755309992965,,,,,,,,,,,,,103,001,18,1,2019_Dec_05_0924,Test,3.2.4,59.8396474574584,
Pictures/IA80_40_L95p.bmp,Pictures/IA80_40_L95p.bmp,Pictures/IA80.bmp,"

