Choice	Choice2	Amount	AdviceVar1	GambleAdviceNum	GambleAdviceType	practice.thisRepN	practice.thisTrialN	practice.thisN	practice.thisIndex	trials_2.thisRepN	trials_2.thisTrialN	trials_2.thisN	trials_2.thisIndex	trials.thisRepN	trials.thisTrialN	trials.thisN	trials.thisIndex	text.started	text.stopped	key_resp_4.keys	key_resp_4.rt	key_resp_4.started	key_resp_4.stopped	instructions.started	instructions.stopped	space.keys	space.rt	space.started	space.stopped	chooseInst.started	chooseInst.stopped	Ad1.started	Ad1.stopped	Ad2.started	Ad2.stopped	key_resp_3.keys	key_resp_3.rt	key_resp_3.started	key_resp_3.stopped	Ad1pic.started	Ad1pic.stopped	Ad2pic.started	Ad2pic.stopped	enter.keys	enter.rt	enter.started	enter.stopped	iSi.started	iSi.stopped	receiveMoneyPicture.started	receiveMoneyPicture.stopped	ISI2.started	ISI2.stopped	ChoicePic.started	ChoicePic.stopped	response.keys	response.started	response.stopped	yesNo.started	yesNo.stopped	ask.started	ask.stopped	getAdv.started	getAdv.stopped	textForCode.started	textForCode.stopped	blank.started	blank.stopped	ChoicePic2.started	ChoicePic2.stopped	resp.keys	resp.started	resp.stopped	checkL1.started	checkL1.stopped	checkR1.started	checkR1.stopped	response.rt	resp.rt	EndPrac.started	EndPrac.stopped	key_resp.keys	key_resp.rt	key_resp.started	key_resp.stopped	endText.started	endText.stopped	key_resp_2.keys	key_resp_2.rt	key_resp_2.started	key_resp_2.stopped	participant	session	age	gender (0=male	 1 = female	 2 = other)	date	expName	psychopyVersion	frameRate																		254.3939264	None	space	1182.025575	254.3939264	None																																																																					103	1	18	1	2019_Dec_05_0924	Test	3.2.4	59.83964746																										1436.460686	None	space	4.32681779	1436.460686	None																																																															103	1	18	1	2019_Dec_05_0924	Test	3.2.4	59.83964746																																1442.008658	None	1442.008658	None	1442.008658	None	left	13.46683387	1442.008658	None																																																					103	1	18	1	2019_Dec_05_0924	Test	3.2.4	59.83964746																																										1442.008658	None	1442.008658	None	return	15.50672762	1442.008658	None																																													103	1	18	1	2019_Dec_05_0924	Test	3.2.4	59.83964746		Pictures/IA100_G40.bmp	Pictures/IA100_G40.bmp	Pictures/IA100.bmp	"Try your luck and gamble!"""""	1	risk	0	0	0	5																																							1457.633146	None	1459.605025	1461.108988	1461.09227	None	1462.629665	None	None	1464.68508	None	1464.68508	None	1464.68508	None	None	None	None	None	1467.759843	None	1467.759843	None	None	1467.759843	None	None	None	None	None															103	1	18	1	2019_Dec_05_0924	Test	3.2.4	59.83964746		Pictures/IA50_G10.bmp	Pictures/IA50_G10.bmp	Pictures/IA50.bmp	"Go with the safe option here!"""""	0	safe	0	1	1	0																																							1469.76512	None	1471.80383	1473.324503	1473.307808	None	1474.861906	None	1	1476.817045	None	1476.817045	None	1476.817045	None	1477.669305	None	1477.669305	1478.671941	1479.774854	None	1479.774854	None	left	1479.774854	None	1481.061576	None	None	None	0.722468533	1.244649563													103	1	18	1	2019_Dec_05_0924	Test	3.2.4	59.83964746		Pictures/IA50_G20.bmp	Pictures/IA50_G20.bmp	Pictures/IA50.bmp	"Let's venture and take a risk!"""""	1	risk	0	2	2	1																																							1481.780136	None	1483.802139	1485.322811	1485.306088	None	1486.876906	None	1	1488.832048	None	1488.832048	None	1488.832048	None	1490.336015	None	1490.336015	1491.338652	1492.441569	None	1492.441569	None	left	1492.441569	None	1493.460915	None	None	None	1.371470409	0.969937102													103	1	18	1	2019_Dec_05_0924	Test	3.2.4	59.83964746		Pictures/IA50_G30.bmp	Pictures/IA50_G30.bmp	Pictures/IA50.bmp	"I think you should gamble."""""	1	risk	0	3	3	2																																							1494.446844	None	1496.468845	1497.989514	1497.972822	None	1499.526902	None	2	1501.498769	None	1501.498769	None	1501.498769	None	None	None	None	None	1503.95527	None	1503.95527	None	left	1503.95527	None	1505.776718	None	None	None	2.272751728	1.776237618													103	1	18	1	2019_Dec_05_0924	Test	3.2.4	59.83964746		Pictures/IA50_G40.bmp	Pictures/IA50_G40.bmp	Pictures/IA50.bmp	"It would probably be best to play it safe."""""	0	safe	0	4	4	3																																							1505.960535	None	1507.982533	1509.503208	1509.486488	None	1511.057306	None	1	1513.01245	None	1513.01245	None	1513.01245	None	1514.884061	None	1514.884061	1515.886699	1516.989612	None	1516.989612	None	right	1516.989612	None	None	None	1518.44344	None	1.727049259	1.41388967													103	1	18	1	2019_Dec_05_0924	Test	3.2.4	59.83964746		Pictures/IA100_G20.bmp	Pictures/IA100_G20.bmp	Pictures/IA100.bmp	"Go ahead and gamble!"""""	1	risk	0	5	5	4																																							1518.994881	None	1521.01688	1522.537552	1522.52086	None	1524.091664	None	1	1526.046818	None	1526.046818	None	1526.046818	None	1526.765364	None	1526.765364	1527.768003	1528.887627	None	1528.887627	None	left	1528.887627	None	1529.305392	1530.892909	None	None	0.628695148	0.379869596													103	1	18	1	2019_Dec_05_0924	Test	3.2.4	59.83964746																																																																																		1530.909632	None	space	60.34986704	1530.909632	None							103	1	18	1	2019_Dec_05_0924	Test	3.2.4	59.83964746		Pictures/IA100_G80.bmp	Pictures/IA100_G80.bmp	Pictures/IA100.bmp	"Why not gamble?"""""	1	risk					0	0	0	0	0	0	0	1													1591.435825	None	1591.435825	None	1591.435825	None	left	2.951674795	1591.435825	None	1591.435825	None	1591.435825	None	return	9.65545473	1591.435825	None	1601.161471	None	1603.150048	1604.670719	1604.654001	None	1606.2081	None	1	1608.163267	None	1608.163267	None	1608.163267	None	1608.631167	None	1608.631167	1609.633801	1610.753411	None	1610.753411	None	right	1610.753411	None	None	None	1611.772764	None	0.368245117	0.970094464													103	1	18	1	2019_Dec_05_0924	Test	3.2.4	59.83964746		Pictures/IA75_L60.bmp	Pictures/IA75_L60.bmp	Pictures/IA75.bmp	"Why not take the gamble?"""""	1	risk					0	0	0	0	0	1	1	2																															1612.758693	None	1614.797407	1616.318075	1616.301381	None	1617.855475	None	1	1619.810617	None	1619.810617	None	1619.810617	None	1620.245107	None	1620.245107	1621.247746	1622.350658	None	1622.350658	None	left	1622.350658	None	1623.253022	1624.35594	None	None	0.320899487	0.852848554													103	1	18	1	2019_Dec_05_0924	Test	3.2.4	59.83964746		Pictures/IA75_L30.bmp	Pictures/IA75_L30.bmp	Pictures/IA75.bmp	"Hold back"	0	safe					0	0	0	0	0	2	2	18																															1624.372647	None	1626.394637	1627.915312	1627.898613	None	1629.469412	None	1	1631.424574	None	1631.424574	None	1631.424574	None	1631.959284	None	1631.959284	1632.961961	1634.064869	None	1634.064869	None	left	1634.064869	None	1635.017376	1636.053426	None	None	0.402929924	0.906647611													103	1	18	1	2019_Dec_05_0924	Test	3.2.4	59.83964746		Pictures/IA25_L20.bmp	Pictures/IA25_L20.bmp	Pictures/IA25.bmp	"Don't be tempted to gamble."""""	0	safe					0	0	0	0	0	3	3	16																															1636.070149	None	1638.108861	1639.62953	1639.612816	None	1641.166907	None	1	1643.122075	None	1643.122075	None	1643.122075	None	1643.523119	None	1643.523119	1644.525757	1645.628669	None	1645.628669	None	left	1645.628669	None	1646.748285	None	None	None	0.297428684	1.070829191													103	1	18	1	2019_Dec_05_0924	Test	3.2.4	59.83964746		Pictures/IA25_L15.bmp	Pictures/IA25_L15.bmp	Pictures/IA25.bmp	"There's not much on the line here"	1	risk					0	0	0	0	0	4	4	7																															1647.633963	None	1649.655965	1651.176634	1651.159917	None	1652.730732	None	1	1654.685878	None	1654.685878	None	1654.685878	None	1655.521411	None	1655.521411	1656.524051	1657.626961	None	1657.626961	None	right	1657.626961	None	None	None	1659.030671	None	0.677631235	1.368539887													103	1	18	1	2019_Dec_05_0924	Test	3.2.4	59.83964746		Pictures/IA50_G40.bmp	Pictures/IA50_G40.bmp	Pictures/IA50.bmp	"It would probably be best to play it safe."""""	0	safe					0	0	0	0	0	5	5	14																															1659.648958	None	1661.670956	1663.191636	1663.174934	None	1664.678882	None	1	1666.700892	None	1666.700892	None	1666.700892	None	1667.486288	None	1667.486288	1668.488924	1669.591843	None	1669.591843	None	right	1669.591843	None	None	None	1670.310389	1671.597138	0.622632912	0.683645909													103	1	18	1	2019_Dec_05_0924	Test	3.2.4	59.83964746		Pictures/IA110_55_G95p.bmp	Pictures/IA110_55_G95p.bmp	Pictures/IA110.bmp	"Take a chance!"""""	1	risk					0	0	0	0	0	6	6	19																															1671.613825	None	1673.669249	1675.173222	1675.1565	None	1676.710596	None	1	1678.665761	None	1678.665761	None	1678.665761	None	1679.401035	None	1679.401035	1680.403671	1681.540006	None	1681.540006	None	left	1681.540006	None	1682.860146	None	None	None	0.641750266	1.279499686													103	1	18	1	2019_Dec_05_0924	Test	3.2.4	59.83964746		Pictures/IA25_G10.bmp	Pictures/IA25_G10.bmp	Pictures/IA25.bmp	"What's life without a little risk?"""""	1	risk					0	0	0	0	0	7	7	5																															1683.54531	None	1685.567302	1687.087958	1687.071236	None	1688.642057	None	1	1690.597201	None	1690.597201	None	1690.597201	None	1691.215506	None	1691.215506	1692.218144	1693.321057	None	1693.321057	None	right	1693.321057	None	None	None	1694.540935	None	0.494311924	1.178459751													103	1	18	1	2019_Dec_05_0924	Test	3.2.4	59.83964746		Pictures/IA75_G45.bmp	Pictures/IA75_G45.bmp	Pictures/IA75.bmp	"Don't gamble for this one."""""	0	safe					0	0	0	0	0	8	8	0																															1695.326339	None	1697.348338	1698.869011	1698.85229	None	1700.423108	None	1	1702.378253	None	1702.378253	None	1702.378253	None	1703.063391	None	1703.063391	1704.066029	1705.168941	None	1705.168941	None	left	1705.168941	None	1706.723034	None	None	None	0.577259649	1.514561225													103	1	18	1	2019_Dec_05_0924	Test	3.2.4	59.83964746		Pictures/IA20_10_G95p.bmp	Pictures/IA20_10_G95p.bmp	Pictures/IA20.bmp	"Take a leap"	1	risk					0	0	0	0	0	9	9	17																															1707.174222	None	1709.212933	1710.733609	1710.716909	None	1712.271003	None	1	1714.226147	None	1714.226147	None	1714.226147	None	1714.727479	None	1714.727479	1715.73012	1716.833032	None	1716.833032	None	right	1716.833032	None	None	None	1718.370416	None	0.353361879	1.490474958													103	1	18	1	2019_Dec_05_0924	Test	3.2.4	59.83964746		Pictures/IA20_10_L95p.bmp	Pictures/IA20_10_L95p.bmp	Pictures/IA20.bmp	"Don't be tempted to gamble."""""	0	safe					0	0	0	0	0	10	10	3																															1718.855024	None	1720.877025	1722.397694	1722.380982	None	1723.951795	None	1	1725.906937	None	1725.906937	None	1725.906937	None	1726.558653	None	1726.558653	1727.56129	1728.664204	None	1728.664204	None	right	1728.664204	None	None	None	1730.151461	None	0.544576571	1.443301714													103	1	18	1	2019_Dec_05_0924	Test	3.2.4	59.83964746		Pictures/IA50_L20.bmp	Pictures/IA50_L20.bmp	Pictures/IA50.bmp	"Certainty is boring"	1	risk					0	0	0	0	0	11	11	4																															1730.669486	None	1732.691482	1734.212157	1734.195459	None	1735.766257	None	1	1737.721422	None	1737.721422	None	1737.721422	None	1738.139206	None	1738.139206	1739.14183	1740.261452	None	1740.261452	None	right	1740.261452	None	None	None	1741.264078	None	0.314088936	0.958062525													103	1	18	1	2019_Dec_05_0924	Test	3.2.4	59.83964746		Pictures/IA100_L40.bmp	Pictures/IA100_L40.bmp	Pictures/IA100.bmp	"Think of the payoff"	1	risk					0	0	0	0	0	12	12	10																															1742.283442	None	1744.30544	1745.826117	1745.809396	None	1747.380214	None	1	1749.335356	None	1749.335356	None	1749.335356	None	1749.90352	None	1749.90352	1750.906158	1752.009071	None	1752.009071	None	right	1752.009071	None	None	None	1753.696852	None	0.444152431	1.650423719													103	1	18	1	2019_Dec_05_0924	Test	3.2.4	59.83964746		Pictures/IA100_G60.bmp	Pictures/IA100_G60.bmp	Pictures/IA100.bmp	"Be cautious"	0	safe					0	0	0	0	0	13	13	15																															1754.01435	None	1756.03635	1757.557023	1757.540327	None	1759.111122	None	1	1761.06629	None	1761.06629	None	1761.06629	None	1761.751426	None	1761.751426	1762.754065	1763.856978	None	1763.856978	None	left	1763.856978	None	1764.358285	1765.86227	None	None	0.545219543	0.458524465													103	1	18	1	2019_Dec_05_0924	Test	3.2.4	59.83964746		Pictures/IA100_G40.bmp	Pictures/IA100_G40.bmp	Pictures/IA100.bmp	"Try your luck and gamble!"""""	1	risk					0	0	0	0	0	14	14	6																															1765.87896	None	1767.900958	1769.421627	1769.404934	None	1770.9256	None	1	1772.930884	None	1772.930884	None	1772.930884	None	1773.398786	None	1773.398786	1774.40142	1775.521047	None	1775.521047	None	left	1775.521047	None	1776.13934	1777.509627	None	None	0.336625397	0.578454613													103	1	18	1	2019_Dec_05_0924	Test	3.2.4	59.83964746		Pictures/IA80_40_L95p.bmp	Pictures/IA80_40_L95p.bmp	Pictures/IA80.bmp	"Let's stay with the certain option."""""	0	safe					0	0	0	0	0	15	15	11																															1777.526324	None	1779.565033	1781.085707	1781.069013	None	1782.623105	None	1	1784.578248	None	1784.578248	None	1784.578248	None	1785.263388	None	1785.263388	1786.266062	1787.368938	None	1787.368938	None	right	1787.368938	None	None	None	1787.83685	1789.374231	0.545261349	0.426562881													103	1	18	1	2019_Dec_05_0924	Test	3.2.4	59.83964746		Pictures/IA75_G60.bmp	Pictures/IA75_G60.bmp	Pictures/IA75.bmp	"Make it exciting"	1	risk					0	0	0	0	0	16	16	8																															1789.390934	None	1791.412932	1792.933602	1792.916907	None	1794.4877	None	1	1796.44287	None	1796.44287	None	1796.44287	None	1796.877346	None	1796.877346	1797.879982	1798.982896	None	1798.982896	None	left	1798.982896	None	1800.286316	None	None	None	0.304646607	1.26060818													103	1	18	1	2019_Dec_05_0924	Test	3.2.4	59.83964746		Pictures/IA50_L30.bmp	Pictures/IA50_L30.bmp	Pictures/IA50.bmp	"Take a leap"	1	risk					0	0	0	0	0	17	17	12																															1800.988164	None	1803.010164	1804.530836	1804.514144	None	1806.084936	None	1	1808.040102	None	1808.040102	None	1808.040102	None	1808.574831	None	1808.574831	1809.57747	1810.680382	None	1810.680382	None	None	1810.680382	None	None	None	None	None	0.387409634														103	1	18	1	2019_Dec_05_0924	Test	3.2.4	59.83964746		Pictures/IA40_20_G95p.bmp	Pictures/IA40_20_G95p.bmp	Pictures/IA40.bmp	"Hold back"	0	safe					0	0	0	0	0	18	18	13																															1812.685667	None	1814.741084	1816.245063	1816.228339	None	1817.732302	None	1	1819.737589	None	1819.737589	None	1819.737589	None	1820.172078	None	1820.172078	1821.174723	1822.277629	None	1822.277629	None	left	1822.277629	None	1822.745514	1824.282898	None	None	0.289927648	0.429867583													103	1	18	1	2019_Dec_05_0924	Test	3.2.4	59.83964746		Pictures/IA25_L5.bmp	Pictures/IA25_L5.bmp	Pictures/IA25.bmp	"It would be smarter to choose the safe option."""""	0	safe					0	0	0	0	0	19	19	9																															1824.299621	None	1826.321619	1827.84229	1827.825573	None	1829.396395	None	1	1831.351533	None	1831.351533	None	1831.351533	None	1832.136938	None	1832.136938	1833.13958	1834.275909	None	1834.275909	None	right	1834.275909	None	None	None	1834.727094	1836.264479	0.635982682	0.415586374													103	1	18	1	2019_Dec_05_0924	Test	3.2.4	59.83964746												0	0	0	0																																																																									1836.51516	None	return	31.1683353	1836.51516	None	103	1	18	1	2019_Dec_05_0924	Test	3.2.4	59.83964746		Pictures/IA25_G10.bmp	Pictures/IA25_G10.bmp	Pictures/IA25.bmp	"What's life without a little risk?"""""	1	risk					1	0	1	0	0	0	0	13													1867.847728	None	1867.847728	None	1867.847728	None	right	12.56376685	1867.847728	None	1867.847728	None	1867.847728	None	return	25.69156055	1867.847728	None	1893.582232	None	1895.587548	1897.108191	1897.091477	None	1898.59546	None	1	1900.61744	None	1900.61744	None	1900.61744	None	1901.068622	None	1901.068622	1902.071259	1903.174177	None	1903.174177	None	left	1903.174177	None	1904.176823	None	None	None	0.306075507	0.957326353													103	1	18	1	2019_Dec_05_0924	Test	3.2.4	59.83964746		Pictures/IA50_L20.bmp	Pictures/IA50_L20.bmp	Pictures/IA50.bmp	"Certainty is boring"	1	risk					1	0	1	0	0	1	1	15																															1905.196164	None	1907.218162	1908.738835	1908.72214	None	1910.226089	None	1	1912.2481	None	1912.2481	None	1912.2481	None	1912.665854	None	1912.665854	1913.668494	1914.771406	None	1914.771406	None	right	1914.771406	None	None	None	1915.18917	1916.759987	0.299416331	0.37610018													103	1	18	1	2019_Dec_05_0924	Test	3.2.4	59.83964746		Pictures/IA75_G45.bmp	Pictures/IA75_G45.bmp	Pictures/IA75.bmp	"Don't gamble for this one."""""	0	safe					1	0	1	0	0	2	2	17																															1916.776686	None	1918.798685	1920.31936	1920.302662	None	1921.823328	None	1	1923.828615	None	1923.828615	None	1923.828615	None	1924.463629	None	1924.463629	1925.466266	1926.58591	None	1926.58591	None	left	1926.58591	None	1927.839191	None	None	None	0.518905299	1.209552929													103	1	18	1	2019_Dec_05_0924	Test	3.2.4	59.83964746		Pictures/IA25_L5.bmp	Pictures/IA25_L5.bmp	Pictures/IA25.bmp	"It would be smarter to choose the safe option."""""	0	safe					1	0	1	0	0	3	3	2																															1928.591174	None	1930.613157	1932.133831	1932.117135	None	1933.637796	None	1	1935.64308	None	1935.64308	None	1935.64308	None	1936.211256	None	1936.211256	1937.213896	1938.316807	None	1938.316807	None	right	1938.316807	None	None	None	1939.503267	None	0.432436477	1.142697674													103	1	18	1	2019_Dec_05_0924	Test	3.2.4	59.83964746		Pictures/IA75_G60.bmp	Pictures/IA75_G60.bmp	Pictures/IA75.bmp	"Make it exciting"	1	risk					1	0	1	0	0	4	4	12																															1940.322077	None	1942.344075	1943.86475	1943.848053	None	1945.352003	None	1	1947.374018	None	1947.374018	None	1947.374018	None	1948.075864	None	1948.075864	1949.078504	1950.198125	None	1950.198125	None	left	1950.198125	None	1951.133908	1952.203396	None	None	0.573492461	0.901376341													103	1	18	1	2019_Dec_05_0924	Test	3.2.4	59.83964746		Pictures/IA20_10_G95p.bmp	Pictures/IA20_10_G95p.bmp	Pictures/IA20.bmp	"Take a leap"	1	risk					1	0	1	0	0	5	5	8																															1952.220119	None	1954.242118	1955.762786	1955.746072	None	1957.250047	None	1	1959.272034	None	1959.272034	None	1959.272034	None	1959.689793	None	1959.689793	1960.692433	1961.812058	None	1961.812058	None	left	1961.812058	None	1962.162976	1963.800638	None	None	0.275477582	0.311438048													103	1	18	1	2019_Dec_05_0924	Test	3.2.4	59.83964746		Pictures/IA25_G15.bmp	Pictures/IA25_G15.bmp	Pictures/IA25.bmp	"I think you should take a gamble."""""	1	risk					1	0	1	0	0	6	6	11																															1963.817335	None	1965.839335	1967.360006	1967.34331	None	1968.914118	None	1	1970.869272	None	1970.869272	None	1970.869272	None	1972.022304	None	1972.022304	1973.02494	1974.127848	None	1974.127848	None	left	1974.127848	None	1974.812985	1976.116435	None	None	1.022246011	0.635653166													103	1	18	1	2019_Dec_05_0924	Test	3.2.4	59.83964746		Pictures/IA75_G15.bmp	Pictures/IA75_G15.bmp	Pictures/IA75.bmp	"Take a chance!"""""	1	risk					1	0	1	0	0	7	7	1																															1976.133129	None	1978.155129	1979.675799	1979.659106	None	1981.229896	None	1	1983.185061	None	1983.185061	None	1983.185061	None	1983.586135	None	1983.586135	1984.588775	1985.691671	None	1985.691671	None	right	1985.691671	None	None	None	1986.794566	None	0.306452959	1.063825146													103	1	18	1	2019_Dec_05_0924	Test	3.2.4	59.83964746		Pictures/IA75_L45.bmp	Pictures/IA75_L45.bmp	Pictures/IA75.bmp	"Don't gamble for this one"	0	safe					1	0	1	0	0	8	8	19																															1987.713651	None	1989.735677	1991.256322	1991.239627	None	1992.810423	None	1	1994.765588	None	1994.765588	None	1994.765588	None	1995.216774	None	1995.216774	1996.219417	1997.322326	None	1997.322326	None	left	1997.322326	None	1998.074305	1999.327608	None	None	0.309920072	0.713175888													103	1	18	1	2019_Dec_05_0924	Test	3.2.4	59.83964746		Pictures/IA25_L10.bmp	Pictures/IA25_L10.bmp	Pictures/IA25.bmp	"Dont be afraid to take the risk!"""""	1	risk					1	0	1	0	0	9	9	6																															1999.344306	None	2001.366307	2002.886974	2002.870286	None	2004.441078	None	1	2006.396241	None	2006.396241	None	2006.396241	None	2006.947675	None	2006.947675	2007.950317	2009.05323	None	2009.05323	None	right	2009.05323	None	None	None	2009.454297	2011.041814	0.423276782	0.366265031													103	1	18	1	2019_Dec_05_0924	Test	3.2.4	59.83964746		Pictures/IA50_G30.bmp	Pictures/IA50_G30.bmp	Pictures/IA50.bmp	"I think you should gamble."""""	1	risk					1	0	1	0	0	10	10	5																															2011.058511	None	2013.080512	2014.60119	2014.584494	None	2016.105151	None	1	2018.110434	None	2018.110434	None	2018.110434	None	2018.511507	None	2018.511507	2019.514141	2020.617053	None	2020.617053	None	left	2020.617053	None	2022.154423	None	None	None	0.293076934	1.498442835													103	1	18	1	2019_Dec_05_0924	Test	3.2.4	59.83964746		Pictures/IA100_G40.bmp	Pictures/IA100_G40.bmp	Pictures/IA100.bmp	"Try your luck and gamble!"""""	1	risk					1	0	1	0	0	11	11	3																															2022.63905	None	2024.661043	2026.181721	2026.164997	None	2027.668971	None	1	2029.690968	None	2029.690968	None	2029.690968	None	2030.158856	None	2030.158856	2031.161494	2032.28112	None	2032.28112	None	right	2032.28112	None	2033.601272	None	2033.70154	None	0.336537247	1.386375255													103	1	18	1	2019_Dec_05_0924	Test	3.2.4	59.83964746		Pictures/IA110_55_G95p.bmp	Pictures/IA110_55_G95p.bmp	Pictures/IA110.bmp	"Take a chance!"""""	1	risk					1	0	1	0	0	12	12	18																															2034.286419	None	2036.42543	2037.929329	2037.89591	None	2039.366507	None	1	2041.338317	None	2041.338317	None	2041.338317	None	2041.689238	None	2041.689238	2042.691881	2043.811491	None	2043.811491	None	left	2043.811491	None	2044.463212	2045.800028	None	None	0.265198052	0.615972547													103	1	18	1	2019_Dec_05_0924	Test	3.2.4	59.83964746		Pictures/IA100_G80.bmp	Pictures/IA100_G80.bmp	Pictures/IA100.bmp	"Why not gamble?"""""	1	risk					1	0	1	0	0	13	13	16																															2045.817942	None	2047.85549	2049.359462	2049.342741	None	2050.863408	None	1	2052.868704	None	2052.868704	None	2052.868704	None	2053.436865	None	2053.436865	2054.439505	2055.559117	None	2055.559117	None	right	2055.559117	None	None	None	2056.428081	2057.547686	0.470807457	0.820386505													103	1	18	1	2019_Dec_05_0924	Test	3.2.4	59.83964746		Pictures/IA20_10_L95p.bmp	Pictures/IA20_10_L95p.bmp	Pictures/IA20.bmp	"Don't be tempted to gamble."""""	0	safe					1	0	1	0	0	14	14	7																															2057.564411	None	2059.603141	2061.107084	2061.090362	None	2062.64448	None	1	2064.616347	None	2064.616347	None	2064.616347	None	2064.983976	None	2064.983976	2065.986616	2067.089516	None	2067.089516	None	right	2067.089516	None	None	None	2067.45715	2069.078085	0.267165594	0.321983976													103	1	18	1	2019_Dec_05_0924	Test	3.2.4	59.83964746		Pictures/IA75_L60.bmp	Pictures/IA75_L60.bmp	Pictures/IA75.bmp	"Why not take the gamble?"""""	1	risk					1	0	1	0	0	15	15	4																															2069.094794	None	2071.133506	2072.637466	2072.620762	None	2074.158145	None	1	2076.146733	None	2076.146733	None	2076.146733	None	2076.531067	None	2076.531067	2077.533707	2078.636629	None	2078.636629	None	left	2078.636629	None	2079.204791	2080.6252	None	None	0.280765443	0.518873412													103	1	18	1	2019_Dec_05_0924	Test	3.2.4	59.83964746		Pictures/IA75_L30.bmp	Pictures/IA75_L30.bmp	Pictures/IA75.bmp	"Hold back"	0	safe					1	0	1	0	0	16	16	9																															2080.641901	None	2082.663899	2084.184571	2084.167877	None	2085.738674	None	1	2087.693837	None	2087.693837	None	2087.693837	None	2088.195144	None	2088.195144	2089.197783	2090.317405	None	2090.317405	None	right	2090.317405	None	None	None	2090.885583	2092.322684	0.357675375	0.526107742													103	1	18	1	2019_Dec_05_0924	Test	3.2.4	59.83964746		Pictures/IA25_G20.bmp	Pictures/IA25_G20.bmp	Pictures/IA25.bmp	"I wouldn't gamble for this one. """""	0	safe					1	0	1	0	0	17	17	0																															2092.339409	None	2094.378127	2095.882071	2095.865395	None	2097.436165	None	1	2099.391336	None	2099.391336	None	2099.391336	None	2099.825809	None	2099.825809	2100.828449	2101.93136	None	2101.93136	None	left	2101.93136	None	2102.298978	2103.936639	None	None	0.316179712	0.320146241													103	1	18	1	2019_Dec_05_0924	Test	3.2.4	59.83964746		Pictures/IA110_55_L95p.bmp	Pictures/IA110_55_L95p.bmp	Pictures/IA110.bmp	"Trust me"	1	risk					1	0	1	0	0	18	18	14																															2103.953339	None	2105.975335	2107.496008	2107.479312	None	2109.050106	None	1	2111.005275	None	2111.005275	None	2111.005275	None	2111.38962	None	2111.38962	2112.39226	2113.495169	None	2113.495169	None	right	2113.495169	None	None	None	2114.230424	2115.500438	0.270241241	0.7003306													103	1	18	1	2019_Dec_05_0924	Test	3.2.4	59.83964746		Pictures/IA50_G10.bmp	Pictures/IA50_G10.bmp	Pictures/IA50.bmp	"Go with the safe option here!"""""	0	safe					1	0	1	0	0	19	19	10																															2115.517161	None	2117.555869	2119.076539	2119.059822	None	2120.613918	None	1	2122.569082	None	2122.569082	None	2122.569082	None	2123.287607	None	2123.287607	2124.29028	2125.393192	None	2125.393192	None	left	2125.393192	None	2126.312276	2127.381761	None	None	0.610432143	0.874315348													103	1	18	1	2019_Dec_05_0924	Test	3.2.4	59.83964746												1	0	1	0																																																																									2127.54886	None	return	18.66262652	2127.54886	None	103	1	18	1	2019_Dec_05_0924	Test	3.2.4	59.83964746		Pictures/IA75_G30.bmp	Pictures/IA75_G30.bmp	Pictures/IA75.bmp	"Be bold"	1	risk					2	0	2	0	0	0	0	18													2146.398538	None	2146.398538	None	2146.398538	None	left	2.316977944	2146.398538	None	2146.398538	None	2146.398538	None	return	5.212754067	2146.398538	None	2151.66241	None	2153.667705	2155.188377	2155.171661	None	2156.725754	None	1	2158.68092	None	2158.68092	None	2158.68092	None	2159.115388	None	2159.115388	2160.118022	2161.220936	None	2161.220936	None	right	2161.220936	None	None	None	2162.14003	2163.209509	0.330588555	0.870569353													103	1	18	1	2019_Dec_05_0924	Test	3.2.4	59.83964746		Pictures/IA50_L10.bmp	Pictures/IA50_L10.bmp	Pictures/IA50.bmp	"Play it safe"	0	safe					2	0	2	0	0	1	1	16																															2163.226227	None	2165.248225	2166.768897	2166.752203	None	2168.339705	None	1	2170.278148	None	2170.278148	None	2170.278148	None	2170.69592	None	2170.69592	2171.698557	2172.801466	None	2172.801466	None	right	2172.801466	None	None	None	2173.169086	2174.806745	0.245355985	0.322040394													103	1	18	1	2019_Dec_05_0924	Test	3.2.4	59.83964746		Pictures/IA50_L20.bmp	Pictures/IA50_L20.bmp	Pictures/IA50.bmp	"Certainty is boring"	1	risk					2	0	2	0	0	2	2	0																															2174.823449	None	2176.845442	2178.366115	2178.349422	None	2179.903502	None	1	2181.875368	None	2181.875368	None	2181.875368	None	2182.326555	None	2182.326555	2183.329194	2184.432105	None	2184.432105	None	left	2184.432105	None	2186.170026	None	None	None	0.344143227	1.699407693													103	1	18	1	2019_Dec_05_0924	Test	3.2.4	59.83964746		Pictures/IA25_L15.bmp	Pictures/IA25_L15.bmp	Pictures/IA25.bmp	"There's not much on the line here"	1	risk					2	0	2	0	0	3	3	4																															2186.454098	None	2188.476094	2189.996767	2189.980069	None	2191.534153	None	1	2193.50602	None	2193.50602	None	2193.50602	None	2193.940506	None	2193.940506	2194.943145	2196.046058	None	2196.046058	None	left	2196.046058	None	2197.550004	None	None	None	0.297489536	1.469443765													103	1	18	1	2019_Dec_05_0924	Test	3.2.4	59.83964746		Pictures/IA100_L60.bmp	Pictures/IA100_L60.bmp	Pictures/IA100.bmp	"You'd have a lot to lose"	0	safe					2	0	2	0	0	4	4	10																															2198.068037	None	2200.090033	2201.610705	2201.59401	None	2203.148094	None	1	2205.119958	None	2205.119958	None	2205.119958	None	2205.654713	None	2205.654713	2206.657346	2207.760261	None	2207.760261	None	left	2207.760261	None	2208.662631	2209.765542	None	None	0.387555773	0.8592577													103	1	18	1	2019_Dec_05_0924	Test	3.2.4	59.83964746		Pictures/IA25_L10.bmp	Pictures/IA25_L10.bmp	Pictures/IA25.bmp	"Dont be afraid to take the risk!"""""	1	risk					2	0	2	0	0	5	5	19																															2209.782241	None	2211.804239	2213.324911	2213.308215	None	2214.862297	None	1	2216.834161	None	2216.834161	None	2216.834161	None	2217.45247	None	2217.45247	2218.455107	2219.558022	None	2219.558022	None	right	2219.558022	None	None	None	2219.94238	2221.563288	0.489360714	0.341479429													103	1	18	1	2019_Dec_05_0924	Test	3.2.4	59.83964746		Pictures/IA80_40_L95p.bmp	Pictures/IA80_40_L95p.bmp	Pictures/IA80.bmp	"Let's stay with the certain option."""""	0	safe					2	0	2	0	0	6	6	9																															2221.58001	None	2223.718994	2225.222944	2225.189528	None	2226.660069	None	1	2228.631932	None	2228.631932	None	2228.631932	None	2229.032988	None	2229.032988	2230.035626	2231.138547	None	2231.138547	None	right	2231.138547	None	None	None	2231.556305	2233.127094	0.275580498	0.376948654													103	1	18	1	2019_Dec_05_0924	Test	3.2.4	59.83964746		Pictures/IA50_G10.bmp	Pictures/IA50_G10.bmp	Pictures/IA50.bmp	"Go with the safe option here!"""""	0	safe					2	0	2	0	0	7	7	13																															2233.143832	None	2235.165815	2236.686491	2236.669768	None	2238.190458	None	1	2240.195741	None	2240.195741	None	2240.195741	None	2240.513241	None	2240.513241	2241.515887	2242.635504	None	2242.635504	None	left	2242.635504	None	2242.9697	2244.640772	None	None	0.21576629	0.288000171													103	1	18	1	2019_Dec_05_0924	Test	3.2.4	59.83964746		Pictures/IA25_G5.bmp	Pictures/IA25_G5.bmp	Pictures/IA25.bmp	"Let's stay with the certain option."""""	0	safe					2	0	2	0	0	8	8	7																															2244.657494	None	2246.67949	2248.200162	2248.18345	None	2249.754261	None	1	2251.709403	None	2251.709403	None	2251.709403	None	2252.093762	None	2252.093762	2253.096397	2254.199308	None	2254.199308	None	left	2254.199308	None	2255.469308	None	None	None	0.254110221	1.236191876													103	1	18	1	2019_Dec_05_0924	Test	3.2.4	59.83964746		Pictures/IA25_L20.bmp	Pictures/IA25_L20.bmp	Pictures/IA25.bmp	"Don't be tempted to gamble."""""	0	safe					2	0	2	0	0	9	9	3																															2256.221305	None	2258.243299	2259.763971	2259.747251	None	2261.30136	None	1	2263.273221	None	2263.273221	None	2263.273221	None	2263.640849	None	2263.640849	2264.643483	2265.763105	None	2265.763105	None	left	2265.763105	None	2266.464967	2267.768386	None	None	0.266282456	0.656398804													103	1	18	1	2019_Dec_05_0924	Test	3.2.4	59.83964746		Pictures/IA40_20_G95p.bmp	Pictures/IA40_20_G95p.bmp	Pictures/IA40.bmp	"Hold back"	0	safe					2	0	2	0	0	10	10	15																															2267.785109	None	2269.823862	2271.344491	2271.327775	None	2272.865152	None	1	2274.837023	None	2274.837023	None	2274.837023	None	2275.187955	None	2275.187955	2276.190591	2277.293503	None	2277.293503	None	left	2277.293503	None	2277.627702	2279.298775	None	None	0.230489804	0.286003888													103	1	18	1	2019_Dec_05_0924	Test	3.2.4	59.83964746		Pictures/IA75_G15.bmp	Pictures/IA75_G15.bmp	Pictures/IA75.bmp	"Take a chance!"""""	1	risk					2	0	2	0	0	11	11	12																															2279.315494	None	2281.337492	2282.858169	2282.841444	None	2284.395554	None	1	2286.367417	None	2286.367417	None	2286.367417	None	2286.735055	None	2286.735055	2287.73769	2288.8406	None	2288.8406	None	left	2288.8406	None	2290.277705	None	None	None	0.284091329	1.402903189													103	1	18	1	2019_Dec_05_0924	Test	3.2.4	59.83964746		Pictures/IA50_L40.bmp	Pictures/IA50_L40.bmp	Pictures/IA50.bmp	"That gamble doesn't sound too good"	0	safe					2	0	2	0	0	12	12	1																															2290.845869	None	2292.867864	2294.388543	2294.371846	None	2295.942638	None	1	2297.897807	None	2297.897807	None	2297.897807	None	2298.465963	None	2298.465963	2299.468603	2300.571514	None	2300.571514	None	left	2300.571514	None	2300.939138	2302.576794	None	None	0.417714949	0.319992652													103	1	18	1	2019_Dec_05_0924	Test	3.2.4	59.83964746		Pictures/IA75_L15.bmp	Pictures/IA75_L15.bmp	Pictures/IA75.bmp	"Trust me"	1	risk					2	0	2	0	0	13	13	8																															2302.593491	None	2304.615488	2306.136178	2306.119466	None	2307.690266	None	1	2309.645426	None	2309.645426	None	2309.645426	None	2310.263721	None	2310.263721	2311.266358	2312.385981	None	2312.385981	None	right	2312.385981	None	None	None	2312.770323	2314.374551	0.518082704	0.337520536													103	1	18	1	2019_Dec_05_0924	Test	3.2.4	59.83964746		Pictures/IA80_40_G95p.bmp	Pictures/IA80_40_G95p.bmp	Pictures/IA80.bmp	"Think of the payoff"	1	risk					2	0	2	0	0	14	14	11																															2314.391248	None	2316.413248	2317.933919	2317.917222	None	2319.488016	None	1	2321.443186	None	2321.443186	None	2321.443186	None	2321.84424	None	2321.84424	2322.846876	2323.949788	None	2323.949788	None	left	2323.949788	None	2324.685045	2325.955056	None	None	0.280321764	0.685720026													103	1	18	1	2019_Dec_05_0924	Test	3.2.4	59.83964746		Pictures/IA40_20_L95p.bmp	Pictures/IA40_20_L95p.bmp	Pictures/IA40.bmp	"Trust me"	1	risk					2	0	2	0	0	15	15	6																															2325.971779	None	2327.993776	2329.514448	2329.49773	None	2331.068544	None	1	2333.023688	None	2333.023688	None	2333.023688	None	2333.408034	None	2333.408034	2334.410671	2335.513582	None	2335.513582	None	right	2335.513582	None	None	None	2336.131875	2337.502169	0.28382965	0.577920437													103	1	18	1	2019_Dec_05_0924	Test	3.2.4	59.83964746		Pictures/IA50_G20.bmp	Pictures/IA50_G20.bmp	Pictures/IA50.bmp	"Let's venture and take a risk!"""""	1	risk					2	0	2	0	0	16	16	17																															2337.518863	None	2339.540864	2341.061532	2341.04484	None	2342.598917	None	None	2344.570785	None	2344.570785	None	2344.570785	None	None	None	None	None	2347.695702	None	2347.695702	None	left	2347.695702	None	2349.634123	None	None	None		1.891806153													103	1	18	1	2019_Dec_05_0924	Test	3.2.4	59.83964746		Pictures/IA20_10_L95p.bmp	Pictures/IA20_10_L95p.bmp	Pictures/IA20.bmp	"Don't be tempted to gamble."""""	0	safe					2	0	2	0	0	17	17	5																															2349.717689	None	2351.773107	2353.277069	2353.260348	None	2354.847865	None	None	2356.76961	None	2356.76961	None	2356.76961	None	None	None	None	None	2359.861077	None	2359.861077	None	right	2359.861077	None	None	None	2360.362407	2361.866374		0.454429335													103	1	18	1	2019_Dec_05_0924	Test	3.2.4	59.83964746		Pictures/IA100_L80.bmp	Pictures/IA100_L80.bmp	Pictures/IA100.bmp	"Go all in!"""""	1	risk					2	0	2	0	0	18	18	2																															2361.883068	None	2363.905066	2365.425739	2365.409042	None	2366.996545	None	2	2368.934989	None	2368.934989	None	2368.934989	None	None	None	None	None	2370.288556	None	2370.288556	None	left	2370.288556	None	2370.923573	2372.29384	None	None	1.20453099	0.594957355													103	1	18	1	2019_Dec_05_0924	Test	3.2.4	59.83964746		Pictures/IA100_G80.bmp	Pictures/IA100_G80.bmp	Pictures/IA100.bmp	"Why not gamble?"""""	1	risk					2	0	2	0	0	19	19	14																															2372.310557	None	2374.332557	2375.853233	2375.83651	None	2377.373905	None	2	2379.362469	None	2379.362469	None	2379.362469	None	None	None	None	None	2379.964052	None	2379.964052	None	right	2379.964052	None	None	None	2380.749452	2381.969344	0.441044836	0.74345678													103	1	18	1	2019_Dec_05_0924	Test	3.2.4	59.83964746												2	0	2	0																																																																									2382.136457	None	return	42.51503479	2382.136457	None	103	1	18	1	2019_Dec_05_0924	Test	3.2.4	59.83964746		Pictures/IA100_G20.bmp	Pictures/IA100_G20.bmp	Pictures/IA100.bmp	"Go ahead and gamble!"""""	1	risk					3	0	3	0	0	0	0	0													2424.832301	None	2424.832301	None	2424.832301	None	left	1.227200997	2424.832301	None	2424.832301	None	2424.832301	None	return	1.890973017	2424.832301	None	2426.78744	None	2428.792739	2430.313407	2430.296688	None	2431.834072	None	1	2433.805941	None	2433.805941	None	2433.805941	None	2434.240413	None	2434.240413	2435.243051	2436.345964	None	2436.345964	None	right	2436.345964	None	None	None	2437.331892	None	0.341584811	0.937537432													103	1	18	1	2019_Dec_05_0924	Test	3.2.4	59.83964746		Pictures/IA50_L30.bmp	Pictures/IA50_L30.bmp	Pictures/IA50.bmp	"Take a leap"	1	risk					3	0	3	0	0	1	1	19																															2438.351261	None	2440.373252	2441.893924	2441.877205	None	2443.43131	None	1	2445.403176	None	2445.403176	None	2445.403176	None	2445.770798	None	2445.770798	2446.773436	2447.87636	None	2447.87636	None	left	2447.87636	None	2448.177145	2449.881641	None	None	0.22433838	0.263152228													103	1	18	1	2019_Dec_05_0924	Test	3.2.4	59.83964746		Pictures/IA75_G30.bmp	Pictures/IA75_G30.bmp	Pictures/IA75.bmp	"Be bold"	1	risk					3	0	3	0	0	2	2	6																															2449.898338	None	2451.920335	2453.441006	2453.424312	None	2454.928264	None	1	2456.950271	None	2456.950271	None	2456.950271	None	2457.351326	None	2457.351326	2458.353964	2459.490298	None	2459.490298	None	left	2459.490298	None	2460.576495	None	None	None	0.309240185	1.049196051													103	1	18	1	2019_Dec_05_0924	Test	3.2.4	59.83964746		Pictures/IA25_G10.bmp	Pictures/IA25_G10.bmp	Pictures/IA25.bmp	"What's life without a little risk?"""""	1	risk					3	0	3	0	0	3	3	8																															2461.512276	None	2463.534273	2465.038246	2465.021531	None	2466.592337	None	1	2468.564197	None	2468.564197	None	2468.564197	None	2468.998674	None	2468.998674	2470.00131	2471.104225	None	2471.104225	None	right	2471.104225	None	None	None	2471.505292	2473.109514	0.311314229	0.363275995													103	1	18	1	2019_Dec_05_0924	Test	3.2.4	59.83964746		Pictures/IA50_L40.bmp	Pictures/IA50_L40.bmp	Pictures/IA50.bmp	"That gamble doesn't sound too good"	0	safe					3	0	3	0	0	4	4	12																															2473.126213	None	2475.148219	2476.668883	2476.65219	None	2478.156146	None	1	2480.178147	None	2480.178147	None	2480.178147	None	2480.612626	None	2480.612626	2481.615261	2482.718173	None	2482.718173	None	left	2482.718173	None	2483.085793	2484.723452	None	None	0.281365378	0.325335446													103	1	18	1	2019_Dec_05_0924	Test	3.2.4	59.83964746		Pictures/IA40_20_G95p.bmp	Pictures/IA40_20_G95p.bmp	Pictures/IA40.bmp	"Hold back"	0	safe					3	0	3	0	0	5	5	13																															2484.740153	None	2486.762148	2488.282822	2488.266125	None	2489.770074	None	1	2491.792084	None	2491.792084	None	2491.792084	None	2492.226548	None	2492.226548	2493.229186	2494.332101	None	2494.332101	None	left	2494.332101	None	2494.68302	2496.320678	None	None	0.291426095	0.311403605													103	1	18	1	2019_Dec_05_0924	Test	3.2.4	59.83964746		Pictures/IA50_L20.bmp	Pictures/IA50_L20.bmp	Pictures/IA50.bmp	"Certainty is boring"	1	risk					3	0	3	0	0	6	6	1																															2496.337379	None	2498.359377	2499.880047	2499.863352	None	2501.400724	None	1	2503.389317	None	2503.389317	None	2503.389317	None	2503.807066	None	2503.807066	2504.809708	2505.912616	None	2505.912616	None	right	2505.912616	None	None	None	2506.948686	None	0.294192074	0.994884128													103	1	18	1	2019_Dec_05_0924	Test	3.2.4	59.83964746		Pictures/IA100_L80.bmp	Pictures/IA100_L80.bmp	Pictures/IA100.bmp	"Go all in!"""""	1	risk					3	0	3	0	0	7	7	18																															2507.93462	None	2509.956619	2511.477289	2511.460572	None	2512.964546	None	1	2514.986527	None	2514.986527	None	2514.986527	None	2515.404293	None	2515.404293	2516.406956	2517.509841	None	2517.509841	None	left	2517.509841	None	2517.97775	2519.515134	None	None	0.336988458	0.421663377													103	1	18	1	2019_Dec_05_0924	Test	3.2.4	59.83964746		Pictures/IA75_G45.bmp	Pictures/IA75_G45.bmp	Pictures/IA75.bmp	"Don't gamble for this one."""""	0	safe					3	0	3	0	0	8	8	17																															2519.531835	None	2521.553828	2523.074501	2523.057806	None	2524.6286	None	1	2526.583765	None	2526.583765	None	2526.583765	None	2527.051644	None	2527.051644	2528.054289	2529.157202	None	2529.157202	None	right	2529.157202	None	None	None	2530.44392	None	0.363738513	1.246292998													103	1	18	1	2019_Dec_05_0924	Test	3.2.4	59.83964746		Pictures/IA110_55_L95p.bmp	Pictures/IA110_55_L95p.bmp	Pictures/IA110.bmp	"Trust me"	1	risk					3	0	3	0	0	9	9	16																															2531.179203	None	2533.2012	2534.721871	2534.705153	None	2536.242549	None	1	2538.231112	None	2538.231112	None	2538.231112	None	2538.615458	None	2538.615458	2539.618093	2540.721006	None	2540.721006	None	right	2540.721006	None	None	None	2541.088649	2542.709587	0.276396801	0.330494366													103	1	18	1	2019_Dec_05_0924	Test	3.2.4	59.83964746		Pictures/IA100_G80.bmp	Pictures/IA100_G80.bmp	Pictures/IA100.bmp	"Why not gamble?"""""	1	risk					3	0	3	0	0	10	10	5																															2542.726291	None	2544.748282	2546.268956	2546.252258	None	2547.772917	None	1	2549.778204	None	2549.778204	None	2549.778204	None	2550.162562	None	2550.162562	2551.165202	2552.284827	None	2552.284827	None	right	2552.284827	None	None	None	2552.669167	2554.273392	0.289319229	0.342675037													103	1	18	1	2019_Dec_05_0924	Test	3.2.4	59.83964746		Pictures/IA100_L60.bmp	Pictures/IA100_L60.bmp	Pictures/IA100.bmp	"You'd have a lot to lose"	0	safe					3	0	3	0	0	11	11	14																															2554.29009	None	2556.312088	2557.832758	2557.816063	None	2559.353439	None	1	2561.342022	None	2561.342022	None	2561.342022	None	2562.094003	None	2562.094003	2563.09664	2564.199555	None	2564.199555	None	left	2564.199555	None	2564.817845	2566.18811	None	None	0.605490182	0.571947787													103	1	18	1	2019_Dec_05_0924	Test	3.2.4	59.83964746		Pictures/IA25_G15.bmp	Pictures/IA25_G15.bmp	Pictures/IA25.bmp	"I think you should take a gamble."""""	1	risk					3	0	3	0	0	12	12	9																															2566.204834	None	2568.226833	2569.747501	2569.730782	None	2571.301605	None	1	2573.256742	None	2573.256742	None	2573.256742	None	2573.641097	None	2573.641097	2574.643736	2575.746648	None	2575.746648	None	right	2575.746648	None	None	None	2576.164412	2577.735204	0.258770852	0.368858696													103	1	18	1	2019_Dec_05_0924	Test	3.2.4	59.83964746		Pictures/IA100_L40.bmp	Pictures/IA100_L40.bmp	Pictures/IA100.bmp	"Think of the payoff"	1	risk					3	0	3	0	0	13	13	3																															2577.751926	None	2579.773925	2581.294599	2581.277876	None	2582.831981	None	1	2584.803847	None	2584.803847	None	2584.803847	None	2585.255021	None	2585.255021	2586.257663	2587.360573	None	2587.360573	None	right	2587.360573	None	None	None	2587.711494	2589.349154	0.319670831	0.306930215													103	1	18	1	2019_Dec_05_0924	Test	3.2.4	59.83964746		Pictures/IA20_10_L95p.bmp	Pictures/IA20_10_L95p.bmp	Pictures/IA20.bmp	"Don't be tempted to gamble."""""	0	safe					3	0	3	0	0	14	14	11																															2589.365854	None	2591.387854	2592.908522	2592.891825	None	2594.412491	None	1	2596.417772	None	2596.417772	None	2596.417772	None	2596.785406	None	2596.785406	2597.788045	2598.907667	None	2598.907667	None	right	2598.907667	None	None	None	2599.375574	2600.912961	0.249731779	0.423840503													103	1	18	1	2019_Dec_05_0924	Test	3.2.4	59.83964746		Pictures/IA75_G15.bmp	Pictures/IA75_G15.bmp	Pictures/IA75.bmp	"Take a chance!"""""	1	risk					3	0	3	0	0	15	15	2																															2600.929657	None	2602.95168	2604.472325	2604.455634	None	2605.993006	None	1	2607.981589	None	2607.981589	None	2607.981589	None	2608.466187	None	2608.466187	2609.46883	2610.571736	None	2610.571736	None	right	2610.571736	None	None	None	2611.975443	None	0.397920415	1.359768646													103	1	18	1	2019_Dec_05_0924	Test	3.2.4	59.83964746		Pictures/IA110_55_G95p.bmp	Pictures/IA110_55_G95p.bmp	Pictures/IA110.bmp	"Take a chance!"""""	1	risk					3	0	3	0	0	16	16	4																															2612.593729	None	2614.615722	2616.136415	2616.119699	None	2617.657072	None	1	2619.645659	None	2619.645659	None	2619.645659	None	2619.979873	None	2619.979873	2620.982509	2622.08542	None	2622.08542	None	left	2622.08542	None	2622.703714	2624.073977	None	None	0.277853955	0.5820835													103	1	18	1	2019_Dec_05_0924	Test	3.2.4	59.83964746		Pictures/IA75_L15.bmp	Pictures/IA75_L15.bmp	Pictures/IA75.bmp	"Trust me"	1	risk					3	0	3	0	0	17	17	15																															2624.0907	None	2626.112696	2627.63337	2627.616655	None	2629.154056	None	1	2631.142621	None	2631.142621	None	2631.142621	None	2631.510245	None	2631.510245	2632.51288	2633.615792	None	2633.615792	None	right	2633.615792	None	None	None	2633.983437	2635.621072	0.268878977	0.323712004													103	1	18	1	2019_Dec_05_0924	Test	3.2.4	59.83964746		Pictures/IA100_G60.bmp	Pictures/IA100_G60.bmp	Pictures/IA100.bmp	"Be cautious"	0	safe					3	0	3	0	0	18	18	10																															2635.637795	None	2637.65979	2639.163742	2639.147055	None	2640.717851	None	1	2642.689714	None	2642.689714	None	2642.689714	None	2643.074061	None	2643.074061	2644.076698	2645.179614	None	2645.179614	None	left	2645.179614	None	2646.616713	None	None	None	0.24179626	1.391901834													103	1	18	1	2019_Dec_05_0924	Test	3.2.4	59.83964746		Pictures/IA25_L5.bmp	Pictures/IA25_L5.bmp	Pictures/IA25.bmp	"It would be smarter to choose the safe option."""""	0	safe					3	0	3	0	0	19	19	7																															2647.201587	None	2649.223583	2650.74426	2650.727561	None	2652.281639	None	1	2654.253508	None	2654.253508	None	2654.253508	None	2654.654576	None	2654.654576	2655.657212	2656.760124	None	2656.760124	None	right	2656.760124	None	None	None	2657.044202	2658.748682	0.26200112	0.243375962													103	1	18	1	2019_Dec_05_0924	Test	3.2.4	59.83964746												3	0	3	0																																																																									2658.915807	None	return	18.46368746	2658.915807	None	103	1	18	1	2019_Dec_05_0924	Test	3.2.4	59.83964746		Pictures/IA25_G10.bmp	Pictures/IA25_G10.bmp	Pictures/IA25.bmp	"What's life without a little risk?"""""	1	risk					4	0	4	0	0	0	0	14													2677.531524	None	2677.531524	None	2677.531524	None	right	6.567969822	2677.531524	None	2677.531524	None	2677.531524	None	return	11.07976615	2677.531524	None	2688.67756	None	2690.682852	2692.203519	2692.186802	None	2693.674045	None	1	2695.696072	None	2695.696072	None	2695.696072	None	2696.0971	None	2696.0971	2697.099736	2698.202655	None	2698.202655	None	right	2698.202655	None	None	None	2698.854363	2700.19122	0.259453197	0.608846238													103	1	18	1	2019_Dec_05_0924	Test	3.2.4	59.83964746		Pictures/IA25_G5.bmp	Pictures/IA25_G5.bmp	Pictures/IA25.bmp	"Let's stay with the certain option."""""	0	safe					4	0	4	0	0	1	1	5																															2700.207946	None	2702.229937	2703.750613	2703.733891	None	2705.254579	None	1	2707.259866	None	2707.259866	None	2707.259866	None	2707.694327	None	2707.694327	2708.696968	2709.799892	None	2709.799892	None	left	2709.799892	None	2710.835949	None	None	None	0.287646834	0.987606772													103	1	18	1	2019_Dec_05_0924	Test	3.2.4	59.83964746		Pictures/IA25_L20.bmp	Pictures/IA25_L20.bmp	Pictures/IA25.bmp	"Don't be tempted to gamble."""""	0	safe					4	0	4	0	0	2	2	17																															2711.821877	None	2713.843875	2715.364546	2715.347827	None	2716.851803	None	1	2718.873785	None	2718.873785	None	2718.873785	None	2719.324974	None	2719.324974	2720.327612	2721.430555	None	2721.430555	None	left	2721.430555	None	2721.781444	2723.419103	None	None	0.337731161	0.316930227													103	1	18	1	2019_Dec_05_0924	Test	3.2.4	59.83964746		Pictures/IA25_L10.bmp	Pictures/IA25_L10.bmp	Pictures/IA25.bmp	"Dont be afraid to take the risk!"""""	1	risk					4	0	4	0	0	3	3	4																															2723.435802	None	2725.457798	2726.978473	2726.961775	None	2728.499152	None	1	2730.487735	None	2730.487735	None	2730.487735	None	2730.888789	None	2730.888789	2731.891431	2732.994341	None	2732.994341	None	right	2732.994341	None	None	None	2733.996929	None	0.283773677	0.969177215													103	1	18	1	2019_Dec_05_0924	Test	3.2.4	59.83964746		Pictures/IA25_G15.bmp	Pictures/IA25_G15.bmp	Pictures/IA25.bmp	"I think you should take a gamble."""""	1	risk					4	0	4	0	0	4	4	0																															2735.01633	None	2737.038328	2738.559002	2738.542279	None	2740.062969	None	1	2742.068256	None	2742.068256	None	2742.068256	None	2742.45259	None	2742.45259	2743.455221	2744.558131	None	2744.558131	None	right	2744.558131	None	None	None	2745.27669	2746.546699	0.263252113	0.669374666													103	1	18	1	2019_Dec_05_0924	Test	3.2.4	59.83964746		Pictures/IA100_G80.bmp	Pictures/IA100_G80.bmp	Pictures/IA100.bmp	"Why not gamble?"""""	1	risk					4	0	4	0	0	5	5	13																															2746.563424	None	2748.585424	2750.106091	2750.089382	None	2751.626769	None	1	2753.615332	None	2753.615332	None	2753.615332	None	2753.999689	None	2753.999689	2755.002327	2756.105234	None	2756.105234	None	right	2756.105234	None	None	None	2756.690108	2758.093808	0.292183609	0.54626985													103	1	18	1	2019_Dec_05_0924	Test	3.2.4	59.83964746		Pictures/IA40_20_L95p.bmp	Pictures/IA40_20_L95p.bmp	Pictures/IA40.bmp	"Trust me"	1	risk					4	0	4	0	0	6	6	15																															2758.11051	None	2760.132501	2761.653176	2761.636481	None	2763.173848	None	1	2765.162437	None	2765.162437	None	2765.162437	None	2765.546782	None	2765.546782	2766.549419	2767.652332	None	2767.652332	None	right	2767.652332	None	None	None	2768.003251	2769.640892	0.273078295	0.311161631													103	1	18	1	2019_Dec_05_0924	Test	3.2.4	59.83964746		Pictures/IA80_40_L95p.bmp	Pictures/IA80_40_L95p.bmp	Pictures/IA80.bmp	"Let's stay with the certain option."""""	0	safe					4	0	4	0	0	7	7	16																															2769.657612	None	2771.679608	2773.200278	2773.183561	None	2774.720954	None	1	2776.709517	None	2776.709517	None	2776.709517	None	2777.144017	None	2777.144017	2778.146656	2779.249557	None	2779.249557	None	right	2779.249557	None	None	None	2780.38587	None	0.293989434	1.097943605													103	1	18	1	2019_Dec_05_0924	Test	3.2.4	59.83964746		Pictures/IA50_L10.bmp	Pictures/IA50_L10.bmp	Pictures/IA50.bmp	"Play it safe"	0	safe					4	0	4	0	0	8	8	12																															2781.254824	None	2783.27682	2784.797491	2784.780797	None	2786.318168	None	1	2788.30676	None	2788.30676	None	2788.30676	None	2788.640971	None	2788.640971	2789.643605	2790.763227	None	2790.763227	None	right	2790.763227	None	None	None	2791.130848	2792.768508	0.208750359	0.328273145													103	1	18	1	2019_Dec_05_0924	Test	3.2.4	59.83964746		Pictures/IA100_L80.bmp	Pictures/IA100_L80.bmp	Pictures/IA100.bmp	"Go all in!"""""	1	risk					4	0	4	0	0	9	9	11																															2792.785206	None	2794.807202	2796.32788	2796.311183	None	2797.848551	None	1	2799.83714	None	2799.83714	None	2799.83714	None	2800.204772	None	2800.204772	2801.207411	2802.310327	None	2802.310327	None	left	2802.310327	None	2802.811627	2804.315605	None	None	0.270377048	0.453174773													103	1	18	1	2019_Dec_05_0924	Test	3.2.4	59.83964746		Pictures/IA50_G10.bmp	Pictures/IA50_G10.bmp	Pictures/IA50.bmp	"Go with the safe option here!"""""	0	safe					4	0	4	0	0	10	10	8																															2804.332301	None	2806.3543	2807.874969	2807.858273	None	2809.395645	None	1	2811.384232	None	2811.384232	None	2811.384232	None	2811.818708	None	2811.818708	2812.821346	2813.957679	None	2813.957679	None	right	2813.957679	None	None	None	2814.342021	2815.946248	0.315275802	0.349816106													103	1	18	1	2019_Dec_05_0924	Test	3.2.4	59.83964746		Pictures/IA80_40_G95p.bmp	Pictures/IA80_40_G95p.bmp	Pictures/IA80.bmp	"Think of the payoff"	1	risk					4	0	4	0	0	11	11	6																															2815.962948	None	2817.984944	2819.505615	2819.488921	None	2821.009581	None	1	2823.014867	None	2823.014867	None	2823.014867	None	2823.415924	None	2823.415924	2824.418561	2825.554895	None	2825.554895	None	left	2825.554895	None	2825.98938	2827.560172	None	None	0.268647684	0.384606922													103	1	18	1	2019_Dec_05_0924	Test	3.2.4	59.83964746		Pictures/IA50_G40.bmp	Pictures/IA50_G40.bmp	Pictures/IA50.bmp	"It would probably be best to play it safe."""""	0	safe					4	0	4	0	0	12	12	9																															2827.576894	None	2829.598891	2831.119564	2831.102845	None	2832.656952	None	1	2834.628816	None	2834.628816	None	2834.628816	None	2835.263821	None	2835.263821	2836.266531	2837.36937	None	2837.36937	None	left	2837.36937	None	2838.255034	2839.357927	None	None	0.478693444	0.842142798													103	1	18	1	2019_Dec_05_0924	Test	3.2.4	59.83964746		Pictures/IA20_10_L95p.bmp	Pictures/IA20_10_L95p.bmp	Pictures/IA20.bmp	"Don't be tempted to gamble."""""	0	safe					4	0	4	0	0	13	13	7																															2839.374649	None	2841.396651	2842.917319	2842.900603	None	2844.404576	None	1	2846.426557	None	2846.426557	None	2846.426557	None	2846.91118	None	2846.91118	2847.913816	2849.033439	None	2849.033439	None	right	2849.033439	None	None	None	2849.9358	2851.022006	0.352953441	0.866061847													103	1	18	1	2019_Dec_05_0924	Test	3.2.4	59.83964746		Pictures/IA75_G45.bmp	Pictures/IA75_G45.bmp	Pictures/IA75.bmp	"Don't gamble for this one."""""	0	safe					4	0	4	0	0	14	14	10																															2851.038705	None	2853.060702	2854.564675	2854.54796	None	2856.102051	None	1	2858.09064	None	2858.09064	None	2858.09064	None	2858.491683	None	2858.491683	2859.494321	2860.61394	None	2860.61394	None	left	2860.61394	None	2861.91739	None	None	None	0.288882981	1.25355861													103	1	18	1	2019_Dec_05_0924	Test	3.2.4	59.83964746		Pictures/IA25_L15.bmp	Pictures/IA25_L15.bmp	Pictures/IA25.bmp	"There's not much on the line here"	1	risk					4	0	4	0	0	15	15	2																															2862.635945	None	2864.657938	2866.161891	2866.145217	None	2867.682576	None	1	2869.687861	None	2869.687861	None	2869.687861	None	2870.105621	None	2870.105621	2871.108253	2872.211167	None	2872.211167	None	left	2872.211167	None	2873.514612	None	None	None	0.259649281	1.256323352													103	1	18	1	2019_Dec_05_0924	Test	3.2.4	59.83964746		Pictures/IA50_L20.bmp	Pictures/IA50_L20.bmp	Pictures/IA50.bmp	"Certainty is boring"	1	risk					4	0	4	0	0	16	16	19																															2874.233168	None	2876.255163	2877.775836	2877.759121	None	2879.296512	None	1	2881.285075	None	2881.285075	None	2881.285075	None	2881.40205	None	2881.40205	2882.404687	2883.507608	None	2883.507608	None	right	2883.507608	None	None	None	2884.393263	2885.496178	0.014438319	0.847886147													103	1	18	1	2019_Dec_05_0924	Test	3.2.4	59.83964746		Pictures/IA50_L30.bmp	Pictures/IA50_L30.bmp	Pictures/IA50.bmp	"Take a leap"	1	risk					4	0	4	0	0	17	17	1																															2885.512877	None	2887.534874	2889.055546	2889.038852	None	2890.55951	None	1	2892.564798	None	2892.564798	None	2892.564798	None	2892.899023	None	2892.899023	2893.901658	2895.004571	None	2895.004571	None	left	2895.004571	None	2895.823392	2897.00985	None	None	0.190712589	0.774931013													103	1	18	1	2019_Dec_05_0924	Test	3.2.4	59.83964746		Pictures/IA40_20_G95p.bmp	Pictures/IA40_20_G95p.bmp	Pictures/IA40.bmp	"Hold back"	0	safe					4	0	4	0	0	18	18	18																															2897.02655	None	2899.048546	2900.569218	2900.552524	None	2902.089894	None	1	2904.078481	None	2904.078481	None	2904.078481	None	2904.479524	None	2904.479524	2905.482164	2906.585073	None	2906.585073	None	left	2906.585073	None	2907.103104	2908.573641	None	None	0.261024505	0.482426465													103	1	18	1	2019_Dec_05_0924	Test	3.2.4	59.83964746		Pictures/IA75_L45.bmp	Pictures/IA75_L45.bmp	Pictures/IA75.bmp	"Don't gamble for this one"	0	safe					4	0	4	0	0	19	19	3																															2908.590365	None	2910.612361	2912.133033	2912.116318	None	2913.670424	None	1	2915.642291	None	2915.642291	None	2915.642291	None	2916.076751	None	2916.076751	2917.079388	2918.19901	None	2918.19901	None	left	2918.19901	None	2918.984412	2920.187597	None	None	0.297222255	0.748490455													103	1	18	1	2019_Dec_05_0924	Test	3.2.4	59.83964746												4	0	4	0																																																																									2920.354704	None	return	12.23278399	2920.354704	None	103	1	18	1	2019_Dec_05_0924	Test	3.2.4	59.83964746		Pictures/IA20_10_L95p.bmp	Pictures/IA20_10_L95p.bmp	Pictures/IA20.bmp	"Don't be tempted to gamble."""""	0	safe					5	0	5	0	0	0	0	6													2932.754041	None	2932.754041	None	2932.754041	None	left	1.009468114	2932.754041	None	2932.754041	None	2932.754041	None	return	1.505336996	2932.754041	None	2934.308141	None	2936.330134	2937.850799	2937.834081	None	2939.354754	None	1	2941.343347	None	2941.343347	None	2941.343347	None	2941.827949	None	2941.827949	2942.830588	2943.933503	None	2943.933503	None	right	2943.933503	None	None	None	2944.284419	2945.922056	0.372162318	0.310001449													103	1	18	1	2019_Dec_05_0924	Test	3.2.4	59.83964746		Pictures/IA75_G30.bmp	Pictures/IA75_G30.bmp	Pictures/IA75.bmp	"Be bold"	1	risk					5	0	5	0	0	1	1	17																															2945.938779	None	2947.960774	2949.48145	2949.46473	None	2951.002121	None	1	2952.990684	None	2952.990684	None	2952.990684	None	2953.458595	None	2953.458595	2954.461233	2955.597566	None	2955.597566	None	right	2955.597566	None	None	None	2956.466506	2957.602838	0.364819952	0.821939023													103	1	18	1	2019_Dec_05_0924	Test	3.2.4	59.83964746		Pictures/IA50_G20.bmp	Pictures/IA50_G20.bmp	Pictures/IA50.bmp	"Let's venture and take a risk!"""""	1	risk					5	0	5	0	0	2	2	15																															2957.619555	None	2959.641559	2961.162226	2961.145519	None	2962.682898	None	1	2964.671463	None	2964.671463	None	2964.671463	None	2965.156093	None	2965.156093	2966.158717	2967.261635	None	2967.261635	None	right	2967.261635	None	None	None	2967.930046	2969.2669	0.36404602	0.629866513													103	1	18	1	2019_Dec_05_0924	Test	3.2.4	59.83964746		Pictures/IA40_20_G95p.bmp	Pictures/IA40_20_G95p.bmp	Pictures/IA40.bmp	"Hold back"	0	safe					5	0	5	0	0	3	3	16																															2969.283623	None	2971.305624	2972.826291	2972.809573	None	2974.346966	None	1	2976.335527	None	2976.335527	None	2976.335527	None	2976.686458	None	2976.686458	2977.689091	2978.792005	None	2978.792005	None	left	2978.792005	None	2979.25991	2980.797261	None	None	0.203981711	0.427507618													103	1	18	1	2019_Dec_05_0924	Test	3.2.4	59.83964746		Pictures/IA25_G5.bmp	Pictures/IA25_G5.bmp	Pictures/IA25.bmp	"Let's stay with the certain option."""""	0	safe					5	0	5	0	0	4	4	5																															2980.813963	None	2982.83599	2984.356666	2984.339967	None	2985.843918	None	1	2987.865928	None	2987.865928	None	2987.865928	None	2988.350521	None	2988.350521	2989.353162	2990.456085	None	2990.456085	None	right	2990.456085	None	None	None	2991.776227	None	0.353570639	1.275418443													103	1	18	1	2019_Dec_05_0924	Test	3.2.4	59.83964746		Pictures/IA100_L80.bmp	Pictures/IA100_L80.bmp	Pictures/IA100.bmp	"Go all in!"""""	1	risk					5	0	5	0	0	5	5	19																															2992.461352	None	2994.483355	2996.00402	2995.987331	None	2997.491279	None	1	2999.513287	None	2999.513287	None	2999.513287	None	3000.047976	None	3000.047976	3001.050647	3002.153573	None	3002.153573	None	left	3002.153573	None	3002.621469	3004.158861	None	None	0.466220876	0.433924891													103	1	18	1	2019_Dec_05_0924	Test	3.2.4	59.83964746		Pictures/IA75_L60.bmp	Pictures/IA75_L60.bmp	Pictures/IA75.bmp	"Why not take the gamble?"""""	1	risk					5	0	5	0	0	6	6	14																															3004.175551	None	3006.197546	3007.718217	3007.701523	None	3009.238856	None	1	3011.227481	None	3011.227481	None	3011.227481	None	3011.628526	None	3011.628526	3012.631161	3013.734075	None	3013.734075	None	left	3013.734075	None	3014.068297	3015.739365	None	None	0.296024358	0.293423503													103	1	18	1	2019_Dec_05_0924	Test	3.2.4	59.83964746		Pictures/IA75_G45.bmp	Pictures/IA75_G45.bmp	Pictures/IA75.bmp	"Don't gamble for this one."""""	0	safe					5	0	5	0	0	7	7	7																															3015.756065	None	3017.778061	3019.298738	3019.282037	None	3020.785993	None	1	3022.807995	None	3022.807995	None	3022.807995	None	3023.326029	None	3023.326029	3024.328663	3025.431574	None	3025.431574	None	right	3025.431574	None	None	None	3026.818558	None	0.403517902	1.339930254													103	1	18	1	2019_Dec_05_0924	Test	3.2.4	59.83964746		Pictures/IA25_G10.bmp	Pictures/IA25_G10.bmp	Pictures/IA25.bmp	"What's life without a little risk?"""""	1	risk					5	0	5	0	0	8	8	0																															3027.436843	None	3029.458839	3030.979513	3030.962815	None	3032.483473	None	1	3034.488762	None	3034.488762	None	3034.488762	None	3035.056924	None	3035.056924	3036.059561	3037.162473	None	3037.162473	None	right	3037.162473	None	None	None	3037.764068	3039.167767	0.442762139	0.553024134													103	1	18	1	2019_Dec_05_0924	Test	3.2.4	59.83964746		Pictures/IA25_G15.bmp	Pictures/IA25_G15.bmp	Pictures/IA25.bmp	"I think you should take a gamble."""""	1	risk					5	0	5	0	0	9	9	1																															3039.184464	None	3041.206463	3042.727131	3042.710441	None	3044.247807	None	1	3046.236394	None	3046.236394	None	3046.236394	None	3046.704293	None	3046.704293	3047.706929	3048.809841	None	3048.809841	None	left	3048.809841	None	3049.929454	None	None	None	0.335122198	1.081659603													103	1	18	1	2019_Dec_05_0924	Test	3.2.4	59.83964746		Pictures/IA100_L40.bmp	Pictures/IA100_L40.bmp	Pictures/IA100.bmp	"Think of the payoff"	1	risk					5	0	5	0	0	10	10	2																															3050.81507	None	3052.837104	3054.357781	3054.341084	None	3055.878458	None	1	3057.86704	None	3057.86704	None	3057.86704	None	3058.334927	None	3058.334927	3059.337563	3060.440476	None	3060.440476	None	right	3060.440476	None	None	None	3061.242598	3062.445766	0.360473063	0.755028977													103	1	18	1	2019_Dec_05_0924	Test	3.2.4	59.83964746		Pictures/IA25_G20.bmp	Pictures/IA25_G20.bmp	Pictures/IA25.bmp	"I wouldn't gamble for this one. """""	0	safe					5	0	5	0	0	11	11	8																															3062.462466	None	3064.484462	3065.988436	3065.971715	None	3067.525809	None	1	3069.514396	None	3069.514396	None	3069.514396	None	3070.19952	None	3070.19952	3071.20216	3072.305072	None	3072.305072	None	left	3072.305072	None	3072.739557	3074.310313	None	None	0.56111277	0.394440766													103	1	18	1	2019_Dec_05_0924	Test	3.2.4	59.83964746		Pictures/IA110_55_G95p.bmp	Pictures/IA110_55_G95p.bmp	Pictures/IA110.bmp	"Take a chance!"""""	1	risk					5	0	5	0	0	12	12	18																															3074.327073	None	3076.349071	3077.869745	3077.853022	None	3079.390418	None	1	3081.378979	None	3081.378979	None	3081.378979	None	3081.780037	None	3081.780037	3082.782672	3083.885585	None	3083.885585	None	left	3083.885585	None	3084.470458	3085.874163	None	None	0.312531403	0.549915343													103	1	18	1	2019_Dec_05_0924	Test	3.2.4	59.83964746		Pictures/IA75_G15.bmp	Pictures/IA75_G15.bmp	Pictures/IA75.bmp	"Take a chance!"""""	1	risk					5	0	5	0	0	13	13	13																															3085.890878	None	3087.912872	3089.433544	3089.416826	None	3090.954219	None	1	3092.942784	None	3092.942784	None	3092.942784	None	3093.494249	None	3093.494249	3094.496886	3095.599795	None	3095.599795	None	right	3095.599795	None	None	None	3096.151255	3097.588355	0.492725739	0.515703466													103	1	18	1	2019_Dec_05_0924	Test	3.2.4	59.83964746		Pictures/IA50_L10.bmp	Pictures/IA50_L10.bmp	Pictures/IA50.bmp	"Play it safe"	0	safe					5	0	5	0	0	14	14	3																															3097.605076	None	3099.627075	3101.147752	3101.131024	None	3102.685131	None	1	3104.656995	None	3104.656995	None	3104.656995	None	3105.024646	None	3105.024646	3106.027266	3107.130178	None	3107.130178	None	right	3107.130178	None	None	None	3108.233067	None	0.242525531	1.057327904													103	1	18	1	2019_Dec_05_0924	Test	3.2.4	59.83964746		Pictures/IA100_G60.bmp	Pictures/IA100_G60.bmp	Pictures/IA100.bmp	"Be cautious"	0	safe					5	0	5	0	0	15	15	12																															3109.152161	None	3111.17415	3112.694824	3112.678128	None	3114.215504	None	1	3116.204087	None	3116.204087	None	3116.204087	None	3116.571723	None	3116.571723	3117.574359	3118.67727	None	3118.67727	None	None	3118.67727	None	None	None	None	None	0.247422245														103	1	18	1	2019_Dec_05_0924	Test	3.2.4	59.83964746		Pictures/IA100_L60.bmp	Pictures/IA100_L60.bmp	Pictures/IA100.bmp	"You'd have a lot to lose"	0	safe					5	0	5	0	0	16	16	9																															3120.68255	None	3122.704546	3124.225217	3124.208499	None	3125.745895	None	1	3127.734457	None	3127.734457	None	3127.734457	None	3128.05197	None	3128.05197	3129.054606	3130.157521	None	3130.157521	None	left	3130.157521	None	3130.307913	3132.16281	None	None	0.197050759	0.101974219													103	1	18	1	2019_Dec_05_0924	Test	3.2.4	59.83964746		Pictures/IA50_L40.bmp	Pictures/IA50_L40.bmp	Pictures/IA50.bmp	"That gamble doesn't sound too good"	0	safe					5	0	5	0	0	17	17	10																															3132.179498	None	3134.201494	3135.722165	3135.705474	None	3137.226132	None	1	3139.231425	None	3139.231425	None	3139.231425	None	3139.632484	None	3139.632484	3140.635151	3141.738034	None	3141.738034	None	left	3141.738034	None	3142.088954	3143.726592	None	None	0.260121021	0.31346644													103	1	18	1	2019_Dec_05_0924	Test	3.2.4	59.83964746		Pictures/IA25_L15.bmp	Pictures/IA25_L15.bmp	Pictures/IA25.bmp	"There's not much on the line here"	1	risk					5	0	5	0	0	18	18	11																															3143.743313	None	3145.76531	3147.285979	3147.269261	None	3148.773233	None	1	3150.79518	None	3150.79518	None	3150.79518	None	3151.229698	None	3151.229698	3152.232332	3153.368667	None	3153.368667	None	right	3153.368667	None	None	None	3153.803153	3155.373945	0.280325728	0.386837675													103	1	18	1	2019_Dec_05_0924	Test	3.2.4	59.83964746		Pictures/IA40_20_L95p.bmp	Pictures/IA40_20_L95p.bmp	Pictures/IA40.bmp	"Trust me"	1	risk					5	0	5	0	0	19	19	4																															3155.390668	None	3157.412665	3158.933338	3158.916618	None	3160.454017	None	1	3162.442574	None	3162.442574	None	3162.442574	None	3163.194556	None	3163.194556	3164.197194	3165.333526	None	3165.333526	None	right	3165.333526	None	None	None	3165.951818	3167.322106	0.648935052	0.573977507													103	1	18	1	2019_Dec_05_0924	Test	3.2.4	59.83964746												5	0	5	0																																																																									3167.489206	None	return	7.338290185	3167.489206	None	103	1	18	1	2019_Dec_05_0924	Test	3.2.4	59.83964746		Pictures/IA75_G15.bmp	Pictures/IA75_G15.bmp	Pictures/IA75.bmp	"Take a chance!"""""	1	risk					6	0	6	0	0	0	0	13													3174.99232	None	3174.99232	None	3174.99232	None	right	36.78719598	3174.99232	None	3174.99232	None	3174.99232	None	return	37.51497722	3174.99232	None	3212.557967	None	3214.563238	3216.08391	3216.067215	None	3217.587886	None	1	3219.576452	None	3219.576452	None	3219.576452	None	3220.06107	None	3220.06107	3221.06371	3222.200043	None	3222.200043	None	right	3222.200043	None	None	None	3223.770836	None	0.387060146	1.531458642													103	1	18	1	2019_Dec_05_0924	Test	3.2.4	59.83964746		Pictures/IA50_G30.bmp	Pictures/IA50_G30.bmp	Pictures/IA50.bmp	"I think you should gamble."""""	1	risk					6	0	6	0	0	1	1	15																															3224.222021	None	3226.244021	3227.764686	3227.747998	None	3229.302076	None	1	3231.273941	None	3231.273941	None	3231.273941	None	3231.608172	None	3231.608172	3232.610805	3233.713717	None	3233.713717	None	right	3233.713717	None	None	None	3234.682921	3235.718993	0.233563589	0.929784054													103	1	18	1	2019_Dec_05_0924	Test	3.2.4	59.83964746		Pictures/IA40_20_G95p.bmp	Pictures/IA40_20_G95p.bmp	Pictures/IA40.bmp	"Hold back"	0	safe					6	0	6	0	0	2	2	7																															3235.73569	None	3237.757688	3239.278359	3239.261663	None	3240.782331	None	1	3242.787609	None	3242.787609	None	3242.787609	None	3243.205376	None	3243.205376	3244.208013	3245.310925	None	3245.310925	None	left	3245.310925	None	3245.67857	3247.316206	None	None	0.279900473	0.332568701													103	1	18	1	2019_Dec_05_0924	Test	3.2.4	59.83964746		Pictures/IA50_L10.bmp	Pictures/IA50_L10.bmp	Pictures/IA50.bmp	"Play it safe"	0	safe					6	0	6	0	0	3	3	0																															3247.332929	None	3249.354923	3250.875595	3250.858876	None	3252.36285	None	1	3254.384834	None	3254.384834	None	3254.384834	None	3254.769191	None	3254.769191	3255.771827	3256.87474	None	3256.87474	None	right	3256.87474	None	None	None	3257.192239	3258.863306	0.258681014	0.272774753													103	1	18	1	2019_Dec_05_0924	Test	3.2.4	59.83964746		Pictures/IA25_G5.bmp	Pictures/IA25_G5.bmp	Pictures/IA25.bmp	"Let's stay with the certain option."""""	0	safe					6	0	6	0	0	4	4	18																															3258.880009	None	3260.902003	3262.422676	3262.405979	None	3263.94335	None	1	3265.931939	None	3265.931939	None	3265.931939	None	3266.366404	None	3266.366404	3267.36904	3268.471953	None	3268.471953	None	right	3268.471953	None	None	None	3269.123665	3270.460521	0.287571747	0.611549276													103	1	18	1	2019_Dec_05_0924	Test	3.2.4	59.83964746		Pictures/IA75_G30.bmp	Pictures/IA75_G30.bmp	Pictures/IA75.bmp	"Be bold"	1	risk					6	0	6	0	0	5	5	14																															3270.477243	None	3272.499246	3274.019915	3274.003198	None	3275.540588	None	1	3277.529149	None	3277.529149	None	3277.529149	None	3278.030487	None	3278.030487	3279.033123	3280.136044	None	3280.136044	None	right	3280.136044	None	None	None	3280.92143	3282.1246	0.386354103	0.739457723													103	1	18	1	2019_Dec_05_0924	Test	3.2.4	59.83964746		Pictures/IA100_G80.bmp	Pictures/IA100_G80.bmp	Pictures/IA100.bmp	"Why not gamble?"""""	1	risk					6	0	6	0	0	6	6	10																															3282.141309	None	3284.163311	3285.683981	3285.667258	None	3287.187948	None	1	3289.193232	None	3289.193232	None	3289.193232	None	3289.560858	None	3289.560858	3290.563503	3291.666411	None	3291.666411	None	left	3291.666411	None	3292.819446	None	None	None	0.258282043	1.105093854													103	1	18	1	2019_Dec_05_0924	Test	3.2.4	59.83964746		Pictures/IA20_10_G95p.bmp	Pictures/IA20_10_G95p.bmp	Pictures/IA20.bmp	"Take a leap"	1	risk					6	0	6	0	0	7	7	12																															3293.671691	None	3295.693688	3297.214359	3297.197641	None	3298.768456	None	1	3300.723597	None	3300.723597	None	3300.723597	None	3301.141378	None	3301.141378	3302.144013	3303.246912	None	3303.246912	None	left	3303.246912	None	3304.232839	None	None	None	0.279905309	0.948583557													103	1	18	1	2019_Dec_05_0924	Test	3.2.4	59.83964746		Pictures/IA110_55_L95p.bmp	Pictures/IA110_55_L95p.bmp	Pictures/IA110.bmp	"Trust me"	1	risk					6	0	6	0	0	8	8	19																															3305.252203	None	3307.274201	3308.794871	3308.778152	None	3310.298836	None	1	3312.304123	None	3312.304123	None	3312.304123	None	3312.671749	None	3312.671749	3313.674382	3314.827426	None	3314.827426	None	right	3314.827426	None	None	None	3315.128226	3316.815995	0.259392892	0.256080746													103	1	18	1	2019_Dec_05_0924	Test	3.2.4	59.83964746		Pictures/IA75_G60.bmp	Pictures/IA75_G60.bmp	Pictures/IA75.bmp	"Make it exciting"	1	risk					6	0	6	0	0	9	9	9																															3316.832717	None	3318.854719	3320.375384	3320.358669	None	3321.896093	None	1	3323.884624	None	3323.884624	None	3323.884624	None	3324.369245	None	3324.369245	3325.371882	3326.474795	None	3326.474795	None	right	3326.474795	None	None	None	3326.859134	3328.463362	0.262896976	0.336713127													103	1	18	1	2019_Dec_05_0924	Test	3.2.4	59.83964746		Pictures/IA25_G10.bmp	Pictures/IA25_G10.bmp	Pictures/IA25.bmp	"What's life without a little risk?"""""	1	risk					6	0	6	0	0	10	10	1																															3328.480062	None	3330.50206	3332.022732	3332.006035	None	3333.543406	None	1	3335.531996	None	3335.531996	None	3335.531996	None	3335.899625	None	3335.899625	3336.902267	3338.005174	None	3338.005174	None	right	3338.005174	None	None	None	3338.940958	3340.01044	0.247513236	0.902336525													103	1	18	1	2019_Dec_05_0924	Test	3.2.4	59.83964746		Pictures/IA75_L45.bmp	Pictures/IA75_L45.bmp	Pictures/IA75.bmp	"Don't gamble for this one"	0	safe					6	0	6	0	0	11	11	11																															3340.027161	None	3342.04916	3343.569836	3343.553117	None	3345.09051	None	1	3347.07907	None	3347.07907	None	3347.07907	None	3347.563678	None	3347.563678	3348.566317	3349.669228	None	3349.669228	None	left	3349.669228	None	3350.421207	3351.657798	None	None	0.348439283	0.702277108													103	1	18	1	2019_Dec_05_0924	Test	3.2.4	59.83964746		Pictures/IA80_40_G95p.bmp	Pictures/IA80_40_G95p.bmp	Pictures/IA80.bmp	"Think of the payoff"	1	risk					6	0	6	0	0	12	12	17																															3351.674519	None	3353.696514	3355.217186	3355.200468	None	3356.737869	None	1	3358.726426	None	3358.726426	None	3358.726426	None	3359.094062	None	3359.094062	3360.096696	3361.21632	None	3361.21632	None	left	3361.21632	None	3361.466977	3363.204887	None	None	0.237085677	0.203183284													103	1	18	1	2019_Dec_05_0924	Test	3.2.4	59.83964746		Pictures/IA100_L20.bmp	Pictures/IA100_L20.bmp	Pictures/IA100.bmp	"Try to win as much money as you can"	1	risk					6	0	6	0	0	13	13	16																															3363.221612	None	3365.243606	3366.764284	3366.747561	None	3368.318375	None	1	3370.273517	None	3370.273517	None	3370.273517	None	3370.741416	None	3370.741416	3371.744054	3372.846963	None	3372.846963	None	right	3372.846963	None	None	None	3373.214607	3374.852242	0.305994926	0.332530908													103	1	18	1	2019_Dec_05_0924	Test	3.2.4	59.83964746		Pictures/IA25_L10.bmp	Pictures/IA25_L10.bmp	Pictures/IA25.bmp	"Dont be afraid to take the risk!"""""	1	risk					6	0	6	0	0	14	14	3																															3374.868967	None	3376.890961	3378.411634	3378.394914	None	3379.932311	None	1	3381.920874	None	3381.920874	None	3381.920874	None	3382.305229	None	3382.305229	3383.307867	3384.410778	None	3384.410778	None	right	3384.410778	None	None	None	3384.761702	3386.399334	0.25863694	0.312721923													103	1	18	1	2019_Dec_05_0924	Test	3.2.4	59.83964746		Pictures/IA75_G45.bmp	Pictures/IA75_G45.bmp	Pictures/IA75.bmp	"Don't gamble for this one."""""	0	safe					6	0	6	0	0	15	15	6																															3386.416058	None	3388.438054	3389.958725	3389.942007	None	3391.462691	None	1	3393.467977	None	3393.467977	None	3393.467977	None	3394.336919	None	3394.336919	3395.339555	3396.442468	None	3396.442468	None	left	3396.442468	None	3397.595517	None	None	None	0.767531367	1.105035202													103	1	18	1	2019_Dec_05_0924	Test	3.2.4	59.83964746		Pictures/IA25_G20.bmp	Pictures/IA25_G20.bmp	Pictures/IA25.bmp	"I wouldn't gamble for this one. """""	0	safe					6	0	6	0	0	16	16	5																															3398.447747	None	3400.469743	3401.990416	3401.973723	None	3403.511092	None	1	3405.499674	None	3405.499674	None	3405.499674	None	3405.934159	None	3405.934159	3406.936791	3408.039703	None	3408.039703	None	left	3408.039703	None	3408.407322	3410.028271	None	None	0.303845077	0.323797892													103	1	18	1	2019_Dec_05_0924	Test	3.2.4	59.83964746		Pictures/IA40_20_L95p.bmp	Pictures/IA40_20_L95p.bmp	Pictures/IA40.bmp	"Trust me"	1	risk					6	0	6	0	0	17	17	8																															3410.04497	None	3412.06697	3413.587641	3413.570945	None	3415.091607	None	1	3417.096887	None	3417.096887	None	3417.096887	None	3417.497956	None	3417.497956	3418.500594	3419.603505	None	3419.603505	None	right	3419.603505	None	None	None	3420.238495	3421.592071	0.290620561	0.599994054													103	1	18	1	2019_Dec_05_0924	Test	3.2.4	59.83964746		Pictures/IA20_10_L95p.bmp	Pictures/IA20_10_L95p.bmp	Pictures/IA20.bmp	"Don't be tempted to gamble."""""	0	safe					6	0	6	0	0	18	18	2																															3421.608771	None	3423.630771	3425.151444	3425.134802	None	3426.672115	None	1	3428.660703	None	3428.660703	None	3428.660703	None	3429.078457	None	3429.078457	3430.081092	3431.184005	None	3431.184005	None	right	3431.184005	None	None	None	3431.501508	3433.172576	0.286809152	0.275500368													103	1	18	1	2019_Dec_05_0924	Test	3.2.4	59.83964746		Pictures/IA75_L60.bmp	Pictures/IA75_L60.bmp	Pictures/IA75.bmp	"Why not take the gamble?"""""	1	risk					6	0	6	0	0	19	19	4																															3433.189295	None	3435.211292	3436.731964	3436.715245	None	3438.235929	None	1	3440.241215	None	3440.241215	None	3440.241215	None	3440.625547	None	3440.625547	3441.628187	3442.731096	None	3442.731096	None	left	3442.731096	None	3443.516496	3444.719664	None	None	0.266293173	0.736407419													103	1	18	1	2019_Dec_05_0924	Test	3.2.4	59.83964746												6	0	6	0																																																																									3444.886788	None	return	4.972703539	3444.886788	None	103	1	18	1	2019_Dec_05_0924	Test	3.2.4	59.83964746		Pictures/IA110_55_G95p.bmp	Pictures/IA110_55_G95p.bmp	Pictures/IA110.bmp	"Take a chance!"""""	1	risk					7	0	7	0	0	0	0	11													3450.016959	None	3450.016959	None	3450.016959	None	left	0.85053861	3450.016959	None	3450.016959	None	3450.016959	None	return	1.378320211	3450.016959	None	3451.454076	None	3453.459376	3454.980044	3454.963327	None	3456.483997	None	1	3458.472584	None	3458.472584	None	3458.472584	None	3458.823501	None	3458.823501	3459.826133	3460.929047	None	3460.929047	None	left	3460.929047	None	3461.547336	3462.917627	None	None	0.250926726	0.578464079													103	1	18	1	2019_Dec_05_0924	Test	3.2.4	59.83964746		Pictures/IA50_L40.bmp	Pictures/IA50_L40.bmp	Pictures/IA50.bmp	"That gamble doesn't sound too good"	0	safe					7	0	7	0	0	1	1	10																															3462.934325	None	3464.956319	3466.476989	3466.460295	None	3467.980957	None	1	3469.986247	None	3469.986247	None	3469.986247	None	3471.089147	None	3471.089147	3472.09179	3473.21141	None	3473.21141	None	left	3473.21141	None	3473.562335	3475.199987	None	None	0.945267482	0.304092367													103	1	18	1	2019_Dec_05_0924	Test	3.2.4	59.83964746		Pictures/IA40_20_G95p.bmp	Pictures/IA40_20_G95p.bmp	Pictures/IA40.bmp	"Hold back"	0	safe					7	0	7	0	0	2	2	1																															3475.216684	None	3477.238683	3478.759351	3478.742658	None	3480.263317	None	1	3482.268604	None	3482.268604	None	3482.268604	None	3482.736505	None	3482.736505	3483.73914	3484.858761	None	3484.858761	None	left	3484.858761	None	3485.20968	3486.847342	None	None	0.334908089	0.312748429													103	1	18	1	2019_Dec_05_0924	Test	3.2.4	59.83964746		Pictures/IA25_G5.bmp	Pictures/IA25_G5.bmp	Pictures/IA25.bmp	"Let's stay with the certain option."""""	0	safe					7	0	7	0	0	3	3	15																															3486.864039	None	3488.886036	3490.406712	3490.390012	None	3491.893966	None	1	3493.915978	None	3493.915978	None	3493.915978	None	3494.417289	None	3494.417289	3495.419927	3496.522838	None	3496.522838	None	right	3496.522838	None	None	None	3497.074287	3498.511393	0.375542067	0.512662237													103	1	18	1	2019_Dec_05_0924	Test	3.2.4	59.83964746		Pictures/IA100_G80.bmp	Pictures/IA100_G80.bmp	Pictures/IA100.bmp	"Why not gamble?"""""	1	risk					7	0	7	0	0	4	4	7																															3498.528121	None	3500.550113	3502.070784	3502.054066	None	3503.55804	None	1	3505.580023	None	3505.580023	None	3505.580023	None	3505.947671	None	3505.947671	3506.950307	3508.069928	None	3508.069928	None	right	3508.069928	None	None	None	3509.39007	None	0.263488202	1.277579133													103	1	18	1	2019_Dec_05_0924	Test	3.2.4	59.83964746		Pictures/IA50_G40.bmp	Pictures/IA50_G40.bmp	Pictures/IA50.bmp	"It would probably be best to play it safe."""""	0	safe					7	0	7	0	0	5	5	16																															3510.075195	None	3512.097193	3513.617865	3513.601168	None	3515.138551	None	1	3517.127127	None	3517.127127	None	3517.127127	None	3517.594979	None	3517.594979	3518.597649	3519.700562	None	3519.700562	None	left	3519.700562	None	3521.204534	None	None	None	0.332381996	1.454958959													103	1	18	1	2019_Dec_05_0924	Test	3.2.4	59.83964746		Pictures/IA25_L15.bmp	Pictures/IA25_L15.bmp	Pictures/IA25.bmp	"There's not much on the line here"	1	risk					7	0	7	0	0	6	6	5																															3521.722563	None	3523.744558	3525.265231	3525.248515	None	3526.769196	None	1	3528.774482	None	3528.774482	None	3528.774482	None	3529.476317	None	3529.476317	3530.478954	3531.581867	None	3531.581867	None	left	3531.581867	None	3532.869673	None	None	None	0.557030034	1.253633991													103	1	18	1	2019_Dec_05_0924	Test	3.2.4	59.83964746		Pictures/IA25_L10.bmp	Pictures/IA25_L10.bmp	Pictures/IA25.bmp	"Dont be afraid to take the risk!"""""	1	risk					7	0	7	0	0	7	7	17																															3533.603863	None	3535.625851	3537.146534	3537.129827	None	3538.6672	None	1	3540.655787	None	3540.655787	None	3540.655787	None	3541.04013	None	3541.04013	3542.042767	3543.14569	None	3543.14569	None	right	3543.14569	None	None	None	3543.596866	3545.134253	0.28371463	0.417803927													103	1	18	1	2019_Dec_05_0924	Test	3.2.4	59.83964746		Pictures/IA20_10_G95p.bmp	Pictures/IA20_10_G95p.bmp	Pictures/IA20.bmp	"Take a leap"	1	risk					7	0	7	0	0	8	8	4																															3545.150947	None	3547.172946	3548.693613	3548.676923	None	3550.19758	None	1	3552.202864	None	3552.202864	None	3552.202864	None	3552.704196	None	3552.704196	3553.706833	3554.809745	None	3554.809745	None	left	3554.809745	None	3555.695408	3556.815027	None	None	0.352649589	0.841773346													103	1	18	1	2019_Dec_05_0924	Test	3.2.4	59.83964746		Pictures/IA100_G60.bmp	Pictures/IA100_G60.bmp	Pictures/IA100.bmp	"Be cautious"	0	safe					7	0	7	0	0	9	9	14																															3556.831723	None	3558.853723	3560.374391	3560.357699	None	3561.895065	None	1	3563.883652	None	3563.883652	None	3563.883652	None	3564.41841	None	3564.41841	3565.421023	3566.523931	None	3566.523931	None	left	3566.523931	None	3567.877494	None	None	None	0.399851349	1.303575531													103	1	18	1	2019_Dec_05_0924	Test	3.2.4	59.83964746		Pictures/IA80_40_L95p.bmp	Pictures/IA80_40_L95p.bmp	Pictures/IA80.bmp	"Let's stay with the certain option."""""	0	safe					7	0	7	0	0	10	10	6																															3568.529211	None	3570.551205	3572.071877	3572.055183	None	3573.609266	None	1	3575.581127	None	3575.581127	None	3575.581127	None	3575.982184	None	3575.982184	3576.984821	3578.087732	None	3578.087732	None	right	3578.087732	None	None	None	3578.388534	3580.09301	0.278391015	0.259765959													103	1	18	1	2019_Dec_05_0924	Test	3.2.4	59.83964746		Pictures/IA75_G60.bmp	Pictures/IA75_G60.bmp	Pictures/IA75.bmp	"Make it exciting"	1	risk					7	0	7	0	0	11	11	3																															3580.109735	None	3582.13173	3583.652406	3583.635683	None	3585.139667	None	1	3587.161642	None	3587.161642	None	3587.161642	None	3587.830068	None	3587.830068	3588.832704	3589.935616	None	3589.935616	None	right	3589.935616	None	None	None	3590.420222	3591.924219	0.537868159	0.435886126													103	1	18	1	2019_Dec_05_0924	Test	3.2.4	59.83964746		Pictures/IA100_G20.bmp	Pictures/IA100_G20.bmp	Pictures/IA100.bmp	"Go ahead and gamble!"""""	1	risk					7	0	7	0	0	12	12	2																															3591.940899	None	3593.96289	3595.483562	3595.466869	None	3597.004243	None	1	3598.99283	None	3598.99283	None	3598.99283	None	3599.661264	None	3599.661264	3600.663922	3601.783463	None	3601.783463	None	right	3601.783463	None	None	None	3602.101029	3603.772074	0.562690691	0.284066283													103	1	18	1	2019_Dec_05_0924	Test	3.2.4	59.83964746		Pictures/IA25_L5.bmp	Pictures/IA25_L5.bmp	Pictures/IA25.bmp	"It would be smarter to choose the safe option."""""	0	safe					7	0	7	0	0	13	13	8																															3603.788978	None	3605.810774	3607.331444	3607.314751	None	3608.83542	None	1	3610.840707	None	3610.840707	None	3610.840707	None	3611.241751	None	3611.241751	3612.244388	3613.380721	None	3613.380721	None	right	3613.380721	None	None	None	3613.781786	3615.386012	0.258802197	0.358790207													103	1	18	1	2019_Dec_05_0924	Test	3.2.4	59.83964746		Pictures/IA25_G10.bmp	Pictures/IA25_G10.bmp	Pictures/IA25.bmp	"What's life without a little risk?"""""	1	risk					7	0	7	0	0	14	14	9																															3615.402711	None	3617.424705	3618.945378	3618.928682	None	3620.432647	None	1	3622.454641	None	3622.454641	None	3622.454641	None	3623.240032	None	3623.240032	3624.242673	3625.345578	None	3625.345578	None	right	3625.345578	None	None	None	3625.84691	3627.350858	0.652877714	0.465932253													103	1	18	1	2019_Dec_05_0924	Test	3.2.4	59.83964746		Pictures/IA100_G40.bmp	Pictures/IA100_G40.bmp	Pictures/IA100.bmp	"Try your luck and gamble!"""""	1	risk					7	0	7	0	0	15	15	0																															3627.36758	None	3629.389577	3630.910247	3630.893529	None	3632.447634	None	1	3634.419499	None	3634.419499	None	3634.419499	None	3634.787123	None	3634.787123	3635.789757	3636.892669	None	3636.892669	None	left	3636.892669	None	3637.728212	3638.897947	None	None	0.264009452	0.790833315													103	1	18	1	2019_Dec_05_0924	Test	3.2.4	59.83964746		Pictures/IA25_L20.bmp	Pictures/IA25_L20.bmp	Pictures/IA25.bmp	"Don't be tempted to gamble."""""	0	safe					7	0	7	0	0	16	16	18																															3638.914673	None	3640.936667	3642.457339	3642.440619	None	3643.961306	None	1	3645.966589	None	3645.966589	None	3645.966589	None	3646.384357	None	3646.384357	3647.386993	3648.489904	None	3648.489904	None	left	3648.489904	None	3648.857523	3650.495182	None	None	0.308957192	0.329595348													103	1	18	1	2019_Dec_05_0924	Test	3.2.4	59.83964746		Pictures/IA110_55_L95p.bmp	Pictures/IA110_55_L95p.bmp	Pictures/IA110.bmp	"Trust me"	1	risk					7	0	7	0	0	17	17	13																															3650.511881	None	3652.533875	3654.054549	3654.037856	None	3655.575225	None	1	3657.563812	None	3657.563812	None	3657.563812	None	3657.898012	None	3657.898012	3658.900653	3660.00356	None	3660.00356	None	right	3660.00356	None	None	None	3660.839103	3662.008839	0.231696877	0.799937572													103	1	18	1	2019_Dec_05_0924	Test	3.2.4	59.83964746		Pictures/IA20_10_L95p.bmp	Pictures/IA20_10_L95p.bmp	Pictures/IA20.bmp	"Don't be tempted to gamble."""""	0	safe					7	0	7	0	0	18	18	12																															3662.025561	None	3664.047561	3665.568228	3665.551521	None	3667.088907	None	1	3669.077468	None	3669.077468	None	3669.077468	None	3669.461811	None	3669.461811	3670.464449	3671.584072	None	3671.584072	None	right	3671.584072	None	None	None	3671.985136	3673.589365	0.278033948	0.355431842													103	1	18	1	2019_Dec_05_0924	Test	3.2.4	59.83964746		Pictures/IA50_L10.bmp	Pictures/IA50_L10.bmp	Pictures/IA50.bmp	"Play it safe"	0	safe					7	0	7	0	0	19	19	19																															3673.606062	None	3675.628057	3677.148741	3677.132041	None	3678.652694	None	1	3680.65798	None	3680.65798	None	3680.65798	None	3681.008903	None	3681.008903	3682.01154	3683.114452	None	3683.114452	None	right	3683.114452	None	None	None	3683.515529	3685.119742	0.249521324	0.353053392													103	1	18	1	2019_Dec_05_0924	Test	3.2.4	59.83964746												7	0	7	0																																																																									3685.286841	None	return	16.26065667	3685.286841	None	103	1	18	1	2019_Dec_05_0924	Test	3.2.4	59.83964746		Pictures/IA40_20_G95p.bmp	Pictures/IA40_20_G95p.bmp	Pictures/IA40.bmp	"Hold back"	0	safe					8	0	8	0	0	0	0	13													3701.713467	None	3701.713467	None	3701.713467	None	left	1.506037051	3701.713467	None	3701.713467	None	3701.713467	None	return	5.841814904	3701.713467	None	3707.612328	None	3709.617627	3711.138304	3711.121575	None	3712.642249	None	2	3714.630838	None	3714.630838	None	3714.630838	None	None	None	None	None	3715.48308	None	3715.48308	None	left	3715.48308	None	3716.469008	None	None	None	0.66867821	0.952424219													103	1	18	1	2019_Dec_05_0924	Test	3.2.4	59.83964746		Pictures/IA75_G30.bmp	Pictures/IA75_G30.bmp	Pictures/IA75.bmp	"Be bold"	1	risk					8	0	8	0	0	1	1	2																															3717.488347	None	3719.510342	3721.031014	3721.014319	None	3722.585124	None	1	3724.540267	None	3724.540267	None	3724.540267	None	3724.90791	None	3724.90791	3725.910548	3727.013457	None	3727.013457	None	right	3727.013457	None	None	None	3727.548187	3729.018725	0.263235256	0.486031777													103	1	18	1	2019_Dec_05_0924	Test	3.2.4	59.83964746		Pictures/IA50_L40.bmp	Pictures/IA50_L40.bmp	Pictures/IA50.bmp	"That gamble doesn't sound too good"	0	safe					8	0	8	0	0	2	2	10																															3729.035448	None	3731.057447	3732.578115	3732.5614	None	3734.065373	None	1	3736.087355	None	3736.087355	None	3736.087355	None	3736.638826	None	3736.638826	3737.641456	3738.744367	None	3738.744367	None	left	3738.744367	None	3739.429504	3740.732921	None	None	0.388157659	0.635138458													103	1	18	1	2019_Dec_05_0924	Test	3.2.4	59.83964746		Pictures/IA75_G45.bmp	Pictures/IA75_G45.bmp	Pictures/IA75.bmp	"Don't gamble for this one."""""	0	safe					8	0	8	0	0	3	3	19																															3740.74965	None	3742.771646	3744.292314	3744.275595	None	3745.812994	None	1	3747.801552	None	3747.801552	None	3747.801552	None	3748.185897	None	3748.185897	3749.188532	3750.291448	None	3750.291448	None	left	3750.291448	None	3751.327518	None	None	None	0.273959514	0.992055754													103	1	18	1	2019_Dec_05_0924	Test	3.2.4	59.83964746		Pictures/IA100_L40.bmp	Pictures/IA100_L40.bmp	Pictures/IA100.bmp	"Think of the payoff"	1	risk					8	0	8	0	0	4	4	14																															3752.313447	None	3754.335444	3755.856117	3755.839398	None	3757.376791	None	1	3759.365356	None	3759.365356	None	3759.365356	None	3759.783132	None	3759.783132	3760.785775	3761.888679	None	3761.888679	None	left	3761.888679	None	3763.576454	None	None	None	0.294167272	1.642825155													103	1	18	1	2019_Dec_05_0924	Test	3.2.4	59.83964746		Pictures/IA20_10_G95p.bmp	Pictures/IA20_10_G95p.bmp	Pictures/IA20.bmp	"Take a leap"	1	risk					8	0	8	0	0	5	5	6																															3763.893959	None	3765.915955	3767.436628	3767.419907	None	3768.957301	None	1	3770.945864	None	3770.945864	None	3770.945864	None	3771.346931	None	3771.346931	3772.349571	3773.452481	None	3773.452481	None	left	3773.452481	None	3773.786677	3775.457745	None	None	0.257644007	0.287034218													103	1	18	1	2019_Dec_05_0924	Test	3.2.4	59.83964746		Pictures/IA100_L60.bmp	Pictures/IA100_L60.bmp	Pictures/IA100.bmp	"You'd have a lot to lose"	0	safe					8	0	8	0	0	6	6	11																															3775.474468	None	3777.496465	3779.017136	3779.000416	None	3780.537816	None	1	3782.526375	None	3782.526375	None	3782.526375	None	3783.027711	None	3783.027711	3784.030343	3785.149968	None	3785.149968	None	left	3785.149968	None	3785.88523	3787.155243	None	None	0.365125509	0.693529643													103	1	18	1	2019_Dec_05_0924	Test	3.2.4	59.83964746		Pictures/IA100_G80.bmp	Pictures/IA100_G80.bmp	Pictures/IA100.bmp	"Why not gamble?"""""	1	risk					8	0	8	0	0	7	7	7																															3787.171954	None	3789.193949	3790.714627	3790.697904	None	3792.235298	None	1	3794.223862	None	3794.223862	None	3794.223862	None	3794.591498	None	3794.591498	3795.745317	3796.697044	None	3796.697044	None	left	3796.697044	None	3797.281913	3798.685705	None	None	0.267653743	0.538458838													103	1	18	1	2019_Dec_05_0924	Test	3.2.4	59.83964746		Pictures/IA25_L5.bmp	Pictures/IA25_L5.bmp	Pictures/IA25.bmp	"It would be smarter to choose the safe option."""""	0	safe					8	0	8	0	0	8	8	15																															3798.70245	None	3800.72433	3802.245002	3802.228286	None	3803.765682	None	1	3805.754256	None	3805.754256	None	3805.754256	None	3806.205442	None	3806.205442	3807.208076	3808.310989	None	3808.310989	None	right	3808.310989	None	None	None	3808.611766	3810.316266	0.297240094	0.25251302													103	1	18	1	2019_Dec_05_0924	Test	3.2.4	59.83964746		Pictures/IA75_L45.bmp	Pictures/IA75_L45.bmp	Pictures/IA75.bmp	"Don't gamble for this one"	0	safe					8	0	8	0	0	9	9	9																															3810.332964	None	3812.354958	3813.875631	3813.858955	None	3815.396307	None	1	3817.384895	None	3817.384895	None	3817.384895	None	3817.86951	None	3817.86951	3818.872141	3820.008474	None	3820.008474	None	left	3820.008474	None	3820.643464	3821.997041	None	None	0.338616347	0.595023869													103	1	18	1	2019_Dec_05_0924	Test	3.2.4	59.83964746		Pictures/IA20_10_L95p.bmp	Pictures/IA20_10_L95p.bmp	Pictures/IA20.bmp	"Don't be tempted to gamble."""""	0	safe					8	0	8	0	0	10	10	17																															3822.013741	None	3824.035748	3825.556408	3825.539717	None	3827.060372	None	1	3829.065658	None	3829.065658	None	3829.065658	None	3829.466713	None	3829.466713	3830.469355	3831.572262	None	3831.572262	None	right	3831.572262	None	None	None	3832.006749	3833.577539	0.27386072	0.391231898													103	1	18	1	2019_Dec_05_0924	Test	3.2.4	59.83964746		Pictures/IA75_L15.bmp	Pictures/IA75_L15.bmp	Pictures/IA75.bmp	"Trust me"	1	risk					8	0	8	0	0	11	11	8																															3833.594263	None	3835.61626	3837.13695	3837.120212	None	3838.640899	None	1	3840.646183	None	3840.646183	None	3840.646183	None	3841.013805	None	3841.013805	3842.01644	3843.203026	None	3843.203026	None	right	3843.203026	None	None	None	3843.570588	3845.191452	0.261326208	0.328466271													103	1	18	1	2019_Dec_05_0924	Test	3.2.4	59.83964746		Pictures/IA25_G5.bmp	Pictures/IA25_G5.bmp	Pictures/IA25.bmp	"Let's stay with the certain option."""""	0	safe					8	0	8	0	0	12	12	16																															3845.208201	None	3847.230194	3848.750866	3848.734145	None	3850.27154	None	1	3852.260102	None	3852.260102	None	3852.260102	None	3852.711294	None	3852.711294	3853.713928	3854.816838	None	3854.816838	None	right	3854.816838	None	None	None	3855.217904	3856.822134	0.303406084	0.354668087													103	1	18	1	2019_Dec_05_0924	Test	3.2.4	59.83964746		Pictures/IA25_G10.bmp	Pictures/IA25_G10.bmp	Pictures/IA25.bmp	"What's life without a little risk?"""""	1	risk					8	0	8	0	0	13	13	3																															3856.838829	None	3858.860825	3860.381494	3860.364801	None	3861.902171	None	1	3863.890757	None	3863.890757	None	3863.890757	None	3864.659447	None	3864.659447	3865.662086	3866.764997	None	3866.764997	None	right	3866.764997	None	None	None	3867.21618	3868.753564	0.640756875	0.406505755													103	1	18	1	2019_Dec_05_0924	Test	3.2.4	59.83964746		Pictures/IA25_L20.bmp	Pictures/IA25_L20.bmp	Pictures/IA25.bmp	"Don't be tempted to gamble."""""	0	safe					8	0	8	0	0	14	14	12																															3868.770263	None	3870.792265	3872.312936	3872.296236	None	3873.850315	None	1	3875.82218	None	3875.82218	None	3875.82218	None	3876.206537	None	3876.206537	3877.209177	3878.312086	None	3878.312086	None	left	3878.312086	None	3878.663007	3880.300641	None	None	0.261793377	0.307416253													103	1	18	1	2019_Dec_05_0924	Test	3.2.4	59.83964746		Pictures/IA100_G60.bmp	Pictures/IA100_G60.bmp	Pictures/IA100.bmp	"Be cautious"	0	safe					8	0	8	0	0	15	15	1																															3880.317365	None	3882.339361	3883.860031	3883.843312	None	3885.380705	None	1	3887.36927	None	3887.36927	None	3887.36927	None	3887.954143	None	3887.954143	3888.956781	3890.093113	None	3890.093113	None	right	3890.093113	None	None	None	3891.413257	None	0.44224703	1.270390567													103	1	18	1	2019_Dec_05_0924	Test	3.2.4	59.83964746		Pictures/IA80_40_G95p.bmp	Pictures/IA80_40_G95p.bmp	Pictures/IA80.bmp	"Think of the payoff"	1	risk					8	0	8	0	0	16	16	4																															3892.098403	None	3894.1204	3895.641072	3895.624351	None	3897.161749	None	1	3899.15031	None	3899.15031	None	3899.15031	None	3899.701772	None	3899.701772	3900.704411	3901.807323	None	3901.807323	None	left	3901.807323	None	3902.141531	3903.812593	None	None	0.42120456	0.292182217													103	1	18	1	2019_Dec_05_0924	Test	3.2.4	59.83964746		Pictures/IA50_L10.bmp	Pictures/IA50_L10.bmp	Pictures/IA50.bmp	"Play it safe"	0	safe					8	0	8	0	0	17	17	5																															3903.82931	None	3905.851306	3907.371977	3907.355259	None	3908.892655	None	1	3910.881217	None	3910.881217	None	3910.881217	None	3911.349117	None	3911.349117	3912.351752	3913.454662	None	3913.454662	None	right	3913.454662	None	None	None	3913.905846	3915.443231	0.338294915	0.404855431													103	1	18	1	2019_Dec_05_0924	Test	3.2.4	59.83964746		Pictures/IA25_L15.bmp	Pictures/IA25_L15.bmp	Pictures/IA25.bmp	"There's not much on the line here"	1	risk					8	0	8	0	0	18	18	0																															3915.459954	None	3917.481954	3919.002622	3918.985903	None	3920.523294	None	1	3922.511861	None	3922.511861	None	3922.511861	None	3922.912917	None	3922.912917	3923.915559	3925.018429	None	3925.018429	None	left	3925.018429	None	3925.837282	3927.007042	None	None	0.243651016	0.777074307													103	1	18	1	2019_Dec_05_0924	Test	3.2.4	59.83964746		Pictures/IA75_G15.bmp	Pictures/IA75_G15.bmp	Pictures/IA75.bmp	"Take a chance!"""""	1	risk					8	0	8	0	0	19	19	18																															3927.023743	None	3929.045739	3930.56641	3930.549716	None	3932.087084	None	1	3934.075669	None	3934.075669	None	3934.075669	None	3934.810945	None	3934.810945	3935.813581	3936.916489	None	3936.916489	None	right	3936.916489	None	None	None	3938.086223	None	0.647841742	1.135011286													103	1	18	1	2019_Dec_05_0924	Test	3.2.4	59.83964746												8	0	8	0																																																																									3939.08887	None	return	10.72262542	3939.08887	None	103	1	18	1	2019_Dec_05_0924	Test	3.2.4	59.83964746		Pictures/IA100_L60.bmp	Pictures/IA100_L60.bmp	Pictures/IA100.bmp	"You'd have a lot to lose"	0	safe					9	0	9	0	0	0	0	17													3949.984252	None	3949.984252	None	3949.984252	None	left	2.275242268	3949.984252	None	3949.984252	None	3949.984252	None	return	5.179014284	3949.984252	None	3955.214686	None	3957.219983	3958.740651	3958.723933	None	3960.211183	None	1	3962.233192	None	3962.233192	None	3962.233192	None	3962.650959	None	3962.650959	3963.653594	3964.773181	None	3964.773181	None	left	3964.773181	None	3965.508473	3966.778482	None	None	0.282316226	0.686315241													103	1	18	1	2019_Dec_05_0924	Test	3.2.4	59.83964746		Pictures/IA100_G80.bmp	Pictures/IA100_G80.bmp	Pictures/IA100.bmp	"Why not gamble?"""""	1	risk					9	0	9	0	0	1	1	7																															3966.795204	None	3968.817201	3970.337878	3970.321155	None	3971.825126	None	1	3973.847112	None	3973.847112	None	3973.847112	None	3974.248166	None	3974.248166	3975.250802	3976.353716	None	3976.353716	None	right	3976.353716	None	None	None	3977.172542	3978.342296	0.316407756	0.769785231													103	1	18	1	2019_Dec_05_0924	Test	3.2.4	59.83964746		Pictures/IA25_G5.bmp	Pictures/IA25_G5.bmp	Pictures/IA25.bmp	"Let's stay with the certain option."""""	0	safe					9	0	9	0	0	2	2	10																															3978.358994	None	3980.380996	3981.901661	3981.884973	None	3983.388919	None	1	3985.410924	None	3985.410924	None	3985.410924	None	3986.229753	None	3986.229753	3987.232382	3988.335294	None	3988.335294	None	right	3988.335294	None	None	None	3989.488328	None	0.680583911	1.116205559													103	1	18	1	2019_Dec_05_0924	Test	3.2.4	59.83964746		Pictures/IA100_L20.bmp	Pictures/IA100_L20.bmp	Pictures/IA100.bmp	"Try to win as much money as you can"	1	risk					9	0	9	0	0	3	3	5																															3990.340573	None	3992.362573	3993.88324	3993.866521	None	3995.403917	None	1	3997.392478	None	3997.392478	None	3997.392478	None	3997.877106	None	3997.877106	3998.879737	3999.982648	None	3999.982648	None	right	3999.982648	None	None	None	4000.300148	4001.987914	0.323035765	0.276848048													103	1	18	1	2019_Dec_05_0924	Test	3.2.4	59.83964746		Pictures/IA75_L45.bmp	Pictures/IA75_L45.bmp	Pictures/IA75.bmp	"