Choice	Choice2	Amount	AdviceVar1	GambleAdviceNum	GambleAdviceType	practice.thisRepN	practice.thisTrialN	practice.thisN	practice.thisIndex	trials_2.thisRepN	trials_2.thisTrialN	trials_2.thisN	trials_2.thisIndex	trials.thisRepN	trials.thisTrialN	trials.thisN	trials.thisIndex	text.started	text.stopped	key_resp_4.keys	key_resp_4.rt	key_resp_4.started	key_resp_4.stopped	instructions.started	instructions.stopped	space.keys	space.rt	space.started	space.stopped	chooseInst.started	chooseInst.stopped	Ad1.started	Ad1.stopped	Ad2.started	Ad2.stopped	key_resp_3.keys	key_resp_3.rt	key_resp_3.started	key_resp_3.stopped	Ad1pic.started	Ad1pic.stopped	Ad2pic.started	Ad2pic.stopped	enter.keys	enter.rt	enter.started	enter.stopped	iSi.started	iSi.stopped	receiveMoneyPicture.started	receiveMoneyPicture.stopped	ISI2.started	ISI2.stopped	ChoicePic.started	ChoicePic.stopped	response.keys	response.started	response.stopped	yesNo.started	yesNo.stopped	ask.started	ask.stopped	getAdv.started	getAdv.stopped	textForCode.started	textForCode.stopped	blank.started	blank.stopped	ChoicePic2.started	ChoicePic2.stopped	resp.keys	resp.started	resp.stopped	checkL1.started	checkL1.stopped	checkR1.started	checkR1.stopped	response.rt	resp.rt	EndPrac.started	EndPrac.stopped	key_resp.keys	key_resp.rt	key_resp.started	key_resp.stopped	endText.started	endText.stopped	key_resp_2.keys	key_resp_2.rt	key_resp_2.started	key_resp_2.stopped	participant	session	age	gender (0=male	 1 = female	 2 = other)	date	expName	psychopyVersion	frameRate																		244.7737576	None	space	123.7793068	244.7737576	None																																																																					104	1	18	1	2019_Dec_05_1037	Test	3.2.4	59.85106302																										368.5824806	None	space	2.018587628	368.5824806	None																																																															104	1	18	1	2019_Dec_05_1037	Test	3.2.4	59.85106302																																371.2227747	None	371.2227747	None	371.2227747	None	left	7.850287826	371.2227747	None																																																					104	1	18	1	2019_Dec_05_1037	Test	3.2.4	59.85106302																																										371.2227747	None	371.2227747	None	return	12.62614945	371.2227747	None																																													104	1	18	1	2019_Dec_05_1037	Test	3.2.4	59.85106302		Pictures/IA50_G20.bmp	Pictures/IA50_G20.bmp	Pictures/IA50.bmp	"

Let's venture and take a risk!"""""	1	risk	0	0	0	1																																							383.8894862	None	385.928178	387.4488429	387.4321521	None	388.9695239	None	None	391.0249357	None	391.0249357	None	391.0249357	None	None	None	None	None	394.0830046	None	394.0830046	None	None	394.0830046	None	None	None	None	None															104	1	18	1	2019_Dec_05_1037	Test	3.2.4	59.85106302		Pictures/IA50_G30.bmp	Pictures/IA50_G30.bmp	Pictures/IA50.bmp	"

I think you should gamble."""""	1	risk	0	1	1	2																																							396.0882864	None	398.1102766	399.6309458	399.6142301	None	401.1850438	None	2	403.1401869	None	403.1401869	None	403.1401869	None	None	None	None	None	404.3433676	None	404.3433676	None	None	404.3433676	None	None	None	None	None	1.020881466														104	1	18	1	2019_Dec_05_1037	Test	3.2.4	59.85106302		Pictures/IA50_G40.bmp	Pictures/IA50_G40.bmp	Pictures/IA50.bmp	"

It would probably be best to play it safe."""""	0	safe	0	2	2	3																																							406.3486479	None	408.3706371	409.8913101	409.8745904	None	411.4286951	None	2	413.4005572	None	413.4005572	None	413.4005572	None	None	None	None	None	414.7541159	None	414.7541159	None	None	414.7541159	None	None	None	None	None	1.16851499														104	1	18	1	2019_Dec_05_1037	Test	3.2.4	59.85106302		Pictures/IA50_G10.bmp	Pictures/IA50_G10.bmp	Pictures/IA50.bmp	"

Go with the safe option here!"""""	0	safe	0	3	3	0																																							416.7593914	None	418.7813845	420.285357	420.2686381	None	421.8227315	None	2	423.8113176	None	423.8113176	None	423.8113176	None	None	None	None	None	424.8306564	None	424.8306564	None	None	424.8306564	None	None	None	None	None	0.861756024														104	1	18	1	2019_Dec_05_1037	Test	3.2.4	59.85106302		Pictures/IA100_G40.bmp	Pictures/IA100_G40.bmp	Pictures/IA100.bmp	"

Try your luck and gamble!"""""	1	risk	0	4	4	5																																							426.8359395	None	428.8913573	430.4119908	430.3953322	None	431.9326975	None	2	433.8878669	None	433.8878669	None	433.8878669	None	None	None	None	None	435.0241782	None	435.0241782	None	left	435.0241782	None	435.9265651	437.0294575	None	None	0.953212029	0.864925728													104	1	18	1	2019_Dec_05_1037	Test	3.2.4	59.85106302		Pictures/IA100_G20.bmp	Pictures/IA100_G20.bmp	Pictures/IA100.bmp	"

Go ahead and gamble!"""""	1	risk	0	5	5	4																																							437.0461825	None	439.0681733	440.5888432	440.5721247	None	442.14294	None	2	444.0980843	None	444.0980843	None	444.0980843	None	None	None	None	None	444.9837573	None	444.9837573	None	left	444.9837573	None	445.468375	446.9723168	None	None	0.734993226	0.449307559													104	1	18	1	2019_Dec_05_1037	Test	3.2.4	59.85106302																																																																																		446.989045	None	space	26.0200209	446.989045	None							104	1	18	1	2019_Dec_05_1037	Test	3.2.4	59.85106302		Pictures/IA100_L20.bmp	Pictures/IA100_L20.bmp	Pictures/IA100.bmp	"

Try to win as much money as you can"	1	risk					0	0	0	0	0	0	0	19													473.1746773	None	473.1746773	None	473.1746773	None	left	1.794381156	473.1746773	None	473.1746773	None	473.1746773	None	return	5.938176613	473.1746773	None	479.1738254	None	481.1790975	482.6997661	482.6830723	None	484.2204546	None	2	486.1923209	None	486.1923209	None	486.1923209	None	None	None	None	None	487.5625947	None	487.5625947	None	right	487.5625947	None	None	None	488.3646923	489.5678593	1.176764853	0.758472893													104	1	18	1	2019_Dec_05_1037	Test	3.2.4	59.85106302		Pictures/IA50_G20.bmp	Pictures/IA50_G20.bmp	Pictures/IA50.bmp	"

Let's venture and take a risk!"""""	1	risk					0	0	0	0	0	1	1	16																															489.5845871	None	491.606578	493.1272483	493.1105338	None	494.6145022	None	2	496.6364851	None	496.6364851	None	496.6364851	None	None	None	None	None	497.555586	None	497.555586	None	left	497.555586	None	498.4078265	499.5441527	None	None	0.756590604	0.813480409													104	1	18	1	2019_Dec_05_1037	Test	3.2.4	59.85106302		Pictures/IA110_55_G95p.bmp	Pictures/IA110_55_G95p.bmp	Pictures/IA110.bmp	"

Take a chance!"""""	1	risk					0	0	0	0	0	2	2	14																															499.5608538	None	501.5995589	503.1202294	503.1035338	None	504.640916	None	2	506.6127786	None	506.6127786	None	506.6127786	None	None	None	None	None	508.0665973	None	508.0665973	None	left	508.0665973	None	509.0859461	None	None	None	1.292296082	0.982467961													104	1	18	1	2019_Dec_05_1037	Test	3.2.4	59.85106302		Pictures/IA50_L20.bmp	Pictures/IA50_L20.bmp	Pictures/IA50.bmp	"

Certainty is boring"	1	risk					0	0	0	0	0	3	3	5																															510.0718773	None	512.0938726	513.6145447	513.597847	None	515.1519269	None	2	517.1237924	None	517.1237924	None	517.1237924	None	None	None	None	None	518.4940783	None	518.4940783	None	right	518.4940783	None	None	None	519.5969704	None	1.197275484	1.058987656													104	1	18	1	2019_Dec_05_1037	Test	3.2.4	59.85106302		Pictures/IA50_L10.bmp	Pictures/IA50_L10.bmp	Pictures/IA50.bmp	"

Play it safe"	0	safe					0	0	0	0	0	4	4	0																															520.5160626	None	522.5380591	524.0420252	524.0253144	None	525.5961135	None	2	527.5679767	None	527.5679767	None	527.5679767	None	None	None	None	None	528.8881175	None	528.8881175	None	left	528.8881175	None	529.7905028	530.8933938	None	None	1.153095337	0.864947873													104	1	18	1	2019_Dec_05_1037	Test	3.2.4	59.85106302		Pictures/IA50_L40.bmp	Pictures/IA50_L40.bmp	Pictures/IA50.bmp	"

That gamble doesn't sound too good"	0	safe					0	0	0	0	0	5	5	4																															530.9101165	None	532.932116	534.4528086	534.4360831	None	536.0068778	None	1	537.9620215	None	537.9620215	None	537.9620215	None	539.6163911	None	539.6163911	540.619028	541.7386597	None	541.7386597	None	left	541.7386597	None	543.2593177	None	None	None	1.49506073	1.478402554													104	1	18	1	2019_Dec_05_1037	Test	3.2.4	59.85106302		Pictures/IA25_L15.bmp	Pictures/IA25_L15.bmp	Pictures/IA25.bmp	"

There's not much on the line here"	1	risk					0	0	0	0	0	6	6	12																															543.743926	None	545.7826216	547.3032914	547.2865994	None	548.8239788	None	2	550.795846	None	550.795846	None	550.795846	None	None	None	None	None	552.115988	None	552.115988	None	left	552.115988	None	552.8679627	554.1045445	None	None	1.149226727	0.717079399													104	1	18	1	2019_Dec_05_1037	Test	3.2.4	59.85106302		Pictures/IA75_L30.bmp	Pictures/IA75_L30.bmp	Pictures/IA75.bmp	"

Hold back"	0	safe					0	0	0	0	0	7	7	1																															554.1212661	None	556.159972	557.6806408	557.6639223	None	559.2013053	None	2	561.1731673	None	561.1731673	None	561.1731673	None	None	None	None	None	562.0922675	None	562.0922675	None	left	562.0922675	None	562.9445091	564.080833	None	None	0.723908639	0.812811226													104	1	18	1	2019_Dec_05_1037	Test	3.2.4	59.85106302		Pictures/IA100_L40.bmp	Pictures/IA100_L40.bmp	Pictures/IA100.bmp	"

Think of the payoff"	1	risk					0	0	0	0	0	8	8	3																															564.0975341	None	566.1195301	567.6402029	567.6235057	None	569.1775853	None	2	571.1494507	None	571.1494507	None	571.1494507	None	None	None	None	None	572.0685365	None	572.0685365	None	left	572.0685365	None	572.6199875	574.0571178	None	None	0.747632971	0.508532155													104	1	18	1	2019_Dec_05_1037	Test	3.2.4	59.85106302		Pictures/IA20_10_G95p.bmp	Pictures/IA20_10_G95p.bmp	Pictures/IA20.bmp	"

Take a leap"	1	risk					0	0	0	0	0	9	9	10																															574.073817	None	576.1125332	577.6331931	577.6164981	None	579.1705921	None	2	581.1257338	None	581.1257338	None	581.1257338	None	None	None	None	None	582.2453476	None	582.2453476	None	left	582.2453476	None	582.7466889	584.2506262	None	None	0.939350704	0.451722026													104	1	18	1	2019_Dec_05_1037	Test	3.2.4	59.85106302		Pictures/IA75_G60.bmp	Pictures/IA75_G60.bmp	Pictures/IA75.bmp	"

Make it exciting"	1	risk					0	0	0	0	0	10	10	18																															584.2673514	None	586.289343	587.8100149	587.7932977	None	589.3474002	None	2	591.3192634	None	591.3192634	None	591.3192634	None	None	None	None	None	592.4723004	None	592.4723004	None	left	592.4723004	None	592.8733443	594.4775706	None	None	0.985806568	0.352768391													104	1	18	1	2019_Dec_05_1037	Test	3.2.4	59.85106302		Pictures/IA100_L60.bmp	Pictures/IA100_L60.bmp	Pictures/IA100.bmp	"

You'd have a lot to lose"	0	safe					0	0	0	0	0	11	11	8																															594.4942923	None	596.5162851	598.0369585	598.0202383	None	599.5743431	None	2	601.5462046	None	601.5462046	None	601.5462046	None	None	None	None	None	603.3843679	None	603.3843679	None	left	603.3843679	None	604.2031923	605.3729504	None	None	1.630879903	0.784700543													104	1	18	1	2019_Dec_05_1037	Test	3.2.4	59.85106302		Pictures/IA25_L20.bmp	Pictures/IA25_L20.bmp	Pictures/IA25.bmp	"

Don't be tempted to gamble."""""	0	safe					0	0	0	0	0	12	12	15																															605.3896508	None	607.4116464	608.9323155	608.9156258	None	610.4697015	None	1	612.4415648	None	612.4415648	None	612.4415648	None	612.5752495	None	612.5752495	613.5778866	614.697509	None	614.697509	None	left	614.697509	None	615.9508419	None	None	None	0.015509865	1.207591642													104	1	18	1	2019_Dec_05_1037	Test	3.2.4	59.85106302		Pictures/IA75_G45.bmp	Pictures/IA75_G45.bmp	Pictures/IA75.bmp	"

Don't gamble for this one."""""	0	safe					0	0	0	0	0	13	13	9																															616.7028025	None	618.7247931	620.2454522	620.2287601	None	621.7828423	None	2	623.7546974	None	623.7546974	None	623.7546974	None	None	None	None	None	624.6403798	None	624.6403798	None	left	624.6403798	None	625.1416852	626.6456612	None	None	0.73437675	0.456690782													104	1	18	1	2019_Dec_05_1037	Test	3.2.4	59.85106302		Pictures/IA50_G40.bmp	Pictures/IA50_G40.bmp	Pictures/IA50.bmp	"

It would probably be best to play it safe."""""	0	safe					0	0	0	0	0	14	14	13																															626.6623577	None	628.6843532	630.2050236	630.1883275	None	631.6922813	None	2	633.714286	None	633.714286	None	633.714286	None	None	None	None	None	634.783759	None	634.783759	None	right	634.783759	None	None	None	635.0678398	636.7723366	0.886792273	0.241310113													104	1	18	1	2019_Dec_05_1037	Test	3.2.4	59.85106302		Pictures/IA75_L60.bmp	Pictures/IA75_L60.bmp	Pictures/IA75.bmp	"

Why not take the gamble?"""""	1	risk					0	0	0	0	0	15	15	6																															636.7890357	None	638.8110295	640.3317072	640.315008	None	641.8690872	None	1	643.840955	None	643.840955	None	643.840955	None	645.1945208	None	645.1945208	646.1971527	647.3000648	None	647.3000648	None	left	647.3000648	None	648.8040373	None	None	None	1.240120935	1.46899839													104	1	18	1	2019_Dec_05_1037	Test	3.2.4	59.85106302		Pictures/IA75_G15.bmp	Pictures/IA75_G15.bmp	Pictures/IA75.bmp	"

Take a chance!"""""	1	risk					0	0	0	0	0	16	16	11																															649.3220671	None	651.3440637	652.8647348	652.8480126	None	654.4021172	None	2	656.3739842	None	656.3739842	None	656.3739842	None	None	None	None	None	657.1593709	None	657.1593709	None	left	657.1593709	None	657.5604361	659.1646605	None	None	0.635095726	0.361690436													104	1	18	1	2019_Dec_05_1037	Test	3.2.4	59.85106302		Pictures/IA25_L10.bmp	Pictures/IA25_L10.bmp	Pictures/IA25.bmp	"

Dont be afraid to take the risk!"""""	1	risk					0	0	0	0	0	17	17	17																															659.1813606	None	661.2033553	662.7240258	662.7073359	None	664.2948346	None	2	666.2332763	None	666.2332763	None	666.2332763	None	None	None	None	None	667.3027594	None	667.3027594	None	left	667.3027594	None	667.6202635	669.2913294	None	None	0.8718034	0.274312707													104	1	18	1	2019_Dec_05_1037	Test	3.2.4	59.85106302		Pictures/IA80_40_G95p.bmp	Pictures/IA80_40_G95p.bmp	Pictures/IA80.bmp	"

Think of the payoff"	1	risk					0	0	0	0	0	18	18	7																															669.3080506	None	671.3467569	672.8674271	672.8507081	None	674.3880942	None	2	676.3599543	None	676.3599543	None	676.3599543	None	None	None	None	None	677.8973513	None	677.8973513	None	left	677.8973513	None	678.4655347	679.9026194	None	None	1.385117565	0.519711562													104	1	18	1	2019_Dec_05_1037	Test	3.2.4	59.85106302		Pictures/IA40_20_L95p.bmp	Pictures/IA40_20_L95p.bmp	Pictures/IA40.bmp	"

Trust me"	1	risk					0	0	0	0	0	19	19	2																															679.9193377	None	681.9580444	683.4619943	683.4452954	None	684.9993807	None	2	686.9712431	None	686.9712431	None	686.9712431	None	None	None	None	None	687.7399519	None	687.7399519	None	right	687.7399519	None	None	None	688.0240247	689.7285007	0.589830917	0.237110733													104	1	18	1	2019_Dec_05_1037	Test	3.2.4	59.85106302												0	0	0	0																																																																									689.9624729	None	return	7.158582272	689.9624729	None	104	1	18	1	2019_Dec_05_1037	Test	3.2.4	59.85106302		Pictures/IA100_L80.bmp	Pictures/IA100_L80.bmp	Pictures/IA100.bmp	"

Go all in!"""""	1	risk					1	0	1	0	0	0	0	1													697.2817472	None	697.2817472	None	697.2817472	None	left	5.35932006	697.2817472	None	697.2817472	None	697.2817472	None	return	5.743118557	697.2817472	None	703.0803452	None	705.0856389	706.6063092	706.5895913	None	708.1269781	None	1	710.0988381	None	710.0988381	None	710.0988381	None	712.1709741	None	712.1709741	713.1736148	714.2765217	None	714.2765217	None	left	714.2765217	None	716.0812611	None	None	None	1.990238869	1.764548912													104	1	18	1	2019_Dec_05_1037	Test	3.2.4	59.85106302		Pictures/IA50_G20.bmp	Pictures/IA50_G20.bmp	Pictures/IA50.bmp	"

Let's venture and take a risk!"""""	1	risk					1	0	1	0	0	1	1	15																															716.2985215	None	718.320506	719.8411765	719.8244587	None	721.3451051	None	2	723.3504307	None	723.3504307	None	723.3504307	None	None	None	None	None	724.2193872	None	724.2193872	None	left	724.2193872	None	724.553586	726.2246494	None	None	0.706644676	0.293689327													104	1	18	1	2019_Dec_05_1037	Test	3.2.4	59.85106302		Pictures/IA75_L45.bmp	Pictures/IA75_L45.bmp	Pictures/IA75.bmp	"

Don't gamble for this one"	0	safe					1	0	1	0	0	2	2	14																															726.2413792	None	728.2633674	729.7840416	729.7673214	None	731.3214475	None	2	733.2932869	None	733.2932869	None	733.2932869	None	None	None	None	None	734.061968	None	734.061968	None	left	734.061968	None	734.362764	736.0505352	None	None	0.59579315	0.251104556													104	1	18	1	2019_Dec_05_1037	Test	3.2.4	59.85106302		Pictures/IA75_G60.bmp	Pictures/IA75_G60.bmp	Pictures/IA75.bmp	"

Make it exciting"	1	risk					1	0	1	0	0	3	3	10																															736.0672585	None	738.0892587	739.6099239	739.5932111	None	741.0971949	None	2	743.1191617	None	743.1191617	None	743.1191617	None	None	None	None	None	744.1719349	None	744.1719349	None	left	744.1719349	None	744.4058918	746.1772169	None	None	0.87391305	0.189135554													104	1	18	1	2019_Dec_05_1037	Test	3.2.4	59.85106302		Pictures/IA50_L40.bmp	Pictures/IA50_L40.bmp	Pictures/IA50.bmp	"

That gamble doesn't sound too good"	0	safe					1	0	1	0	0	4	4	19																															746.1939369	None	748.2159323	749.7366239	749.7198832	None	751.2572762	None	2	753.2458402	None	753.2458402	None	753.2458402	None	None	None	None	None	754.8166468	None	754.8166468	None	left	754.8166468	None	755.2678287	756.8052124	None	None	1.37123967	0.408421999													104	1	18	1	2019_Dec_05_1037	Test	3.2.4	59.85106302		Pictures/IA25_L5.bmp	Pictures/IA25_L5.bmp	Pictures/IA25.bmp	"

It would be smarter to choose the safe option."""""	0	safe					1	0	1	0	0	5	5	18																															756.8219336	None	758.8439283	760.3646001	760.3478815	None	761.8852761	None	2	763.8738377	None	763.8738377	None	763.8738377	None	None	None	None	None	764.9433387	None	764.9433387	None	left	764.9433387	None	765.3109552	766.9486191	None	None	0.895247346	0.329727388													104	1	18	1	2019_Dec_05_1037	Test	3.2.4	59.85106302		Pictures/IA50_G10.bmp	Pictures/IA50_G10.bmp	Pictures/IA50.bmp	"

Go with the safe option here!"""""	0	safe					1	0	1	0	0	6	6	13																															766.9653148	None	768.9873067	770.5079807	770.4912844	None	772.0286538	None	2	774.0172359	None	774.0172359	None	774.0172359	None	None	None	None	None	775.0365797	None	775.0365797	None	left	775.0365797	None	775.303959	777.0418702	None	None	0.863835744	0.220495598													104	1	18	1	2019_Dec_05_1037	Test	3.2.4	59.85106302		Pictures/IA100_G40.bmp	Pictures/IA100_G40.bmp	Pictures/IA100.bmp	"

Try your luck and gamble!"""""	1	risk					1	0	1	0	0	7	7	7																															777.0585708	None	779.0805673	780.5845357	780.5678176	None	782.1051989	None	2	784.1104844	None	784.1104844	None	784.1104844	None	None	None	None	None	785.012874	None	785.012874	None	left	785.012874	None	785.464084	787.0181394	None	None	0.722591195	0.404194004													104	1	18	1	2019_Dec_05_1037	Test	3.2.4	59.85106302		Pictures/IA20_10_L95p.bmp	Pictures/IA20_10_L95p.bmp	Pictures/IA20.bmp	"

Don't be tempted to gamble."""""	0	safe					1	0	1	0	0	8	8	17																															787.034863	None	789.0568571	790.5775304	790.5608099	None	792.1149318	None	2	794.0867789	None	794.0867789	None	794.0867789	None	None	None	None	None	794.9223131	None	794.9223131	None	left	794.9223131	None	795.2565108	796.9108758	None	None	0.578294964	0.286766888													104	1	18	1	2019_Dec_05_1037	Test	3.2.4	59.85106302		Pictures/IA100_L20.bmp	Pictures/IA100_L20.bmp	Pictures/IA100.bmp	"

Try to win as much money as you can"	1	risk					1	0	1	0	0	9	9	0																															796.92759	None	798.9495909	800.4702611	800.4535415	None	801.9909319	None	2	803.9794944	None	803.9794944	None	803.9794944	None	None	None	None	None	804.7649134	None	804.7649134	None	left	804.7649134	None	805.0322642	806.7701827	None	None	0.589579691	0.220166584													104	1	18	1	2019_Dec_05_1037	Test	3.2.4	59.85106302		Pictures/IA80_40_G95p.bmp	Pictures/IA80_40_G95p.bmp	Pictures/IA80.bmp	"

Think of the payoff"	1	risk					1	0	1	0	0	10	10	16																															806.7869002	None	808.8088921	810.3295649	810.3128448	None	811.8168218	None	2	813.8388032	None	813.8388032	None	813.8388032	None	None	None	None	None	814.6242096	None	814.6242096	None	left	814.6242096	None	814.8748631	816.6127713	None	None	0.61827701	0.200851972													104	1	18	1	2019_Dec_05_1037	Test	3.2.4	59.85106302		Pictures/IA25_G10.bmp	Pictures/IA25_G10.bmp	Pictures/IA25.bmp	"

What's life without a little risk?"""""	1	risk					1	0	1	0	0	11	11	8																															816.6294968	None	818.6514942	820.1721613	820.1554459	None	821.7095467	None	2	823.6814093	None	823.6814093	None	823.6814093	None	None	None	None	None	824.533608	None	824.533608	None	left	824.533608	None	824.8344461	826.5389312	None	None	0.687663394	0.26746145													104	1	18	1	2019_Dec_05_1037	Test	3.2.4	59.85106302		Pictures/IA75_G45.bmp	Pictures/IA75_G45.bmp	Pictures/IA75.bmp	"

Don't gamble for this one."""""	0	safe					1	0	1	0	0	12	12	6																															826.5556454	None	828.5776505	830.0983115	830.0815993	None	831.5855711	None	2	833.6075494	None	833.6075494	None	833.6075494	None	None	None	None	None	834.5433483	None	834.5433483	None	left	834.5433483	None	834.6603198	836.5319143	None	None	0.7695181	0.081717919													104	1	18	1	2019_Dec_05_1037	Test	3.2.4	59.85106302		Pictures/IA25_G5.bmp	Pictures/IA25_G5.bmp	Pictures/IA25.bmp	"

Let's stay with the certain option."""""	0	safe					1	0	1	0	0	13	13	5																															836.5486376	None	838.5706343	840.0913032	840.0745885	None	841.628689	None	2	843.6005538	None	843.6005538	None	843.6005538	None	None	None	None	None	844.7703016	None	844.7703016	None	left	844.7703016	None	845.3384493	846.7755817	None	None	0.976519286	0.526763334													104	1	18	1	2019_Dec_05_1037	Test	3.2.4	59.85106302		Pictures/IA25_L10.bmp	Pictures/IA25_L10.bmp	Pictures/IA25.bmp	"

Dont be afraid to take the risk!"""""	1	risk					1	0	1	0	0	14	14	3																															846.7922793	None	848.8142797	850.3349461	850.3182531	None	851.8222032	None	2	853.84421	None	853.84421	None	853.84421	None	None	None	None	None	854.6630197	None	854.6630197	None	left	854.6630197	None	854.8635585	856.651615	None	None	0.652866689	0.154047798													104	1	18	1	2019_Dec_05_1037	Test	3.2.4	59.85106302		Pictures/IA50_L30.bmp	Pictures/IA50_L30.bmp	Pictures/IA50.bmp	"

Take a leap"	1	risk					1	0	1	0	0	15	15	4																															856.6682975	None	858.6902916	860.2109645	860.1942682	None	861.7483595	None	2	863.720214	None	863.720214	None	863.720214	None	None	None	None	None	864.472195	None	864.472195	None	left	864.472195	None	864.6058867	866.4774835	None	None	0.568852732	0.096863041													104	1	18	1	2019_Dec_05_1037	Test	3.2.4	59.85106302		Pictures/IA110_55_L95p.bmp	Pictures/IA110_55_L95p.bmp	Pictures/IA110.bmp	"

Trust me"	1	risk					1	0	1	0	0	16	16	11																															866.4941836	None	868.5328937	870.0368622	870.0201427	None	871.574251	None	2	873.54611	None	873.54611	None	873.54611	None	None	None	None	None	874.415072	None	874.415072	None	right	874.415072	None	None	None	874.649002	876.4203439	0.702956092	0.185995998													104	1	18	1	2019_Dec_05_1037	Test	3.2.4	59.85106302		Pictures/IA50_G30.bmp	Pictures/IA50_G30.bmp	Pictures/IA50.bmp	"

I think you should gamble."""""	1	risk					1	0	1	0	0	17	17	2																															876.437044	None	878.4590454	879.9797109	879.9630331	None	881.4836731	None	2	883.4889602	None	883.4889602	None	883.4889602	None	None	None	None	None	884.0237004	None	884.0237004	None	left	884.0237004	None	884.2743623	886.0122695	885.6780566	None	0.384121715	1.665368443													104	1	18	1	2019_Dec_05_1037	Test	3.2.4	59.85106302		Pictures/IA75_L15.bmp	Pictures/IA75_L15.bmp	Pictures/IA75.bmp	"

Trust me"	1	risk					1	0	1	0	0	18	18	12																															886.028991	None	888.0509883	889.5716575	889.5549397	None	891.1090471	None	2	893.0809078	None	893.0809078	None	893.0809078	None	None	None	None	None	893.7994571	None	893.7994571	None	left	893.7994571	None	893.9665752	895.8047344	None	None	0.568175775	0.12960833													104	1	18	1	2019_Dec_05_1037	Test	3.2.4	59.85106302		Pictures/IA50_L20.bmp	Pictures/IA50_L20.bmp	Pictures/IA50.bmp	"

Certainty is boring"	1	risk					1	0	1	0	0	19	19	9																															895.8214605	None	897.8434655	899.3641278	899.3474074	None	900.8680879	None	2	902.8733722	None	902.8733722	None	902.8733722	None	None	None	None	None	904.4274536	None	904.4274536	None	left	904.4274536	None	904.6112695	906.4160203	None	None	1.391702461	0.141612943													104	1	18	1	2019_Dec_05_1037	Test	3.2.4	59.85106302												1	0	1	0																																																																									906.583146	None	return	3.913909644	906.583146	None	104	1	18	1	2019_Dec_05_1037	Test	3.2.4	59.85106302		Pictures/IA20_10_G95p.bmp	Pictures/IA20_10_G95p.bmp	Pictures/IA20.bmp	"

Take a leap"	1	risk					2	0	2	0	0	0	0	5													910.6605523	None	910.6605523	None	910.6605523	None	left	2.612515308	910.6605523	None	910.6605523	None	910.6605523	None	return	4.300394914	910.6605523	None	915.0053237	None	917.0106124	918.5312885	918.5145659	None	920.0352519	None	2	922.0405379	None	922.0405379	None	922.0405379	None	None	None	None	None	922.5752676	None	922.5752676	None	left	922.5752676	None	923.1601348	924.5638318	None	None	0.360525375	0.537796456													104	1	18	1	2019_Dec_05_1037	Test	3.2.4	59.85106302		Pictures/IA25_L10.bmp	Pictures/IA25_L10.bmp	Pictures/IA25.bmp	"

Dont be afraid to take the risk!"""""	1	risk					2	0	2	0	0	1	1	18																															924.5805595	None	926.6025509	928.1232192	928.1065034	None	929.6271855	None	2	931.6324694	None	931.6324694	None	931.6324694	None	None	None	None	None	932.0669484	None	932.0669484	None	left	932.0669484	None	932.2674611	934.0722175	None	None	0.280595345	0.166114234													104	1	18	1	2019_Dec_05_1037	Test	3.2.4	59.85106302		Pictures/IA50_G40.bmp	Pictures/IA50_G40.bmp	Pictures/IA50.bmp	"

It would probably be best to play it safe."""""	0	safe					2	0	2	0	0	2	2	19																															934.0889364	None	936.1109387	937.6316043	937.6148914	None	939.1355681	None	2	941.1408702	None	941.1408702	None	941.1408702	None	None	None	None	None	941.6087451	None	941.6087451	None	left	941.6087451	None	941.8593982	943.5973079	None	None	0.292213754	0.208322064													104	1	18	1	2019_Dec_05_1037	Test	3.2.4	59.85106302		Pictures/IA40_20_G95p.bmp	Pictures/IA40_20_G95p.bmp	Pictures/IA40.bmp	"

Hold back"	0	safe					2	0	2	0	0	3	3	8																															943.6140299	None	945.6360312	947.156701	947.1399837	None	948.6940845	None	2	950.6659483	None	950.6659483	None	950.6659483	None	None	None	None	None	951.2842409	None	951.2842409	None	left	951.2842409	None	952.4873994	None	None	None	0.43913314	1.156827807													104	1	18	1	2019_Dec_05_1037	Test	3.2.4	59.85106302		Pictures/IA100_L40.bmp	Pictures/IA100_L40.bmp	Pictures/IA100.bmp	"

Think of the payoff"	1	risk					2	0	2	0	0	4	4	17																															953.306231	None	955.3282259	956.8489029	956.8321766	None	958.3528613	None	2	960.3581472	None	960.3581472	None	960.3581472	None	None	None	None	None	960.8093348	None	960.8093348	None	left	960.8093348	None	961.0599935	962.7979039	None	None	0.274929866	0.215729839													104	1	18	1	2019_Dec_05_1037	Test	3.2.4	59.85106302		Pictures/IA40_20_L95p.bmp	Pictures/IA40_20_L95p.bmp	Pictures/IA40.bmp	"

Trust me"	1	risk					2	0	2	0	0	5	5	14																															962.8146021	None	964.836599	966.3572662	966.3405727	None	967.8445231	None	2	969.8665301	None	969.8665301	None	969.8665301	None	None	None	None	None	970.7187652	None	970.7187652	None	right	970.7187652	None	None	None	971.086406	972.7240418	0.686537221	0.322315117													104	1	18	1	2019_Dec_05_1037	Test	3.2.4	59.85106302		Pictures/IA75_G15.bmp	Pictures/IA75_G15.bmp	Pictures/IA75.bmp	"

Take a chance!"""""	1	risk					2	0	2	0	0	6	6	4																															972.7407744	None	974.7627641	976.2834365	976.2667118	None	977.7873989	None	2	979.7926844	None	979.7926844	None	979.7926844	None	None	None	None	None	980.7284918	None	980.7284918	None	left	980.7284918	None	980.9457138	982.717035	None	None	0.776392767	0.176573773													104	1	18	1	2019_Dec_05_1037	Test	3.2.4	59.85106302		Pictures/IA25_L5.bmp	Pictures/IA25_L5.bmp	Pictures/IA25.bmp	"

It would be smarter to choose the safe option."""""	0	safe					2	0	2	0	0	7	7	1																															982.7337775	None	984.7557505	986.2764236	986.2597094	None	987.7636774	None	2	989.785663	None	989.785663	None	989.785663	None	None	None	None	None	990.3538347	None	990.3538347	None	left	990.3538347	None	990.6379175	992.3423937	None	None	0.399407663	0.239235944													104	1	18	1	2019_Dec_05_1037	Test	3.2.4	59.85106302		Pictures/IA75_G60.bmp	Pictures/IA75_G60.bmp	Pictures/IA75.bmp	"

Make it exciting"	1	risk					2	0	2	0	0	8	8	10																															992.3591164	None	994.3811142	995.90178	995.8850665	None	997.4057435	None	2	999.4110297	None	999.4110297	None	999.4110297	None	None	None	None	None	999.9624851	None	999.9624851	None	left	999.9624851	None	1000.213139	1001.951056	None	None	0.382048224	0.214574735													104	1	18	1	2019_Dec_05_1037	Test	3.2.4	59.85106302		Pictures/IA75_L30.bmp	Pictures/IA75_L30.bmp	Pictures/IA75.bmp	"

Hold back"	0	safe					2	0	2	0	0	9	9	7																															1001.96775	None	1003.989746	1005.510416	1005.493724	None	1006.997672	None	2	1009.019681	None	1009.019681	None	1009.019681	None	None	None	None	None	1009.905342	None	1009.905342	None	left	1009.905342	None	1010.1727	1011.910623	None	None	0.717403125	0.223724485													104	1	18	1	2019_Dec_05_1037	Test	3.2.4	59.85106302		Pictures/IA25_G20.bmp	Pictures/IA25_G20.bmp	Pictures/IA25.bmp	"

I wouldn't gamble for this one. """""	0	safe					2	0	2	0	0	10	10	9																															1011.927323	None	1013.949318	1015.469992	1015.453292	None	1017.007373	None	1	1018.979236	None	1018.979236	None	1018.979236	None	1020.616896	None	1020.616896	1021.619532	1022.739161	None	1022.739161	None	right	1022.739161	None	None	None	1023.056657	1024.727721	1.52583769	0.277897343													104	1	18	1	2019_Dec_05_1037	Test	3.2.4	59.85106302		Pictures/IA50_L20.bmp	Pictures/IA50_L20.bmp	Pictures/IA50.bmp	"

Certainty is boring"	1	risk					2	0	2	0	0	11	11	12																															1024.744422	None	1026.766419	1028.287088	1028.270395	None	1029.77434	None	2	1031.796351	None	1031.796351	None	1031.796351	None	None	None	None	None	1032.431357	None	1032.431357	None	left	1032.431357	None	1032.68201	1034.419926	None	None	0.476723837	0.209705955													104	1	18	1	2019_Dec_05_1037	Test	3.2.4	59.85106302		Pictures/IA100_G80.bmp	Pictures/IA100_G80.bmp	Pictures/IA100.bmp	"

Why not gamble?"""""	1	risk					2	0	2	0	0	12	12	0																															1034.436627	None	1036.458617	1037.979288	1037.96259	None	1039.516677	None	2	1041.488537	None	1041.488537	None	1041.488537	None	None	None	None	None	1042.407636	None	1042.407636	None	left	1042.407636	None	1043.276576	1044.412903	None	None	0.76852732	0.825430114													104	1	18	1	2019_Dec_05_1037	Test	3.2.4	59.85106302		Pictures/IA100_L80.bmp	Pictures/IA100_L80.bmp	Pictures/IA100.bmp	"

Go all in!"""""	1	risk					2	0	2	0	0	13	13	3																															1044.429626	None	1046.45162	1047.972291	1047.955572	None	1049.49297	None	2	1051.481528	None	1051.481528	None	1051.481528	None	None	None	None	None	1052.216809	None	1052.216809	None	left	1052.216809	None	1052.467468	1054.205383	None	None	0.591545216	0.208255757													104	1	18	1	2019_Dec_05_1037	Test	3.2.4	59.85106302		Pictures/IA100_G40.bmp	Pictures/IA100_G40.bmp	Pictures/IA100.bmp	"

Try your luck and gamble!"""""	1	risk					2	0	2	0	0	14	14	16																															1054.222078	None	1056.244079	1057.764745	1057.748061	None	1059.28542	None	2	1061.274006	None	1061.274006	None	1061.274006	None	None	None	None	None	1061.725183	None	1061.725183	None	left	1061.725183	None	1062.042683	1063.71375	None	None	0.287067422	0.275896													104	1	18	1	2019_Dec_05_1037	Test	3.2.4	59.85106302		Pictures/IA75_G45.bmp	Pictures/IA75_G45.bmp	Pictures/IA75.bmp	"

Don't gamble for this one."""""	0	safe					2	0	2	0	0	15	15	11																															1063.730472	None	1065.752468	1067.273139	1067.256421	None	1068.777104	None	2	1070.782389	None	1070.782389	None	1070.782389	None	None	None	None	None	1071.333833	None	1071.333833	None	left	1071.333833	None	1071.651331	1073.322398	None	None	0.394681757	0.275234323													104	1	18	1	2019_Dec_05_1037	Test	3.2.4	59.85106302		Pictures/IA100_G20.bmp	Pictures/IA100_G20.bmp	Pictures/IA100.bmp	"

Go ahead and gamble!"""""	1	risk					2	0	2	0	0	16	16	15																															1073.339121	None	1075.361115	1076.881786	1076.865067	None	1078.385751	None	1	1080.39104	None	1080.39104	None	1080.39104	None	1082.045384	None	1082.045384	1083.04802	1084.167638	None	1084.167638	None	left	1084.167638	None	1084.602126	1086.172918	None	None	1.562037123	0.393430284													104	1	18	1	2019_Dec_05_1037	Test	3.2.4	59.85106302		Pictures/IA100_G60.bmp	Pictures/IA100_G60.bmp	Pictures/IA100.bmp	"

Be cautious"	0	safe					2	0	2	0	0	17	17	2																															1086.189647	None	1088.211636	1089.732341	1089.715588	None	1091.269699	None	2	1093.241556	None	1093.241556	None	1093.241556	None	None	None	None	None	1093.676032	None	1093.676032	None	left	1093.676032	None	1094.010243	1095.681313	None	None	0.263516685	0.293031632													104	1	18	1	2019_Dec_05_1037	Test	3.2.4	59.85106302		Pictures/IA25_G5.bmp	Pictures/IA25_G5.bmp	Pictures/IA25.bmp	"

Let's stay with the certain option."""""	0	safe					2	0	2	0	0	18	18	6																															1095.698013	None	1097.720007	1099.223992	1099.20731	None	1100.744656	None	2	1102.749927	None	1102.749927	None	1102.749927	None	None	None	None	None	1104.638234	None	1104.638234	None	left	1104.638234	None	1105.473803	1106.643514	None	None	1.699158692	0.786834326													104	1	18	1	2019_Dec_05_1037	Test	3.2.4	59.85106302		Pictures/IA50_G10.bmp	Pictures/IA50_G10.bmp	Pictures/IA50.bmp	"

Go with the safe option here!"""""	0	safe					2	0	2	0	0	19	19	13																															1106.660237	None	1108.682231	1110.186179	1110.169486	None	1111.723577	None	2	1113.712143	None	1113.712143	None	1113.712143	None	None	None	None	None	1115.282945	None	1115.282945	None	left	1115.282945	None	1115.650588	1117.288223	None	None	1.416928289	0.334115022													104	1	18	1	2019_Dec_05_1037	Test	3.2.4	59.85106302												2	0	2	0																																																																									1117.455347	None	return	14.23370261	1117.455347	None	104	1	18	1	2019_Dec_05_1037	Test	3.2.4	59.85106302		Pictures/IA25_L20.bmp	Pictures/IA25_L20.bmp	Pictures/IA25.bmp	"

Don't be tempted to gamble."""""	0	safe					3	0	3	0	0	0	0	11													1131.843238	None	1131.843238	None	1131.843238	None	left	5.173837642	1131.843238	None	1131.843238	None	1131.843238	None	return	6.517617384	1131.843238	None	1138.410537	None	1140.43253	1141.953199	1141.936507	None	1143.457185	None	2	1145.445741	None	1145.445741	None	1145.445741	None	None	None	None	None	1146.164311	None	1146.164311	None	left	1146.164311	None	1146.381548	1148.152868	None	None	0.563332167	0.180754923													104	1	18	1	2019_Dec_05_1037	Test	3.2.4	59.85106302		Pictures/IA75_G30.bmp	Pictures/IA75_G30.bmp	Pictures/IA75.bmp	"

Be bold"	1	risk					3	0	3	0	0	1	1	8																															1148.169598	None	1150.191588	1151.712256	1151.695537	None	1153.249646	None	2	1155.221507	None	1155.221507	None	1155.221507	None	None	None	None	None	1155.806368	None	1155.806368	None	left	1155.806368	None	1156.073748	1157.811665	None	None	0.427566329	0.218701736													104	1	18	1	2019_Dec_05_1037	Test	3.2.4	59.85106302		Pictures/IA100_G80.bmp	Pictures/IA100_G80.bmp	Pictures/IA100.bmp	"

Why not gamble?"""""	1	risk					3	0	3	0	0	2	2	13																															1157.828357	None	1159.850354	1161.371024	1161.354328	None	1162.858279	None	2	1164.88029	None	1164.88029	None	1164.88029	None	None	None	None	None	1165.381605	None	1165.381605	None	left	1165.381605	None	1165.632262	1167.370174	None	None	0.336792384	0.211461459													104	1	18	1	2019_Dec_05_1037	Test	3.2.4	59.85106302		Pictures/IA40_20_L95p.bmp	Pictures/IA40_20_L95p.bmp	Pictures/IA40.bmp	"

Trust me"	1	risk					3	0	3	0	0	3	3	6																															1167.386872	None	1169.408871	1170.929542	1170.912843	None	1172.433507	None	2	1174.438792	None	1174.438792	None	1174.438792	None	None	None	None	None	1174.906689	None	1174.906689	None	left	1174.906689	None	1175.157345	1176.895255	None	None	0.314275773	0.206376469													104	1	18	1	2019_Dec_05_1037	Test	3.2.4	59.85106302		Pictures/IA75_G15.bmp	Pictures/IA75_G15.bmp	Pictures/IA75.bmp	"

Take a chance!"""""	1	risk					3	0	3	0	0	4	4	12																															1176.911979	None	1178.933979	1180.437933	1180.421216	None	1181.958599	None	2	1183.963884	None	1183.963884	None	1183.963884	None	None	None	None	None	1185.768643	None	1185.768643	None	left	1185.768643	None	1186.370231	1187.773934	None	None	1.645188519	0.552421899													104	1	18	1	2019_Dec_05_1037	Test	3.2.4	59.85106302		Pictures/IA20_10_L95p.bmp	Pictures/IA20_10_L95p.bmp	Pictures/IA20.bmp	"

Don't be tempted to gamble."""""	0	safe					3	0	3	0	0	5	5	1																															1187.79063	None	1189.812624	1191.333303	1191.316599	None	1192.837255	None	2	1194.842541	None	1194.842541	None	1194.842541	None	None	None	None	None	1195.861894	None	1195.861894	None	left	1195.861894	None	1196.229537	1197.867172	None	None	0.846530274	0.331166424													104	1	18	1	2019_Dec_05_1037	Test	3.2.4	59.85106302		Pictures/IA20_10_G95p.bmp	Pictures/IA20_10_G95p.bmp	Pictures/IA20.bmp	"

Take a leap"	1	risk					3	0	3	0	0	6	6	7																															1197.883894	None	1199.905889	1201.426561	1201.409807	None	1202.913814	None	2	1204.935799	None	1204.935799	None	1204.935799	None	None	None	None	None	1206.155678	None	1206.155678	None	left	1206.155678	None	1206.4899	1208.160968	None	None	1.049271306	0.293386912													104	1	18	1	2019_Dec_05_1037	Test	3.2.4	59.85106302		Pictures/IA75_L15.bmp	Pictures/IA75_L15.bmp	Pictures/IA75.bmp	"

Trust me"	1	risk					3	0	3	0	0	7	7	0																															1208.177667	None	1210.199666	1211.720334	1211.703641	None	1213.224297	None	2	1215.229584	None	1215.229584	None	1215.229584	None	None	None	None	None	1216.650005	None	1216.650005	None	left	1216.650005	None	1216.917362	1218.655273	None	None	1.259507066	0.23105905													104	1	18	1	2019_Dec_05_1037	Test	3.2.4	59.85106302		Pictures/IA100_L20.bmp	Pictures/IA100_L20.bmp	Pictures/IA100.bmp	"

Try to win as much money as you can"	1	risk					3	0	3	0	0	8	8	3																															1218.671993	None	1220.693987	1222.214659	1222.197941	None	1223.718622	None	2	1225.723908	None	1225.723908	None	1225.723908	None	None	None	None	None	1226.726538	None	1226.726538	None	left	1226.726538	None	1227.144301	1228.715118	None	None	0.829165659	0.370539331													104	1	18	1	2019_Dec_05_1037	Test	3.2.4	59.85106302		Pictures/IA50_G20.bmp	Pictures/IA50_G20.bmp	Pictures/IA50.bmp	"

Let's venture and take a risk!"""""	1	risk					3	0	3	0	0	9	9	9																															1228.731824	None	1230.753812	1232.274484	1232.257788	None	1233.878736	None	2	1235.78376	None	1235.78376	None	1235.78376	None	None	None	None	None	1236.285094	None	1236.285094	None	left	1236.285094	None	1236.736288	1238.273614	None	None	0.24932388	0.411971512													104	1	18	1	2019_Dec_05_1037	Test	3.2.4	59.85106302		Pictures/IA75_L30.bmp	Pictures/IA75_L30.bmp	Pictures/IA75.bmp	"

Hold back"	0	safe					3	0	3	0	0	10	10	17																															1238.290339	None	1240.32903	1241.832994	1241.816281	None	1243.37038	None	2	1245.342242	None	1245.342242	None	1245.342242	None	None	None	None	None	1246.328166	None	1246.328166	None	left	1246.328166	None	1246.879644	1248.316748	None	None	0.802817706	0.512899075													104	1	18	1	2019_Dec_05_1037	Test	3.2.4	59.85106302		Pictures/IA100_G40.bmp	Pictures/IA100_G40.bmp	Pictures/IA100.bmp	"

Try your luck and gamble!"""""	1	risk					3	0	3	0	0	11	11	2																															1248.333442	None	1250.37215	1251.876392	1251.859406	None	1253.413503	None	2	1255.385383	None	1255.385383	None	1255.385383	None	None	None	None	None	1256.103958	None	1256.103958	None	left	1256.103958	None	1256.488287	1258.092478	None	None	0.519684773	0.345087906													104	1	18	1	2019_Dec_05_1037	Test	3.2.4	59.85106302		Pictures/IA25_L5.bmp	Pictures/IA25_L5.bmp	Pictures/IA25.bmp	"

It would be smarter to choose the safe option."""""	0	safe					3	0	3	0	0	12	12	18																															1258.109204	None	1260.1479	1261.651869	1261.635174	None	1263.189262	None	2	1265.16111	None	1265.16111	None	1265.16111	None	None	None	None	None	1266.046785	None	1266.046785	None	left	1266.046785	None	1266.347589	1268.035353	None	None	0.711951241	0.258276401													104	1	18	1	2019_Dec_05_1037	Test	3.2.4	59.85106302		Pictures/IA80_40_G95p.bmp	Pictures/IA80_40_G95p.bmp	Pictures/IA80.bmp	"

Think of the payoff"	1	risk					3	0	3	0	0	13	13	4																															1268.052075	None	1270.090888	1271.594732	1271.578041	None	1273.132116	None	2	1275.10398	None	1275.10398	None	1275.10398	None	None	None	None	None	1275.738992	None	1275.738992	None	left	1275.738992	None	1276.08992	1277.727555	None	None	0.473097783	0.302071605													104	1	18	1	2019_Dec_05_1037	Test	3.2.4	59.85106302		Pictures/IA75_L45.bmp	Pictures/IA75_L45.bmp	Pictures/IA75.bmp	"

Don't gamble for this one"	0	safe					3	0	3	0	0	14	14	19																															1277.744273	None	1279.766272	1281.270239	1281.25352	None	1282.824321	None	2	1284.796186	None	1284.796186	None	1284.796186	None	None	None	None	None	1285.531467	None	1285.531467	None	left	1285.531467	None	1285.832245	1287.536751	None	None	0.524890345	0.261599641													104	1	18	1	2019_Dec_05_1037	Test	3.2.4	59.85106302		Pictures/IA50_G10.bmp	Pictures/IA50_G10.bmp	Pictures/IA50.bmp	"

Go with the safe option here!"""""	0	safe					3	0	3	0	0	15	15	15																															1287.553446	None	1289.57544	1291.096111	1291.079416	None	1292.633499	None	2	1294.605362	None	1294.605362	None	1294.605362	None	None	None	None	None	1295.323932	None	1295.323932	None	left	1295.323932	None	1295.658133	1297.329199	None	None	0.523713238	0.285129138													104	1	18	1	2019_Dec_05_1037	Test	3.2.4	59.85106302		Pictures/IA50_L30.bmp	Pictures/IA50_L30.bmp	Pictures/IA50.bmp	"

Take a leap"	1	risk					3	0	3	0	0	16	16	5																															1297.345923	None	1299.367921	1300.888589	1300.871872	None	1302.425973	None	2	1304.397849	None	1304.397849	None	1304.397849	None	None	None	None	None	1305.19995	None	1305.19995	None	left	1305.19995	None	1305.567575	1307.205233	None	None	0.611216898	0.321118971													104	1	18	1	2019_Dec_05_1037	Test	3.2.4	59.85106302		Pictures/IA25_G5.bmp	Pictures/IA25_G5.bmp	Pictures/IA25.bmp	"

Let's stay with the certain option."""""	0	safe					3	0	3	0	0	17	17	14																															1307.221928	None	1309.243924	1310.764592	1310.747899	None	1312.30198	None	2	1314.273843	None	1314.273843	None	1314.273843	None	None	None	None	None	1315.109396	None	1315.109396	None	left	1315.109396	None	1315.393466	1317.097946	None	None	0.663229808	0.243668966													104	1	18	1	2019_Dec_05_1037	Test	3.2.4	59.85106302		Pictures/IA100_G20.bmp	Pictures/IA100_G20.bmp	Pictures/IA100.bmp	"

Go ahead and gamble!"""""	1	risk					3	0	3	0	0	18	18	16																															1317.114673	None	1319.136665	1320.657335	1320.640615	None	1322.17801	None	2	1324.166577	None	1324.166577	None	1324.166577	None	None	None	None	None	1324.951987	None	1324.951987	None	left	1324.951987	None	1325.336328	1326.940554	None	None	0.634496146	0.345074761													104	1	18	1	2019_Dec_05_1037	Test	3.2.4	59.85106302		Pictures/IA25_G10.bmp	Pictures/IA25_G10.bmp	Pictures/IA25.bmp	"

What's life without a little risk?"""""	1	risk					3	0	3	0	0	19	19	10																															1326.957252	None	1328.97925	1330.499918	1330.483224	None	1332.037304	None	2	1334.009196	None	1334.009196	None	1334.009196	None	None	None	None	None	1334.878135	None	1334.878135	None	left	1334.878135	None	1335.128792	1336.883403	None	None	0.695863942	0.202935295													104	1	18	1	2019_Dec_05_1037	Test	3.2.4	59.85106302												3	0	3	0																																																																									1337.050526	None	return	4.006527823	1337.050526	None	104	1	18	1	2019_Dec_05_1037	Test	3.2.4	59.85106302		Pictures/IA50_G40.bmp	Pictures/IA50_G40.bmp	Pictures/IA50.bmp	"

It would probably be best to play it safe."""""	0	safe					4	0	4	0	0	0	0	18													1341.244896	None	1341.244896	None	1341.244896	None	left	2.164181442	1341.244896	None	1341.244896	None	1341.244896	None	return	2.907943738	1341.244896	None	1344.202696	None	1346.224679	1347.745351	1347.728655	None	1349.26604	None	2	1351.237901	None	1351.237901	None	1351.237901	None	None	None	None	None	1351.989882	None	1351.989882	None	left	1351.989882	None	1352.340803	1353.978442	None	None	0.547165371	0.307184056													104	1	18	1	2019_Dec_05_1037	Test	3.2.4	59.85106302		Pictures/IA100_G20.bmp	Pictures/IA100_G20.bmp	Pictures/IA100.bmp	"

Go ahead and gamble!"""""	1	risk					4	0	4	0	0	1	1	3																															1353.995161	None	1356.017166	1357.537827	1357.521124	None	1359.02511	None	2	1361.047065	None	1361.047065	None	1361.047065	None	None	None	None	None	1361.999591	None	1361.999591	None	left	1361.999591	None	1362.266942	1364.004857	None	None	0.7940067	0.233482718													104	1	18	1	2019_Dec_05_1037	Test	3.2.4	59.85106302		Pictures/IA50_G10.bmp	Pictures/IA50_G10.bmp	Pictures/IA50.bmp	"

Go with the safe option here!"""""	0	safe					4	0	4	0	0	2	2	19																															1364.021575	None	1366.04357	1367.564241	1367.547523	None	1369.051494	None	2	1371.073479	None	1371.073479	None	1371.073479	None	None	None	None	None	1372.059413	None	1372.059413	None	left	1372.059413	None	1372.376913	1374.047977	None	None	0.80759957	0.277646334													104	1	18	1	2019_Dec_05_1037	Test	3.2.4	59.85106302		Pictures/IA25_G20.bmp	Pictures/IA25_G20.bmp	Pictures/IA25.bmp	"

I wouldn't gamble for this one. """""	0	safe					4	0	4	0	0	3	3	1																															1374.064699	None	1376.086694	1377.607365	1377.590647	None	1379.14475	None	2	1381.11662	None	1381.11662	None	1381.11662	None	None	None	None	None	1381.551057	None	1381.551057	None	left	1381.551057	None	1381.885291	1383.556361	None	None	0.236461143	0.290007572													104	1	18	1	2019_Dec_05_1037	Test	3.2.4	59.85106302		Pictures/IA100_L60.bmp	Pictures/IA100_L60.bmp	Pictures/IA100.bmp	"

You'd have a lot to lose"	0	safe					4	0	4	0	0	4	4	5																															1383.573082	None	1385.595079	1387.115747	1387.09903	None	1388.653136	None	2	1390.624995	None	1390.624995	None	1390.624995	None	None	None	None	None	1391.376976	None	1391.376976	None	left	1391.376976	None	1391.661056	1393.365534	None	None	0.576076391	0.240087971													104	1	18	1	2019_Dec_05_1037	Test	3.2.4	59.85106302		Pictures/IA25_G15.bmp	Pictures/IA25_G15.bmp	Pictures/IA25.bmp	"

I think you should take a gamble."""""	1	risk					4	0	4	0	0	5	5	8																															1393.382262	None	1395.404258	1396.924924	1396.908206	None	1398.462309	None	2	1400.434168	None	1400.434168	None	1400.434168	None	None	None	None	None	1401.687475	None	1401.687475	None	right	1401.687475	None	None	None	1402.32249	1403.67603	1.046921886	0.593599651													104	1	18	1	2019_Dec_05_1037	Test	3.2.4	59.85106302		Pictures/IA20_10_L95p.bmp	Pictures/IA20_10_L95p.bmp	Pictures/IA20.bmp	"

Don't be tempted to gamble."""""	0	safe					4	0	4	0	0	6	6	4																															1403.692753	None	1405.731464	1407.252133	1407.235413	None	1408.739371	None	2	1410.744659	None	1410.744659	None	1410.744659	None	None	None	None	None	1412.165075	None	1412.165075	None	left	1412.165075	None	1412.883638	1414.153645	None	None	1.232407021	0.675991007													104	1	18	1	2019_Dec_05_1037	Test	3.2.4	59.85106302		Pictures/IA75_L30.bmp	Pictures/IA75_L30.bmp	Pictures/IA75.bmp	"

Hold back"	0	safe					4	0	4	0	0	7	7	9																															1414.170345	None	1416.192342	1417.71301	1417.696319	None	1419.216975	None	2	1421.222261	None	1421.222261	None	1421.222261	None	None	None	None	None	1421.422799	None	1421.422799	None	left	1421.422799	None	1422.074512	1423.411384	None	None	0.01881687	0.61026905													104	1	18	1	2019_Dec_05_1037	Test	3.2.4	59.85106302		Pictures/IA100_G80.bmp	Pictures/IA100_G80.bmp	Pictures/IA100.bmp	"

Why not gamble?"""""	1	risk					4	0	4	0	0	8	8	2																															1423.428068	None	1425.450074	1426.970911	1426.954038	None	1428.524829	None	1	1430.479994	None	1430.479994	None	1430.479994	None	1431.198544	None	1431.198544	1432.201178	1433.337507	None	1433.337507	None	right	1433.337507	None	None	None	1433.788695	1435.326078	0.633079269	0.407571131													104	1	18	1	2019_Dec_05_1037	Test	3.2.4	59.85106302		Pictures/IA25_G10.bmp	Pictures/IA25_G10.bmp	Pictures/IA25.bmp	"

What's life without a little risk?"""""	1	risk					4	0	4	0	0	9	9	6																															1435.342801	None	1437.364795	1438.885465	1438.868747	None	1440.389433	None	1	1442.394723	None	1442.394723	None	1442.394723	None	1443.180118	None	1443.180118	1444.182757	1445.31909	None	1445.31909	None	left	1445.31909	None	1446.104485	1447.307653	None	None	0.670349184	0.737981526													104	1	18	1	2019_Dec_05_1037	Test	3.2.4	59.85106302		Pictures/IA75_L60.bmp	Pictures/IA75_L60.bmp	Pictures/IA75.bmp	"

Why not take the gamble?"""""	1	risk					4	0	4	0	0	10	10	15																															1447.324352	None	1449.346348	1450.86702	1450.850324	None	1452.404417	None	1	1454.376272	None	1454.376272	None	1454.376272	None	1455.09483	None	1455.09483	1456.097464	1457.200375	None	1457.200375	None	None	1457.200375	None	None	None	None	None	0.608800653														104	1	18	1	2019_Dec_05_1037	Test	3.2.4	59.85106302		Pictures/IA75_G30.bmp	Pictures/IA75_G30.bmp	Pictures/IA75.bmp	"

Be bold"	1	risk					4	0	4	0	0	11	11	16																															1459.205657	None	1461.227651	1462.748321	1462.731625	None	1464.285705	None	2	1466.257568	None	1466.257568	None	1466.257568	None	None	None	None	None	1467.159948	None	1467.159948	None	None	1467.159948	None	None	None	None	None	0.743503862														104	1	18	1	2019_Dec_05_1037	Test	3.2.4	59.85106302		Pictures/IA75_L45.bmp	Pictures/IA75_L45.bmp	Pictures/IA75.bmp	"

Don't gamble for this one"	0	safe					4	0	4	0	0	12	12	14																															1469.165224	None	1471.187224	1472.70789	1472.691196	None	1474.195146	None	1	1476.217151	None	1476.217151	None	1476.217151	None	1477.203081	None	1477.203081	1478.205717	1479.308634	None	1479.308634	None	left	1479.308634	None	1479.676248	1481.297197	None	None	0.847917016	0.332424939													104	1	18	1	2019_Dec_05_1037	Test	3.2.4	59.85106302		Pictures/IA75_G60.bmp	Pictures/IA75_G60.bmp	Pictures/IA75.bmp	"

Make it exciting"	1	risk					4	0	4	0	0	13	13	17																															1481.313896	None	1483.335888	1484.856562	1484.839867	None	1486.393955	None	2	1488.365812	None	1488.365812	None	1488.365812	None	None	None	None	None	1491.373745	None	1491.373745	None	left	1491.373745	None	1491.875051	1493.379025	None	None	2.827265381	0.459322342													104	1	18	1	2019_Dec_05_1037	Test	3.2.4	59.85106302		Pictures/IA25_L20.bmp	Pictures/IA25_L20.bmp	Pictures/IA25.bmp	"

Don't be tempted to gamble."""""	0	safe					4	0	4	0	0	14	14	13																															1493.395738	None	1495.417721	1496.921691	1496.904973	None	1498.475774	None	1	1500.447641	None	1500.447641	None	1500.447641	None	1501.199631	None	1501.199631	1502.202274	1503.338601	None	1503.338601	None	left	1503.338601	None	1503.739642	1505.343868	None	None	0.633435388	0.358463792													104	1	18	1	2019_Dec_05_1037	Test	3.2.4	59.85106302		Pictures/IA75_G15.bmp	Pictures/IA75_G15.bmp	Pictures/IA75.bmp	"

Take a chance!"""""	1	risk					4	0	4	0	0	15	15	12																															1505.360588	None	1507.382589	1508.903258	1508.886542	None	1510.440641	None	1	1512.412504	None	1512.412504	None	1512.412504	None	1513.548831	None	1513.548831	1514.551472	1515.654384	None	1515.654384	None	left	1515.654384	None	1515.82147	1517.659663	None	None	1.036566428	0.130678082													104	1	18	1	2019_Dec_05_1037	Test	3.2.4	59.85106302		Pictures/IA25_L5.bmp	Pictures/IA25_L5.bmp	Pictures/IA25.bmp	"

It would be smarter to choose the safe option."""""	0	safe					4	0	4	0	0	16	16	11																															1517.676357	None	1519.698352	1521.202324	1521.185605	None	1522.722988	None	2	1524.728271	None	1524.728271	None	1524.728271	None	None	None	None	None	1527.101201	None	1527.101201	None	left	1527.101201	None	1527.686077	1529.089769	None	None	2.200799706	0.547864245													104	1	18	1	2019_Dec_05_1037	Test	3.2.4	59.85106302		Pictures/IA110_55_G95p.bmp	Pictures/IA110_55_G95p.bmp	Pictures/IA110.bmp	"

Take a chance!"""""	1	risk					4	0	4	0	0	17	17	0																															1529.10647	None	1531.145186	1532.66585	1532.649151	None	1534.186533	None	2	1536.1584	None	1536.1584	None	1536.1584	None	None	None	None	None	1537.060762	None	1537.060762	None	left	1537.060762	None	1538.614852	None	None	None	0.730672028	1.516295829													104	1	18	1	2019_Dec_05_1037	Test	3.2.4	59.85106302		Pictures/IA40_20_L95p.bmp	Pictures/IA40_20_L95p.bmp	Pictures/IA40.bmp	"

Trust me"	1	risk					4	0	4	0	0	18	18	7																															1539.066045	None	1541.104745	1542.625421	1542.608722	None	1544.162817	None	2	1546.117955	None	1546.117955	None	1546.117955	None	None	None	None	None	1547.254283	None	1547.254283	None	None	1547.254283	None	None	None	None	None	0.97112228														104	1	18	1	2019_Dec_05_1037	Test	3.2.4	59.85106302		Pictures/IA25_L15.bmp	Pictures/IA25_L15.bmp	Pictures/IA25.bmp	"

There's not much on the line here"	1	risk					4	0	4	0	0	19	19	10																															1549.259559	None	1551.281553	1552.802226	1552.785531	None	1554.339614	None	1	1556.311481	None	1556.311481	None	1556.311481	None	1556.96319	None	1556.96319	1557.965829	1559.06874	None	1559.06874	None	right	1559.06874	None	None	None	1559.65361	1561.057319	0.513585138	0.548322036													104	1	18	1	2019_Dec_05_1037	Test	3.2.4	59.85106302												4	0	4	0																																																																									1561.224419	None	return	2.488633659	1561.224419	None	104	1	18	1	2019_Dec_05_1037	Test	3.2.4	59.85106302		Pictures/IA100_G80.bmp	Pictures/IA100_G80.bmp	Pictures/IA100.bmp	"

Why not gamble?"""""	1	risk					5	0	5	0	0	0	0	16													1563.881418	None	1563.881418	None	1563.881418	None	left	2.103646331	1563.881418	None	1563.881418	None	1563.881418	None	return	3.063500233	1563.881418	None	1566.989613	None	1568.994886	1570.515558	1570.498863	None	1572.002811	None	2	1574.02482	None	1574.02482	None	1574.02482	None	None	None	None	None	1575.044159	None	1575.044159	None	left	1575.044159	None	1575.762717	1577.049449	None	None	0.856256506	0.684903772													104	1	18	1	2019_Dec_05_1037	Test	3.2.4	59.85106302		Pictures/IA25_L10.bmp	Pictures/IA25_L10.bmp	Pictures/IA25.bmp	"

Dont be afraid to take the risk!"""""	1	risk					5	0	5	0	0	1	1	11																															1577.066156	None	1579.08815	1580.608817	1580.592119	None	1582.146199	None	2	1584.118067	None	1584.118067	None	1584.118067	None	None	None	None	None	1584.936898	None	1584.936898	None	left	1584.936898	None	1585.271097	1586.942165	None	None	0.659007875	0.288179801													104	1	18	1	2019_Dec_05_1037	Test	3.2.4	59.85106302		Pictures/IA75_G30.bmp	Pictures/IA75_G30.bmp	Pictures/IA75.bmp	"

Be bold"	1	risk					5	0	5	0	0	2	2	10																															1586.958888	None	1588.980883	1590.501553	1590.484836	None	1592.005519	None	1	1594.010804	None	1594.010804	None	1594.010804	None	1594.896461	None	1594.896461	1595.899095	1597.002005	None	1597.002005	None	left	1597.002005	None	1597.403081	1599.007295	None	None	0.798266832	0.351043858													104	1	18	1	2019_Dec_05_1037	Test	3.2.4	59.85106302		Pictures/IA25_G20.bmp	Pictures/IA25_G20.bmp	Pictures/IA25.bmp	"

I wouldn't gamble for this one. """""	0	safe					5	0	5	0	0	3	3	18																															1599.023994	None	1601.04599	1602.56666	1602.549964	None	1604.120759	None	2	1606.075921	None	1606.075921	None	1606.075921	None	None	None	None	None	1607.078548	None	1607.078548	None	right	1607.078548	None	None	None	1607.24567	1609.083829	0.821149947	0.12252112													104	1	18	1	2019_Dec_05_1037	Test	3.2.4	59.85106302		Pictures/IA75_G45.bmp	Pictures/IA75_G45.bmp	Pictures/IA75.bmp	"

Don't gamble for this one."""""	0	safe					5	0	5	0	0	4	4	4																															1609.100551	None	1611.122545	1612.643219	1612.6265	None	1614.180603	None	1	1616.152467	None	1616.152467	None	1616.152467	None	1616.904448	None	1616.904448	1617.907085	1619.009995	None	1619.009995	None	right	1619.009995	None	None	None	1619.644987	1621.015276	0.640609208	0.591081713													104	1	18	1	2019_Dec_05_1037	Test	3.2.4	59.85106302		Pictures/IA100_L40.bmp	Pictures/IA100_L40.bmp	Pictures/IA100.bmp	"

Think of the payoff"	1	risk					5	0	5	0	0	5	5	17																															1621.031973	None	1623.053968	1624.574639	1624.557944	None	1626.112032	None	1	1628.083888	None	1628.083888	None	1628.083888	None	1628.769038	None	1628.769038	1629.771675	1630.874586	None	1630.874586	None	right	1630.874586	None	None	None	1631.258929	1632.863152	0.565184952	0.342483686													104	1	18	1	2019_Dec_05_1037	Test	3.2.4	59.85106302		Pictures/IA75_G60.bmp	Pictures/IA75_G60.bmp	Pictures/IA75.bmp	"

Make it exciting"	1	risk					5	0	5	0	0	6	6	13																															1632.879854	None	1634.901852	1636.422519	1636.405831	None	1637.909771	None	2	1639.931766	None	1639.931766	None	1639.931766	None	None	None	None	None	1640.95112	None	1640.95112	None	left	1640.95112	None	1641.235202	1642.939697	None	None	0.845308923	0.241961719													104	1	18	1	2019_Dec_05_1037	Test	3.2.4	59.85106302		Pictures/IA50_L20.bmp	Pictures/IA50_L20.bmp	Pictures/IA50.bmp	"

Certainty is boring"	1	risk					5	0	5	0	0	7	7	15																															1642.956398	None	1644.978394	1646.499069	1646.482369	None	1648.036449	None	2	1650.008318	None	1650.008318	None	1650.008318	None	None	None	None	None	1650.49294	None	1650.49294	None	left	1650.49294	None	1650.626605	1652.498201	None	None	0.320755473	0.100127814													104	1	18	1	2019_Dec_05_1037	Test	3.2.4	59.85106302		Pictures/IA50_L10.bmp	Pictures/IA50_L10.bmp	Pictures/IA50.bmp	"

Play it safe"	0	safe					5	0	5	0	0	8	8	0																															1652.514929	None	1654.536918	1656.057591	1656.040871	None	1657.594978	None	1	1659.56684	None	1659.56684	None	1659.56684	None	1659.951173	None	1659.951173	1660.953809	1662.056721	None	1662.056721	None	right	1662.056721	None	None	None	1662.307377	1664.045291	0.266230879	0.216336802													104	1	18	1	2019_Dec_05_1037	Test	3.2.4	59.85106302		Pictures/IA100_L20.bmp	Pictures/IA100_L20.bmp	Pictures/IA100.bmp	"

Try to win as much money as you can"	1	risk					5	0	5	0	0	9	9	9																															1664.06201	None	1666.084005	1667.60468	1667.587963	None	1669.142065	None	2	1671.113925	None	1671.113925	None	1671.113925	None	None	None	None	None	1672.467482	None	1672.467482	None	right	1672.467482	None	None	None	1673.403299	1674.472771	1.159147954	0.893583135													104	1	18	1	2019_Dec_05_1037	Test	3.2.4	59.85106302		Pictures/IA40_20_L95p.bmp	Pictures/IA40_20_L95p.bmp	Pictures/IA40.bmp	"

Trust me"	1	risk					5	0	5	0	0	10	10	7																															1674.489469	None	1676.528139	1678.048851	1678.032152	None	1679.519399	None	1	1681.541385	None	1681.541385	None	1681.541385	None	1682.059434	None	1682.059434	1683.062067	1684.164978	None	1684.164978	None	right	1684.164978	None	None	None	1685.434972	None	0.427694632	1.228098101													104	1	18	1	2019_Dec_05_1037	Test	3.2.4	59.85106302		Pictures/IA100_G60.bmp	Pictures/IA100_G60.bmp	Pictures/IA100.bmp	"

Be cautious"	0	safe					5	0	5	0	0	11	11	3																															1686.186964	None	1688.208975	1689.72963	1689.71291	None	1691.267017	None	2	1693.238882	None	1693.238882	None	1693.238882	None	None	None	None	None	1693.606503	None	1693.606503	None	left	1693.606503	None	1693.873888	1695.611791	None	None	0.194192241	0.226568898													104	1	18	1	2019_Dec_05_1037	Test	3.2.4	59.85106302		Pictures/IA100_G40.bmp	Pictures/IA100_G40.bmp	Pictures/IA100.bmp	"

Try your luck and gamble!"""""	1	risk					5	0	5	0	0	12	12	1																															1695.628497	None	1697.650488	1699.171163	1699.154463	None	1700.691835	None	1	1702.680419	None	1702.680419	None	1702.680419	None	1702.880935	None	1702.880935	1703.883571	1704.986484	None	1704.986484	None	left	1704.986484	None	1705.103455	1706.97505	None	None	0.088667321	0.070580298													104	1	18	1	2019_Dec_05_1037	Test	3.2.4	59.85106302		Pictures/IA25_G10.bmp	Pictures/IA25_G10.bmp	Pictures/IA25.bmp	"

What's life without a little risk?"""""	1	risk					5	0	5	0	0	13	13	2																															1706.991774	None	1709.013768	1710.534439	1710.51772	None	1712.055114	None	2	1714.043677	None	1714.043677	None	1714.043677	None	None	None	None	None	1714.712113	None	1714.712113	None	left	1714.712113	None	1715.815004	None	None	None	0.501402475	1.064944859													104	1	18	1	2019_Dec_05_1037	Test	3.2.4	59.85106302		Pictures/IA100_L60.bmp	Pictures/IA100_L60.bmp	Pictures/IA100.bmp	"

You'd have a lot to lose"	0	safe					5	0	5	0	0	14	14	14																															1716.734093	None	1718.756091	1720.276758	1720.260065	None	1721.797436	None	1	1723.78602	None	1723.78602	None	1723.78602	None	1724.705109	None	1724.705109	1725.707742	1726.810657	None	1726.810657	None	left	1726.810657	None	1728.047231	None	None	None	0.775059734	1.19041024													104	1	18	1	2019_Dec_05_1037	Test	3.2.4	59.85106302		Pictures/IA75_L30.bmp	Pictures/IA75_L30.bmp	Pictures/IA75.bmp	"

Hold back"	0	safe					5	0	5	0	0	15	15	19																															1728.832633	None	1730.854628	1732.375299	1732.358604	None	1733.879262	None	2	1735.884548	None	1735.884548	None	1735.884548	None	None	None	None	None	1736.987466	None	1736.987466	None	left	1736.987466	None	1737.956671	1738.992741	None	None	0.932522709	0.933597647													104	1	18	1	2019_Dec_05_1037	Test	3.2.4	59.85106302		Pictures/IA25_G5.bmp	Pictures/IA25_G5.bmp	Pictures/IA25.bmp	"

Let's stay with the certain option."""""	0	safe					5	0	5	0	0	16	16	8																															1739.009445	None	1741.031452	1742.552109	1742.535413	None	1744.056073	None	1	1746.061376	None	1746.061376	None	1746.061376	None	1747.314658	None	1747.314658	1748.317294	1749.420207	None	1749.420207	None	None	1749.420207	None	None	None	None	None	1.107692917														104	1	18	1	2019_Dec_05_1037	Test	3.2.4	59.85106302		Pictures/IA50_G20.bmp	Pictures/IA50_G20.bmp	Pictures/IA50.bmp	"

Let's venture and take a risk!"""""	1	risk					5	0	5	0	0	17	17	5																															1751.425486	None	1753.447478	1754.968151	1754.951455	None	1756.472115	None	1	1758.477401	None	1758.477401	None	1758.477401	None	1759.262801	None	1759.262801	1760.26544	1761.368351	None	1761.368351	None	left	1761.368351	None	1762.905743	None	None	None	0.683663912	1.488716237													104	1	18	1	2019_Dec_05_1037	Test	3.2.4	59.85106302		Pictures/IA25_L20.bmp	Pictures/IA25_L20.bmp	Pictures/IA25.bmp	"

Don't be tempted to gamble."""""	0	safe					5	0	5	0	0	18	18	6																															1763.390339	None	1765.412333	1766.933016	1766.916309	None	1768.453686	None	2	1770.442265	None	1770.442265	None	1770.442265	None	None	None	None	None	1771.110693	None	1771.110693	None	left	1771.110693	None	1771.762408	1773.099263	None	None	0.478806648	0.602368898													104	1	18	1	2019_Dec_05_1037	Test	3.2.4	59.85106302		Pictures/IA75_G15.bmp	Pictures/IA75_G15.bmp	Pictures/IA75.bmp	"

Take a chance!"""""	1	risk					5	0	5	0	0	19	19	12																															1773.115961	None	1775.137959	1776.658626	1776.641931	None	1778.162591	None	2	1780.167875	None	1780.167875	None	1780.167875	None	None	None	None	None	1780.91987	None	1780.91987	None	left	1780.91987	None	1782.072906	None	None	None	0.585205514	1.105197519													104	1	18	1	2019_Dec_05_1037	Test	3.2.4	59.85106302												5	0	5	0																																																																									1783.075548	None	return	4.085506186	1783.075548	None	104	1	18	1	2019_Dec_05_1037	Test	3.2.4	59.85106302		Pictures/IA100_G80.bmp	Pictures/IA100_G80.bmp	Pictures/IA100.bmp	"

Why not gamble?"""""	1	risk					6	0	6	0	0	0	0	14													1787.336772	None	1787.336772	None	1787.336772	None	left	1.544293077	1787.336772	None	1787.336772	None	1787.336772	None	return	2.552071131	1787.336772	None	1789.926929	None	1791.9322	1793.45287	1793.436177	None	1794.956833	None	1	1796.962118	None	1796.962118	None	1796.962118	None	1797.630544	None	1797.630544	1798.633181	1799.736094	None	1799.736094	None	right	1799.736094	None	None	None	1800.621755	1801.724674	0.582954274	0.848968204													104	1	18	1	2019_Dec_05_1037	Test	3.2.4	59.85106302		Pictures/IA50_L30.bmp	Pictures/IA50_L30.bmp	Pictures/IA50.bmp	"

Take a leap"	1	risk					6	0	6	0	0	1	1	13																															1801.741374	None	1803.76337	1805.284037	1805.267342	None	1806.788005	None	1	1808.793289	None	1808.793289	None	1808.793289	None	1809.645546	None	1809.645546	1810.648179	1811.784514	None	1811.784514	None	left	1811.784514	None	1813.138075	None	None	None	0.71977972	1.31254821													104	1	18	1	2019_Dec_05_1037	Test	3.2.4	59.85106302		Pictures/IA50_G30.bmp	Pictures/IA50_G30.bmp	Pictures/IA50.bmp	"

I think you should gamble."""""	1	risk					6	0	6	0	0	2	2	15																															1813.789789	None	1815.811785	1817.33246	1817.315739	None	1818.86984	None	1	1820.841706	None	1820.841706	None	1820.841706	None	1822.529488	None	1822.529488	1823.532124	1824.63503	None	1824.63503	None	right	1824.63503	None	None	None	1825.236607	1826.640301	1.575371269	0.558034367													104	1	18	1	2019_Dec_05_1037	Test	3.2.4	59.85106302		Pictures/IA75_L30.bmp	Pictures/IA75_L30.bmp	Pictures/IA75.bmp	"

Hold back"	0	safe					6	0	6	0	0	3	3	9																															1826.657022	None	1828.679019	1830.199686	1830.182973	None	1831.703651	None	1	1833.708938	None	1833.708938	None	1833.708938	None	1834.427497	None	1834.427497	1835.430128	1836.549756	None	1836.549756	None	left	1836.549756	None	1836.900638	1838.53831	None	None	0.58013557	0.315305823													104	1	18	1	2019_Dec_05_1037	Test	3.2.4	59.85106302		Pictures/IA110_55_G95p.bmp	Pictures/IA110_55_G95p.bmp	Pictures/IA110.bmp	"

Take a chance!"""""	1	risk					6	0	6	0	0	4	4	6																															1838.555032	None	1840.593739	1842.097684	1842.080991	None	1843.601648	None	2	1845.606937	None	1845.606937	None	1845.606937	None	None	None	None	None	1846.292088	None	1846.292088	None	None	1846.292088	None	None	None	None	None	0.530134608														104	1	18	1	2019_Dec_05_1037	Test	3.2.4	59.85106302		Pictures/IA80_40_G95p.bmp	Pictures/IA80_40_G95p.bmp	Pictures/IA80.bmp	"

Think of the payoff"	1	risk					6	0	6	0	0	5	5	8																															1848.297366	None	1850.336065	1851.856741	1851.840023	None	1853.343982	None	2	1855.349269	None	1855.349269	None	1855.349269	None	None	None	None	None	1856.368632	None	1856.368632	None	right	1856.368632	None	None	None	1856.986923	1858.357187	0.859803589	0.584434219													104	1	18	1	2019_Dec_05_1037	Test	3.2.4	59.85106302		Pictures/IA75_L45.bmp	Pictures/IA75_L45.bmp	Pictures/IA75.bmp	"

Don't gamble for this one"	0	safe					6	0	6	0	0	6	6	18																															1858.373913	None	1860.395926	1861.916539	1861.89986	None	1863.42054	None	2	1865.425825	None	1865.425825	None	1865.425825	None	None	None	None	None	1866.879622	None	1866.879622	None	None	1866.879622	None	None	None	None	None	1.271251331														104	1	18	1	2019_Dec_05_1037	Test	3.2.4	59.85106302		Pictures/IA25_L5.bmp	Pictures/IA25_L5.bmp	Pictures/IA25.bmp	"

It would be smarter to choose the safe option."""""	0	safe					6	0	6	0	0	7	7	3																															1868.884936	None	1870.906927	1872.427602	1872.410897	None	1873.948277	None	2	1875.936843	None	1875.936843	None	1875.936843	None	None	None	None	None	1876.922734	None	1876.922734	None	left	1876.922734	None	1877.858578	1878.928058	None	None	0.808232659	0.886335256													104	1	18	1	2019_Dec_05_1037	Test	3.2.4	59.85106302		Pictures/IA75_L60.bmp	Pictures/IA75_L60.bmp	Pictures/IA75.bmp	"

Why not take the gamble?"""""	1	risk					6	0	6	0	0	8	8	12																															1878.944755	None	1880.966753	1882.470726	1882.454006	None	1883.991387	None	2	1885.996676	None	1885.996676	None	1885.996676	None	None	None	None	None	1886.848919	None	1886.848919	None	right	1886.848919	None	None	None	1888.653682	None	0.68439791	1.768139735													104	1	18	1	2019_Dec_05_1037	Test	3.2.4	59.85106302		Pictures/IA25_L20.bmp	Pictures/IA25_L20.bmp	Pictures/IA25.bmp	"

Don't be tempted to gamble."""""	0	safe					6	0	6	0	0	9	9	4																															1888.870909	None	1890.892935	1892.41359	1892.39688	None	1893.917548	None	2	1895.922836	None	1895.922836	None	1895.922836	None	None	None	None	None	1897.242981	None	1897.242981	None	left	1897.242981	None	1898.162062	1899.231545	None	None	1.150237339	0.878081684													104	1	18	1	2019_Dec_05_1037	Test	3.2.4	59.85106302		Pictures/IA100_G40.bmp	Pictures/IA100_G40.bmp	Pictures/IA100.bmp	"

Try your luck and gamble!"""""	1	risk					6	0	6	0	0	10	10	1																															1899.248247	None	1901.270242	1902.790913	1902.774216	None	1904.278164	None	2	1906.300175	None	1906.300175	None	1906.300175	None	None	None	None	None	1907.586896	None	1907.586896	None	left	1907.586896	None	1907.971241	1909.575462	None	None	1.108908253	0.34217045													104	1	18	1	2019_Dec_05_1037	Test	3.2.4	59.85106302		Pictures/IA50_G40.bmp	Pictures/IA50_G40.bmp	Pictures/IA50.bmp	"

It would probably be best to play it safe."""""	0	safe					6	0	6	0	0	11	11	7																															1909.592162	None	1911.614161	1913.134829	1913.118134	None	1914.655502	None	2	1916.644089	None	1916.644089	None	1916.644089	None	None	None	None	None	1917.396088	None	1917.396088	None	right	1917.396088	None	None	None	1917.730273	1919.401352	0.580976548	0.292975102													104	1	18	1	2019_Dec_05_1037	Test	3.2.4	59.85106302		Pictures/IA100_L60.bmp	Pictures/IA100_L60.bmp	Pictures/IA100.bmp	"

You'd have a lot to lose"	0	safe					6	0	6	0	0	12	12	19																															1919.418061	None	1921.440056	1922.960726	1922.94401	None	1924.447979	None	1	1926.469959	None	1926.469959	None	1926.469959	None	1927.238667	None	1927.238667	1928.241305	1929.344215	None	1929.344215	None	right	1929.344215	None	None	None	1929.427765	1931.34949	0.627122579	0.048840964													104	1	18	1	2019_Dec_05_1037	Test	3.2.4	59.85106302		Pictures/IA110_55_L95p.bmp	Pictures/IA110_55_L95p.bmp	Pictures/IA110.bmp	"

Trust me"	1	risk					6	0	6	0	0	13	13	17																															1931.366192	None	1933.388186	1934.908857	1934.892164	None	1936.446244	None	2	1938.41811	None	1938.41811	None	1938.41811	None	None	None	None	None	1939.521012	None	1939.521012	None	right	1939.521012	None	None	None	1940.156029	1941.526336	0.942959575	0.600053205													104	1	18	1	2019_Dec_05_1037	Test	3.2.4	59.85106302		Pictures/IA25_G10.bmp	Pictures/IA25_G10.bmp	Pictures/IA25.bmp	"

What's life without a little risk?"""""	1	risk					6	0	6	0	0	14	14	10																															1941.543034	None	1943.564995	1945.085667	1945.068972	None	1946.60634	None	2	1948.594928	None	1948.594928	None	1948.594928	None	None	None	None	None	1949.514018	None	1949.514018	None	left	1949.514018	None	1949.91506	1951.502571	None	None	0.742153135	0.367047018													104	1	18	1	2019_Dec_05_1037	Test	3.2.4	59.85106302		Pictures/IA40_20_L95p.bmp	Pictures/IA40_20_L95p.bmp	Pictures/IA40.bmp	"

Trust me"	1	risk					6	0	6	0	0	15	15	16																															1951.519294	None	1953.541291	1955.061961	1955.045246	None	1956.582646	None	2	1958.571199	None	1958.571199	None	1958.571199	None	None	None	None	None	1959.139364	None	1959.139364	None	right	1959.139364	None	None	None	1959.874642	1961.127939	0.413884212	0.68570093													104	1	18	1	2019_Dec_05_1037	Test	3.2.4	59.85106302		Pictures/IA25_L15.bmp	Pictures/IA25_L15.bmp	Pictures/IA25.bmp	"

There's not much on the line here"	1	risk					6	0	6	0	0	16	16	11																															1961.144639	None	1963.166634	1964.687313	1964.670614	None	1966.241412	None	1	1968.196566	None	1968.196566	None	1968.196566	None	1969.984598	None	1969.984598	1970.98724	1972.090148	None	1972.090148	None	left	1972.090148	None	1972.374225	1974.078758	None	None	1.628505357	0.246915262													104	1	18	1	2019_Dec_05_1037	Test	3.2.4	59.85106302		Pictures/IA75_G60.bmp	Pictures/IA75_G60.bmp	Pictures/IA75.bmp	"

Make it exciting"	1	risk					6	0	6	0	0	17	17	2																															1974.095429	None	1976.11742	1977.638096	1977.621395	None	1979.142054	None	2	1981.14734	None	1981.14734	None	1981.14734	None	None	None	None	None	1982.317088	None	1982.317088	None	right	1982.317088	None	None	None	1982.868537	1984.305665	0.981731428	0.507978241													104	1	18	1	2019_Dec_05_1037	Test	3.2.4	59.85106302		Pictures/IA40_20_G95p.bmp	Pictures/IA40_20_G95p.bmp	Pictures/IA40.bmp	"

Hold back"	0	safe					6	0	6	0	0	18	18	5																															1984.322367	None	1986.344363	1987.865033	1987.848338	None	1989.402429	None	2	1991.374288	None	1991.374288	None	1991.374288	None	None	None	None	None	1992.29337	None	1992.29337	None	left	1992.29337	None	1992.610869	1994.281937	None	None	0.746774694	0.275698396													104	1	18	1	2019_Dec_05_1037	Test	3.2.4	59.85106302		Pictures/IA100_G60.bmp	Pictures/IA100_G60.bmp	Pictures/IA100.bmp	"

Be cautious"	0	safe					6	0	6	0	0	19	19	0																															1994.298661	None	1996.320655	1997.841329	1997.824606	None	1999.345294	None	2	2001.350579	None	2001.350579	None	2001.350579	None	None	None	None	None	2002.386638	None	2002.386638	None	left	2002.386638	None	2002.704138	2004.375205	None	None	0.84249545	0.2704245													104	1	18	1	2019_Dec_05_1037	Test	3.2.4	59.85106302												6	0	6	0																																																																									2004.54231	None	return	8.394738848	2004.54231	None	104	1	18	1	2019_Dec_05_1037	Test	3.2.4	59.85106302		Pictures/IA50_G40.bmp	Pictures/IA50_G40.bmp	Pictures/IA50.bmp	"

It would probably be best to play it safe."""""	0	safe					7	0	7	0	0	0	0	1													2013.098183	None	2013.098183	None	2013.098183	None	left	7.246888961	2013.098183	None	2013.098183	None	2013.098183	None	return	7.710755322	2013.098183	None	2020.868658	None	2022.87393	2024.377931	2024.361208	None	2025.881917	None	2	2027.887169	None	2027.887169	None	2027.887169	None	None	None	None	None	2029.42455	None	2029.42455	None	left	2029.42455	None	2030.026117	2031.429862	None	None	1.32993262	0.560514971													104	1	18	1	2019_Dec_05_1037	Test	3.2.4	59.85106302		Pictures/IA40_20_G95p.bmp	Pictures/IA40_20_G95p.bmp	Pictures/IA40.bmp	"

Hold back"	0	safe					7	0	7	0	0	1	1	15																															2031.446571	None	2033.468505	2034.989178	2034.972482	None	2036.509858	None	1	2038.49844	None	2038.49844	None	2038.49844	None	2039.835301	None	2039.835301	2040.837931	2041.940842	None	2041.940842	None	left	2041.940842	None	2042.609255	2043.946107	None	None	1.206631882	0.620224648													104	1	18	1	2019_Dec_05_1037	Test	3.2.4	59.85106302		Pictures/IA75_L60.bmp	Pictures/IA75_L60.bmp	Pictures/IA75.bmp	"

Why not take the gamble?"""""	1	risk					7	0	7	0	0	2	2	11																															2043.962831	None	2045.984825	2047.505494	2047.488781	None	2048.992753	None	2	2051.014739	None	2051.014739	None	2051.014739	None	None	None	None	None	2051.950545	None	2051.950545	None	left	2051.950545	None	2052.385009	2053.955822	None	None	0.762351838	0.394520553													104	1	18	1	2019_Dec_05_1037	Test	3.2.4	59.85106302		Pictures/IA80_40_G95p.bmp	Pictures/IA80_40_G95p.bmp	Pictures/IA80.bmp	"

Think of the payoff"	1	risk					7	0	7	0	0	3	3	19																															2053.972522	None	2055.994516	2057.515188	2057.498494	None	2059.002443	None	2	2061.024448	None	2061.024448	None	2061.024448	None	None	None	None	None	2061.793142	None	2061.793142	None	left	2061.793142	None	2062.261025	2063.798406	None	None	0.616623082	0.431914922													104	1	18	1	2019_Dec_05_1037	Test	3.2.4	59.85106302		Pictures/IA100_L40.bmp	Pictures/IA100_L40.bmp	Pictures/IA100.bmp	"

Think of the payoff"	1	risk					7	0	7	0	0	4	4	12																															2063.815129	None	2065.837124	2067.357797	2067.341078	None	2068.861761	None	2	2070.867047	None	2070.867047	None	2070.867047	None	None	None	None	None	2071.769423	None	2071.769423	None	left	2071.769423	None	2072.120343	2073.757979	None	None	0.742026383	0.303642615													104	1	18	1	2019_Dec_05_1037	Test	3.2.4	59.85106302		Pictures/IA110_55_G95p.bmp	Pictures/IA110_55_G95p.bmp	Pictures/IA110.bmp	"

Take a chance!"""""	1	risk					7	0	7	0	0	5	5	13																															2073.774701	None	2075.796698	2077.317367	2077.300653	None	2078.804621	None	2	2080.826605	None	2080.826605	None	2080.826605	None	None	None	None	None	2081.695562	None	2081.695562	None	right	2081.695562	None	None	None	2082.263732	2083.700838	0.718469464	0.529501643													104	1	18	1	2019_Dec_05_1037	Test	3.2.4	59.85106302		Pictures/IA50_G10.bmp	Pictures/IA50_G10.bmp	Pictures/IA50.bmp	"

Go with the safe option here!"""""	0	safe					7	0	7	0	0	6	6	16																															2083.717562	None	2085.739557	2087.260232	2087.243511	None	2088.780903	None	2	2090.769467	None	2090.769467	None	2090.769467	None	None	None	None	None	2091.588289	None	2091.588289	None	left	2091.588289	None	2091.955936	2093.593567	None	None	0.647606822	0.324775453													104	1	18	1	2019_Dec_05_1037	Test	3.2.4	59.85106302		Pictures/IA20_10_G95p.bmp	Pictures/IA20_10_G95p.bmp	Pictures/IA20.bmp	"

Take a leap"	1	risk					7	0	7	0	0	7	7	7																															2093.610291	None	2095.665708	2097.169655	2097.152965	None	2098.690349	None	2	2100.662202	None	2100.662202	None	2100.662202	None	None	None	None	None	2101.765117	None	2101.765117	None	left	2101.765117	None	2102.132741	2103.770379	None	None	0.898868224	0.331945633													104	1	18	1	2019_Dec_05_1037	Test	3.2.4	59.85106302		Pictures/IA50_G20.bmp	Pictures/IA50_G20.bmp	Pictures/IA50.bmp	"

Let's venture and take a risk!"""""	1	risk					7	0	7	0	0	8	8	2																															2103.7871	None	2105.809111	2107.32977	2107.313048	None	2108.850442	None	2	2110.839004	None	2110.839004	None	2110.839004	None	None	None	None	None	2111.290205	None	2111.290205	None	left	2111.290205	None	2111.758091	2113.295471	None	None	0.298069297	0.430862301													104	1	18	1	2019_Dec_05_1037	Test	3.2.4	59.85106302		Pictures/IA25_G10.bmp	Pictures/IA25_G10.bmp	Pictures/IA25.bmp	"

What's life without a little risk?"""""	1	risk					7	0	7	0	0	9	9	9																															2113.312195	None	2115.334193	2116.838136	2116.821442	None	2118.375535	None	2	2120.364098	None	2120.364098	None	2120.364098	None	None	None	None	None	2120.982403	None	2120.982403	None	left	2120.982403	None	2121.283181	2122.987684	None	None	0.460973601	0.266667196													104	1	18	1	2019_Dec_05_1037	Test	3.2.4	59.85106302		Pictures/IA75_G45.bmp	Pictures/IA75_G45.bmp	Pictures/IA75.bmp	"

Don't gamble for this one."""""	0	safe					7	0	7	0	0	10	10	3																															2123.004382	None	2125.026375	2126.547049	2126.530356	None	2128.051013	None	2	2130.056298	None	2130.056298	None	2130.056298	None	None	None	None	None	2131.008806	None	2131.008806	None	left	2131.008806	None	2131.276186	2133.014096	None	None	0.784775889	0.232253139													104	1	18	1	2019_Dec_05_1037	Test	3.2.4	59.85106302		Pictures/IA100_G80.bmp	Pictures/IA100_G80.bmp	Pictures/IA100.bmp	"

Why not gamble?"""""	1	risk					7	0	7	0	0	11	11	6																															2133.030801	None	2135.052792	2136.573461	2136.556766	None	2138.077425	None	2	2140.082714	None	2140.082714	None	2140.082714	None	None	None	None	None	2141.102075	None	2141.102075	None	left	2141.102075	None	2141.486416	2143.090646	None	None	0.830351358	0.338989913													104	1	18	1	2019_Dec_05_1037	Test	3.2.4	59.85106302		Pictures/IA50_G30.bmp	Pictures/IA50_G30.bmp	Pictures/IA50.bmp	"

I think you should gamble."""""	1	risk					7	0	7	0	0	12	12	18																															2143.10734	None	2145.129339	2146.650008	2146.633316	None	2148.153971	None	2	2150.159258	None	2150.159258	None	2150.159258	None	None	None	None	None	2150.927949	None	2150.927949	None	left	2150.927949	None	2151.278869	2152.916527	None	None	0.601810228	0.305121641													104	1	18	1	2019_Dec_05_1037	Test	3.2.4	59.85106302		Pictures/IA25_L10.bmp	Pictures/IA25_L10.bmp	Pictures/IA25.bmp	"

Dont be afraid to take the risk!"""""	1	risk					7	0	7	0	0	13	13	5																															2152.933226	None	2154.955225	2156.475899	2156.459198	None	2157.996569	None	2	2159.985155	None	2159.985155	None	2159.985155	None	None	None	None	None	2160.971086	None	2160.971086	None	left	2160.971086	None	2161.338705	2162.976364	None	None	0.815918172	0.325993791													104	1	18	1	2019_Dec_05_1037	Test	3.2.4	59.85106302		Pictures/IA110_55_L95p.bmp	Pictures/IA110_55_L95p.bmp	Pictures/IA110.bmp	"

Trust me"	1	risk					7	0	7	0	0	14	14	0																															2162.993063	None	2165.015056	2166.519031	2166.502312	None	2168.039694	None	2	2170.044978	None	2170.044978	None	2170.044978	None	None	None	None	None	2171.181316	None	2171.181316	None	right	2171.181316	None	None	None	2171.498804	2173.16987	0.972096839	0.283741272													104	1	18	1	2019_Dec_05_1037	Test	3.2.4	59.85106302		Pictures/IA25_G20.bmp	Pictures/IA25_G20.bmp	Pictures/IA25.bmp	"

I wouldn't gamble for this one. """""	0	safe					7	0	7	0	0	15	15	17																															2173.186594	None	2175.208592	2176.729262	2176.712543	None	2178.249935	None	2	2180.238499	None	2180.238499	None	2180.238499	None	None	None	None	None	2181.090757	None	2181.090757	None	left	2181.090757	None	2181.391545	2183.096021	None	None	0.682554493	0.262299089													104	1	18	1	2019_Dec_05_1037	Test	3.2.4	59.85106302		Pictures/IA75_L30.bmp	Pictures/IA75_L30.bmp	Pictures/IA75.bmp	"

Hold back"	0	safe					7	0	7	0	0	16	16	10																															2183.112745	None	2185.134744	2186.655412	2186.638694	None	2188.15934	None	2	2190.16466	None	2190.16466	None	2190.16466	None	None	None	None	None	2190.983483	None	2190.983483	None	None	2190.983483	None	None	None	None	None	0.644409313														104	1	18	1	2019_Dec_05_1037	Test	3.2.4	59.85106302		Pictures/IA100_G20.bmp	Pictures/IA100_G20.bmp	Pictures/IA100.bmp	"

Go ahead and gamble!"""""	1	risk					7	0	7	0	0	17	17	8																															2192.988763	None	2195.010761	2196.531428	2196.51471	None	2198.035396	None	2	2200.040678	None	2200.040678	None	2200.040678	None	None	None	None	None	2201.126864	None	2201.126864	None	left	2201.126864	None	2201.594768	2203.132149	None	None	0.928392925	0.418195652													104	1	18	1	2019_Dec_05_1037	Test	3.2.4	59.85106302		Pictures/IA100_G40.bmp	Pictures/IA100_G40.bmp	Pictures/IA100.bmp	"

Try your luck and gamble!"""""	1	risk					7	0	7	0	0	18	18	4																															2203.148849	None	2205.170844	2206.691517	2206.674821	None	2208.212191	None	2	2210.200776	None	2210.200776	None	2210.200776	None	None	None	None	None	2211.48749	None	2211.48749	None	left	2211.48749	None	2211.855131	2213.492768	None	None	1.13630376	0.329567037													104	1	18	1	2019_Dec_05_1037	Test	3.2.4	59.85106302		Pictures/IA25_L5.bmp	Pictures/IA25_L5.bmp	Pictures/IA25.bmp	"

It would be smarter to choose the safe option."""""	0	safe					7	0	7	0	0	19	19	14																															2213.509489	None	2215.531484	2217.052154	2217.035436	None	2218.572833	None	2	2220.561391	None	2220.561391	None	2220.561391	None	None	None	None	None	2221.48048	None	2221.48048	None	left	2221.48048	None	2221.781282	2223.48576	None	None	0.703690662	0.256603051													104	1	18	1	2019_Dec_05_1037	Test	3.2.4	59.85106302												7	0	7	0																																																																									2223.652882	None	return	2.860172757	2223.652882	None	104	1	18	1	2019_Dec_05_1037	Test	3.2.4	59.85106302		Pictures/IA80_40_L95p.bmp	Pictures/IA80_40_L95p.bmp	Pictures/IA80.bmp	"

Let's stay with the certain option."""""	0	safe					8	0	8	0	0	0	0	15													2226.677508	None	2226.677508	None	2226.677508	None	left	4.531564082	2226.677508	None	2226.677508	None	2226.677508	None	return	5.579327005	2226.677508	None	2232.309019	None	2234.314289	2235.834962	2235.818268	None	2237.355644	None	1	2239.327509	None	2239.327509	None	2239.327509	None	2240.530668	None	2240.530668	2241.533304	2242.636215	None	2242.636215	None	right	2242.636215	None	None	None	2244.407565	None	1.065558903	1.724846736													104	1	18	1	2019_Dec_05_1037	Test	3.2.4	59.85106302		Pictures/IA110_55_L95p.bmp	Pictures/IA110_55_L95p.bmp	Pictures/IA110.bmp	"

Trust me"	1	risk					8	0	8	0	0	1	1	7																															2244.658215	None	2246.680214	2248.20088	2248.184167	None	2249.721555	None	1	2251.710121	None	2251.710121	None	2251.710121	None	2252.846408	None	2252.846408	2253.849095	2254.951994	None	2254.951994	None	right	2254.951994	None	None	None	2255.653848	2256.957269	1.042955204	0.657072722													104	1	18	1	2019_Dec_05_1037	Test	3.2.4	59.85106302		Pictures/IA75_L60.bmp	Pictures/IA75_L60.bmp	Pictures/IA75.bmp	"

Why not take the gamble?"""""	1	risk					8	0	8	0	0	2	2	1																															2256.973994	None	2258.995987	2260.499952	2260.483264	None	2262.020626	None	1	2264.025909	None	2264.025909	None	2264.025909	None	2265.128801	None	2265.128801	2266.131442	2267.234349	None	2267.234349	None	right	2267.234349	None	None	None	2267.835943	2269.23964	0.999170917	0.55872194													104	1	18	1	2019_Dec_05_1037	Test	3.2.4	59.85106302		Pictures/IA50_G10.bmp	Pictures/IA50_G10.bmp	Pictures/IA50.bmp	"

Go with the safe option here!"""""	0	safe					8	0	8	0	0	3	3	14																															2269.256338	None	2271.278334	2272.782305	2272.765587	None	2274.286258	None	2	2276.308267	None	2276.308267	None	2276.308267	None	None	None	None	None	2277.494725	None	2277.494725	None	None	2277.494725	None	None	None	None	None	1.00481153														104	1	18	1	2019_Dec_05_1037	Test	3.2.4	59.85106302		Pictures/IA25_G20.bmp	Pictures/IA25_G20.bmp	Pictures/IA25.bmp	"

I wouldn't gamble for this one. """""	0	safe					8	0	8	0	0	4	4	0																															2279.500003	None	2281.521998	2283.042669	2283.025954	None	2284.529923	None	2	2286.551907	None	2286.551907	None	2286.551907	None	None	None	None	None	2287.337331	None	2287.337331	None	right	2287.337331	None	None	None	2287.571255	2289.342603	0.62516491	0.199728254													104	1	18	1	2019_Dec_05_1037	Test	3.2.4	59.85106302		Pictures/IA50_L10.bmp	Pictures/IA50_L10.bmp	Pictures/IA50.bmp	"

Play it safe"	0	safe					8	0	8	0	0	5	5	2																															2289.359297	None	2291.381293	2292.901968	2292.885269	None	2294.422641	None	1	2296.411226	None	2296.411226	None	2296.411226	None	2297.330313	None	2297.330313	2298.332949	2299.435861	None	2299.435861	None	right	2299.435861	None	None	None	2300.054151	2301.441139	0.805848309	0.573205342													104	1	18	1	2019_Dec_05_1037	Test	3.2.4	59.85106302		Pictures/IA25_L15.bmp	Pictures/IA25_L15.bmp	Pictures/IA25.bmp	"

There's not much on the line here"	1	risk					8	0	8	0	0	6	6	8																															2301.457838	None	2303.479832	2305.000508	2304.98381	None	2306.521179	None	2	2308.509771	None	2308.509771	None	2308.509771	None	None	None	None	None	2310.899383	None	2310.899383	None	left	2310.899383	None	2312.102559	None	None	None	2.20329857	1.165681121													104	1	18	1	2019_Dec_05_1037	Test	3.2.4	59.85106302		Pictures/IA75_G60.bmp	Pictures/IA75_G60.bmp	Pictures/IA75.bmp	"

Make it exciting"	1	risk					8	0	8	0	0	7	7	6																															2312.921372	None	2314.943368	2316.464037	2316.447341	None	2317.984713	None	1	2319.973298	None	2319.973298	None	2319.973298	None	2321.109654	None	2321.109654	2322.112259	2323.231883	None	2323.231883	None	left	2323.231883	None	2323.53266	2325.237165	None	None	1.011777123	0.265180263													104	1	18	1	2019_Dec_05_1037	Test	3.2.4	59.85106302		Pictures/IA50_G40.bmp	Pictures/IA50_G40.bmp	Pictures/IA50.bmp	"

It would probably be best to play it safe."""""	0	safe					8	0	8	0	0	8	8	18																															2325.25386	None	2327.275855	2328.796524	2328.779835	None	2330.31721	None	1	2332.305757	None	2332.305757	None	2332.305757	None	2333.35855	None	2333.35855	2334.361184	2335.464101	None	2335.464101	None	left	2335.464101	None	2336.767538	None	None	None	0.927327252	1.256953576													104	1	18	1	2019_Dec_05_1037	Test	3.2.4	59.85106302		Pictures/IA50_L30.bmp	Pictures/IA50_L30.bmp	Pictures/IA50.bmp	"

Take a leap"	1	risk					8	0	8	0	0	9	9	11																															2337.486097	None	2339.508092	2341.028763	2341.012045	None	2342.532729	None	1	2344.538011	None	2344.538011	None	2344.538011	None	2345.724474	None	2345.724474	2346.727105	2347.83002	None	2347.83002	None	left	2347.83002	None	2348.381465	2349.818573	None	None	1.047073019	0.507046948													104	1	18	1	2019_Dec_05_1037	Test	3.2.4	59.85106302		Pictures/IA75_L30.bmp	Pictures/IA75_L30.bmp	Pictures/IA75.bmp	"

Hold back"	0	safe					8	0	8	0	0	10	10	3																															2349.835296	None	2351.857292	2353.377968	2353.361244	None	2354.89864	None	2	2356.887204	None	2356.887204	None	2356.887204	None	None	None	None	None	2358.274188	None	2358.274188	None	left	2358.274188	None	2358.959326	2360.279465	None	None	1.217860729	0.63887801													104	1	18	1	2019_Dec_05_1037	Test	3.2.4	59.85106302		Pictures/IA100_L20.bmp	Pictures/IA100_L20.bmp	Pictures/IA100.bmp	"

Try to win as much money as you can"	1	risk					8	0	8	0	0	11	11	12																															2360.296187	None	2362.318183	2363.838858	2363.822136	None	2365.359533	None	1	2367.34806	None	2367.34806	None	2367.34806	None	2368.618105	None	2368.618105	2369.62074	2370.723651	None	2370.723651	None	left	2370.723651	None	2371.859985	None	None	None	1.117010565	1.09341095													104	1	18	1	2019_Dec_05_1037	Test	3.2.4	59.85106302		Pictures/IA50_L40.bmp	Pictures/IA50_L40.bmp	Pictures/IA50.bmp	"

That gamble doesn't sound too good"	0	safe					8	0	8	0	0	12	12	19																															2372.745643	None	2374.767635	2376.288306	2376.271614	None	2377.842403	None	2	2379.79757	None	2379.79757	None	2379.79757	None	None	None	None	None	2380.950595	None	2380.950595	None	left	2380.950595	None	2381.418511	2382.955889	None	None	0.963504676	0.434459186													104	1	18	1	2019_Dec_05_1037	Test	3.2.4	59.85106302		Pictures/IA75_G15.bmp	Pictures/IA75_G15.bmp	Pictures/IA75.bmp	"

Take a chance!"""""	1	risk					8	0	8	0	0	13	13	16																															2382.972582	None	2384.994578	2386.51525	2386.498563	None	2388.019213	None	2	2390.0245	None	2390.0245	None	2390.0245	None	None	None	None	None	2392.497679	None	2392.497679	None	left	2392.497679	None	2393.517028	None	None	None	2.320569823	0.983388682													104	1	18	1	2019_Dec_05_1037	Test	3.2.4	59.85106302		Pictures/IA100_L60.bmp	Pictures/IA100_L60.bmp	Pictures/IA100.bmp	"

You'd have a lot to lose"	0	safe					8	0	8	0	0	14	14	10																															2394.502958	None	2396.524952	2398.028925	2398.012207	None	2399.549588	None	1	2401.554875	None	2401.554875	None	2401.554875	None	2402.774755	None	2402.774755	2403.777393	2404.880303	None	2404.880303	None	right	2404.880303	None	None	None	2405.699121	2406.868879	1.086186106	0.776762687													104	1	18	1	2019_Dec_05_1037	Test	3.2.4	59.85106302		Pictures/IA110_55_G95p.bmp	Pictures/IA110_55_G95p.bmp	Pictures/IA110.bmp	"

Take a chance!"""""	1	risk					8	0	8	0	0	15	15	4																															2406.88558	None	2408.907574	2410.428249	2410.411529	None	2411.93221	None	None	2413.937495	None	2413.937495	None	2413.937495	None	None	None	None	None	2417.028982	None	2417.028982	None	left	2417.028982	None	2418.933987	None	None	None		1.860080474													104	1	18	1	2019_Dec_05_1037	Test	3.2.4	59.85106302		Pictures/IA75_G30.bmp	Pictures/IA75_G30.bmp	Pictures/IA75.bmp	"

Be bold"	1	risk					8	0	8	0	0	16	16	17																															2419.050963	None	2421.072956	2422.593631	2422.576931	None	2424.114302	None	2	2426.102893	None	2426.102893	None	2426.102893	None	None	None	None	None	2427.59013	None	2427.59013	None	left	2427.59013	None	2428.258564	2429.595422	None	None	1.322178567	0.634958954													104	1	18	1	2019_Dec_05_1037	Test	3.2.4	59.85106302		Pictures/IA25_L10.bmp	Pictures/IA25_L10.bmp	Pictures/IA25.bmp	"

Dont be afraid to take the risk!"""""	1	risk					8	0	8	0	0	17	17	5																															2429.612118	None	2431.634114	2433.154785	2433.138089	None	2434.642041	None	2	2436.664042	None	2436.664042	None	2436.664042	None	None	None	None	None	2437.315749	None	2437.315749	None	left	2437.315749	None	2437.583129	2439.321039	None	None	0.489032556	0.221319452													104	1	18	1	2019_Dec_05_1037	Test	3.2.4	59.85106302		Pictures/IA100_G60.bmp	Pictures/IA100_G60.bmp	Pictures/IA100.bmp	"

Be cautious"	0	safe					8	0	8	0	0	18	18	9																															2439.337739	None	2441.359739	2442.880405	2442.863714	None	2444.401095	None	1	2446.389669	None	2446.389669	None	2446.389669	None	2448.294672	None	2448.294672	2449.297309	2450.416935	None	2450.416935	None	left	2450.416935	None	2451.135487	2452.405472	None	None	1.76340185	0.672126734													104	1	18	1	2019_Dec_05_1037	Test	3.2.4	59.85106302		Pictures/IA20_10_L95p.bmp	Pictures/IA20_10_L95p.bmp	Pictures/IA20.bmp	"

Don't be tempted to gamble."""""	0	safe					8	0	8	0	0	19	19	13																															2452.422222	None	2454.444215	2455.964889	2455.948168	None	2457.468821	None	1	2459.47414	None	2459.47414	None	2459.47414	None	2460.877836	None	2460.877836	2461.880469	2463.000092	None	2463.000092	None	left	2463.000092	None	2463.935874	2465.005359	None	None	1.278945834	0.896970565													104	1	18	1	2019_Dec_05_1037	Test	3.2.4	59.85106302												8	0	8	0																																																																									2465.172487	None	return	4.852577459	2465.172487	None	104	1	18	1	2019_Dec_05_1037	Test	3.2.4	59.85106302		Pictures/IA40_20_G95p.bmp	Pictures/IA40_20_G95p.bmp	Pictures/IA40.bmp	"

Hold back"	0	safe					9	0	9	0	0	0	0	1													2470.185692	None	2470.185692	None	2470.185692	None	left	1.879372891	2470.185692	None	2470.185692	None	2470.185692	None	return	2.255251018	2470.185692	None	2472.491762	None	2474.497031	2476.017704	2476.001008	None	2477.504972	None	2	2479.510285	None	2479.510285	None	2479.510285	None	None	None	None	None	2480.362488	None	2480.362488	None	left	2480.362488	None	2480.897237	2482.367777	None	None	0.634781073	0.486573599													104	1	18	1	2019_Dec_05_1037	Test	3.2.4	59.85106302		Pictures/IA110_55_G95p.bmp	Pictures/IA110_55_G95p.bmp	Pictures/IA110.bmp	"

Take a chance!"""""	1	risk					9	0	9	0	0	1	1	3																															2482.384477	None	2484.406484	2485.927142	2485.910446	None	2487.447819	None	2	2489.436403	None	2489.436403	None	2489.436403	None	None	None	None	None	2490.054689	None	2490.054689	None	left	2490.054689	None	2490.338767	2492.059965	None	None	0.452662384	0.234381354													104	1	18	1	2019_Dec_05_1037	Test	3.2.4	59.85106302		Pictures/IA75_L15.bmp	Pictures/IA75_L15.bmp	Pictures/IA75.bmp	"

Trust me"	1	risk					9	0	9	0	0	2	2	18																															2492.076688	None	2494.098684	2495.619353	2495.602638	None	2497.156738	None	2	2499.128603	None	2499.128603	None	2499.128603	None	None	None	None	None	2499.830455	None	2499.830455	None	left	2499.830455	None	2500.699393	2501.835719	None	None	0.536467877	0.826610738													104	1	18	1	2019_Dec_05_1037	Test	3.2.4	59.85106302		Pictures/IA25_G15.bmp	Pictures/IA25_G15.bmp	Pictures/IA25.bmp	"

I think you should take a gamble."""""	1	risk					9	0	9	0	0	3	3	0																															2501.852442	None	2503.874437	2505.395144	2505.378391	None	2506.899073	None	2	2508.904357	None	2508.904357	None	2508.904357	None	None	None	None	None	2509.957118	None	2509.957118	None	left	2509.957118	None	2510.475166	2511.962397	None	None	0.792718846	0.475956846													104	1	18	1	2019_Dec_05_1037	Test	3.2.4	59.85106302		Pictures/IA25_G10.bmp	Pictures/IA25_G10.bmp	Pictures/IA25.bmp	"

What's life without a little risk?"""""	1	risk					9	0	9	0	0	4	4	17																															2511.97912	None	2514.001114	2515.521787	2515.505069	None	2517.042464	None	None	2519.031022	None	2519.031022	None	2519.031022	None	None	None	None	None	2522.122518	None	2522.122518	None	None	2522.122518	None	None	None	None	None															104	1	18	1	2019_Dec_05_1037	Test	3.2.4	59.85106302		Pictures/IA50_G20.bmp	Pictures/IA50_G20.bmp	Pictures/IA50.bmp	"

Let's venture and take a risk!"""""	1	risk					9	0	9	0	0	5	5	14																															2524.127792	None	2526.149786	2527.670461	2527.65374	None	2529.191133	None	2	2531.179697	None	2531.179697	None	2531.179697	None	None	None	None	None	2532.93432	None	2532.93432	None	left	2532.93432	None	2534.388145	None	None	None	1.549368097	1.418739411													104	1	18	1	2019_Dec_05_1037	Test	3.2.4	59.85106302		Pictures/IA50_G40.bmp	Pictures/IA50_G40.bmp	Pictures/IA50.bmp	"

It would probably be best to play it safe."""""	0	safe					9	0	9	0	0	6	6	19																															2534.939609	None	2536.961605	2538.482274	2538.465557	None	2539.969528	None	1	2541.991524	None	2541.991524	None	2541.991524	None	2543.161259	None	2543.161259	2544.163895	2545.266808	None	2545.266808	None	left	2545.266808	None	2546.102349	2547.272085	None	None	1.025554303	0.790244861													104	1	18	1	2019_Dec_05_1037	Test	3.2.4	59.85106302		Pictures/IA50_G10.bmp	Pictures/IA50_G10.bmp	Pictures/IA50.bmp	"

Go with the safe option here!"""""	0	safe					9	0	9	0	0	7	7	10																															2547.288807	None	2549.310801	2550.831472	2550.814755	None	2552.335438	None	1	2554.340722	None	2554.340722	None	2554.340722	None	2555.961648	None	2555.961648	2556.964283	2558.067196	None	2558.067196	None	left	2558.067196	None	2559.52102	None	None	None	1.49234911	1.413866373													104	1	18	1	2019_Dec_05_1037	Test	3.2.4	59.85106302		Pictures/IA25_L15.bmp	Pictures/IA25_L15.bmp	Pictures/IA25.bmp	"

There's not much on the line here"	1	risk					9	0	9	0	0	8	8	12																															2560.072485	None	2562.094481	2563.61515	2563.598433	None	2565.102405	None	1	2567.124393	None	2567.124393	None	2567.124393	None	2568.427823	None	2568.427823	2569.43046	2570.533371	None	2570.533371	None	right	2570.533371	None	None	None	2570.884289	2572.521949	1.14068435	0.307693047													104	1	18	1	2019_Dec_05_1037	Test	3.2.4	59.85106302		Pictures/IA50_L40.bmp	Pictures/IA50_L40.bmp	Pictures/IA50.bmp	"

That gamble doesn't sound too good"	0	safe					9	0	9	0	0	9	9	9																															2572.538648	None	2574.560644	2576.081314	2576.064618	None	2577.568565	None	None	2579.590577	None	2579.590577	None	2579.590577	None	None	None	None	None	2582.73218	None	2582.73218	None	None	2582.73218	None	None	None	None	None															104	1	18	1	2019_Dec_05_1037	Test	3.2.4	59.85106302		Pictures/IA25_L10.bmp	Pictures/IA25_L10.bmp	Pictures/IA25.bmp	"

