Choice	Choice2	Amount	AdviceVar1	GambleAdviceNum	GambleAdviceType	practice.thisRepN	practice.thisTrialN	practice.thisN	practice.thisIndex	trials_2.thisRepN	trials_2.thisTrialN	trials_2.thisN	trials_2.thisIndex	trials.thisRepN	trials.thisTrialN	trials.thisN	trials.thisIndex	text.started	text.stopped	key_resp_4.keys	key_resp_4.rt	key_resp_4.started	key_resp_4.stopped	instructions.started	instructions.stopped	space.keys	space.rt	space.started	space.stopped	chooseInst.started	chooseInst.stopped	Ad1.started	Ad1.stopped	Ad2.started	Ad2.stopped	key_resp_3.keys	key_resp_3.rt	key_resp_3.started	key_resp_3.stopped	Ad1pic.started	Ad1pic.stopped	Ad2pic.started	Ad2pic.stopped	enter.keys	enter.rt	enter.started	enter.stopped	iSi.started	iSi.stopped	receiveMoneyPicture.started	receiveMoneyPicture.stopped	ISI2.started	ISI2.stopped	ChoicePic.started	ChoicePic.stopped	response.keys	response.started	response.stopped	yesNo.started	yesNo.stopped	ask.started	ask.stopped	getAdv.started	getAdv.stopped	textForCode.started	textForCode.stopped	blank.started	blank.stopped	ChoicePic2.started	ChoicePic2.stopped	resp.keys	resp.started	resp.stopped	checkL1.started	checkL1.stopped	checkR1.started	checkR1.stopped	response.rt	resp.rt	EndPrac.started	EndPrac.stopped	key_resp.keys	key_resp.rt	key_resp.started	key_resp.stopped	endText.started	endText.stopped	key_resp_2.keys	key_resp_2.rt	key_resp_2.started	key_resp_2.stopped	participant	session	age	gender (0=male	 1 = female	 2 = other)	date	expName	psychopyVersion	frameRate																		229.2748303	None	space	434.1994439	229.2748303	None																																																																					107	1	18	1	2019_Dec_06_1110	Test	3.2.4	59.84127461																										663.5031625	None	space	3.275110863	663.5031625	None																																																															107	1	18	1	2019_Dec_06_1110	Test	3.2.4	59.84127461																																667.4803439	None	667.4803439	None	667.4803439	None	left	19.79390938	667.4803439	None																																																					107	1	18	1	2019_Dec_06_1110	Test	3.2.4	59.84127461																																										667.4803439	None	667.4803439	None	return	22.07378601	667.4803439	None																																													107	1	18	1	2019_Dec_06_1110	Test	3.2.4	59.84127461		Pictures/IA50_G10.bmp	Pictures/IA50_G10.bmp	Pictures/IA50.bmp	"Go with the safe option here!"""""	0	safe	0	0	0	0																																							689.6721774	None	691.6607573	693.1814318	693.1647347	None	694.6854073	None	None	696.7241258	None	696.7241258	None	696.7241258	None	None	None	None	None	699.7821789	None	699.7821789	None	None	699.7821789	None	None	None	None	None															107	1	18	1	2019_Dec_06_1110	Test	3.2.4	59.84127461		Pictures/IA100_G40.bmp	Pictures/IA100_G40.bmp	Pictures/IA100.bmp	"Try your luck and gamble!"""""	1	risk	0	1	1	5																																							701.7874631	None	703.8261802	705.3468672	705.3301458	None	706.8341112	None	None	708.8394016	None	708.8394016	None	708.8394016	None	None	None	None	None	711.9810311	None	711.9810311	None	None	711.9810311	None	None	None	None	None															107	1	18	1	2019_Dec_06_1110	Test	3.2.4	59.84127461		Pictures/IA50_G40.bmp	Pictures/IA50_G40.bmp	Pictures/IA50.bmp	"It would probably be best to play it safe."""""	0	safe	0	2	2	3																																							713.9863149	None	716.0083183	717.5289933	717.5122786	None	719.0830984	None	1	721.0382413	None	721.0382413	None	721.0382413	None	723.026823	None	723.026823	724.0294585	725.1323739	None	725.1323739	None	None	725.1323739	None	None	None	None	None	1.844042255														107	1	18	1	2019_Dec_06_1110	Test	3.2.4	59.84127461		Pictures/IA50_G30.bmp	Pictures/IA50_G30.bmp	Pictures/IA50.bmp	"I think you should gamble."""""	1	risk	0	3	3	2																																							727.1376576	None	729.1596626	730.6803351	730.6636419	None	732.2010196	None	1	734.1896074	None	734.1896074	None	734.1896074	None	735.9944382	None	735.9944382	736.9969949	738.0999137	None	738.0999137	None	left	738.0999137	None	738.6680839	740.1051949	None	None	1.692676032	0.518355625													107	1	18	1	2019_Dec_06_1110	Test	3.2.4	59.84127461		Pictures/IA50_G20.bmp	Pictures/IA50_G20.bmp	Pictures/IA50.bmp	"Let's venture and take a risk!"""""	1	risk	0	4	4	1																																							740.1219171	None	742.143917	743.6645928	743.6478747	None	745.2186942	None	2	747.1738415	None	747.1738415	None	747.1738415	None	None	None	None	None	748.6945278	None	748.6945278	None	right	748.6945278	None	None	None	749.195839	750.6998152	1.356441684	0.4677449													107	1	18	1	2019_Dec_06_1110	Test	3.2.4	59.84127461		Pictures/IA100_G20.bmp	Pictures/IA100_G20.bmp	Pictures/IA100.bmp	"Go ahead and gamble!"""""	1	risk	0	5	5	4																																							750.7165158	None	752.7385224	754.2591925	754.2424958	None	755.7965967	None	1	757.7684539	None	757.7684539	None	757.7684539	None	759.7737411	None	759.7737411	760.776381	761.879301	None	761.879301	None	left	761.879301	None	763.3498469	None	None	None	1.90582326	1.4349731													107	1	18	1	2019_Dec_06_1110	Test	3.2.4	59.84127461																																																																																		763.9012912	None	space	16.87697962	763.9012912	None							107	1	18	1	2019_Dec_06_1110	Test	3.2.4	59.84127461		Pictures/IA50_G30.bmp	Pictures/IA50_G30.bmp	Pictures/IA50.bmp	"I think you should gamble."""""	1	risk					0	0	0	0	0	0	0	5													780.9462615	None	780.9462615	None	780.9462615	None	left	4.640007986	780.9462615	None	780.9462615	None	780.9462615	None	return	5.927792899	780.9462615	None	786.9287051	None	788.9339825	790.454666	790.4379669	None	791.9252183	None	2	793.9472095	None	793.9472095	None	793.9472095	None	None	None	None	None	795.0835405	None	795.0835405	None	left	795.0835405	None	795.9023674	797.0721241	None	None	0.975071865	0.774734965													107	1	18	1	2019_Dec_06_1110	Test	3.2.4	59.84127461		Pictures/IA25_G10.bmp	Pictures/IA25_G10.bmp	Pictures/IA25.bmp	"What's life without a little risk?"""""	1	risk					0	0	0	0	0	1	1	10																															797.0888254	None	799.1442116	800.6649248	800.6482265	None	802.168893	None	2	804.1407624	None	804.1407624	None	804.1407624	None	None	None	None	None	805.160118	None	805.160118	None	right	805.160118	None	None	None	805.6781474	807.148691	0.837522477	0.474155064													107	1	18	1	2019_Dec_06_1110	Test	3.2.4	59.84127461		Pictures/IA50_G10.bmp	Pictures/IA50_G10.bmp	Pictures/IA50.bmp	"Go with the safe option here!"""""	0	safe					0	0	0	0	0	2	2	14																															807.1654135	None	809.1874156	810.7080908	810.6913744	None	812.2287725	None	2	814.2173397	None	814.2173397	None	814.2173397	None	None	None	None	None	815.8550023	None	815.8550023	None	left	815.8550023	None	816.3396119	817.8602846	None	None	1.464935225	0.443276895													107	1	18	1	2019_Dec_06_1110	Test	3.2.4	59.84127461		Pictures/IA100_G60.bmp	Pictures/IA100_G60.bmp	Pictures/IA100.bmp	"Be cautious"	0	safe					0	0	0	0	0	3	3	16																															817.8769892	None	819.8989884	821.419666	821.4029693	None	822.9570543	None	2	824.9289257	None	824.9289257	None	824.9289257	None	None	None	None	None	825.9482811	None	825.9482811	None	left	825.9482811	None	826.3660449	827.9535662	None	None	0.841355086	0.381982229													107	1	18	1	2019_Dec_06_1110	Test	3.2.4	59.84127461		Pictures/IA50_L20.bmp	Pictures/IA50_L20.bmp	Pictures/IA50.bmp	"Certainty is boring"	1	risk					0	0	0	0	0	4	4	19																															827.9703043	None	829.9922881	831.5129647	831.4962479	None	833.0670666	None	2	835.0222172	None	835.0222172	None	835.0222172	None	None	None	None	None	836.6264637	None	836.6264637	None	left	836.6264637	None	837.6123903	838.6317334	None	None	1.43606294	0.951758046													107	1	18	1	2019_Dec_06_1110	Test	3.2.4	59.84127461		Pictures/IA75_L45.bmp	Pictures/IA75_L45.bmp	Pictures/IA75.bmp	"Don't gamble for this one"	0	safe					0	0	0	0	0	5	5	9																															838.6484508	None	840.6871625	842.2078413	842.1911249	None	843.7452247	None	1	845.7003893	None	845.7003893	None	845.7003893	None	847.2377636	None	847.2377636	848.2404051	849.3433201	None	849.3433201	None	None	849.3433201	None	None	None	None	None	1.397890664														107	1	18	1	2019_Dec_06_1110	Test	3.2.4	59.84127461		Pictures/IA20_10_L95p.bmp	Pictures/IA20_10_L95p.bmp	Pictures/IA20.bmp	"Don't be tempted to gamble."""""	0	safe					0	0	0	0	0	6	6	17																															851.3486033	None	853.3873181	854.9079921	854.8912987	None	856.4286836	None	1	858.4005532	None	858.4005532	None	858.4005532	None	859.3697624	None	859.3697624	860.3724034	861.4753187	None	861.4753187	None	right	861.4753187	None	None	None	862.6617784	None	0.865726301	1.142958201													107	1	18	1	2019_Dec_06_1110	Test	3.2.4	59.84127461		Pictures/IA50_G40.bmp	Pictures/IA50_G40.bmp	Pictures/IA50.bmp	"It would probably be best to play it safe."""""	0	safe					0	0	0	0	0	7	7	1																															863.4806151	None	865.5026149	867.0232919	867.0065733	None	868.5105497	None	1	870.5325403	None	870.5325403	None	870.5325403	None	871.0004397	None	871.0004397	872.0030785	873.1059954	None	873.1059954	None	left	873.1059954	None	873.5070588	875.1112892	None	None	0.349746831	0.352283184													107	1	18	1	2019_Dec_06_1110	Test	3.2.4	59.84127461		Pictures/IA100_G40.bmp	Pictures/IA100_G40.bmp	Pictures/IA100.bmp	"Try your luck and gamble!"""""	1	risk					0	0	0	0	0	8	8	0																															875.1279888	None	877.1499909	878.6706677	878.6539688	None	880.1579256	None	1	882.1799418	None	882.1799418	None	882.1799418	None	882.547561	None	882.547561	883.5502011	884.6531153	None	884.6531153	None	right	884.6531153	None	None	None	885.8562968	None	0.254346846	1.165158806													107	1	18	1	2019_Dec_06_1110	Test	3.2.4	59.84127461		Pictures/IA80_40_L95p.bmp	Pictures/IA80_40_L95p.bmp	Pictures/IA80.bmp	"Let's stay with the certain option."""""	0	safe					0	0	0	0	0	9	9	4																															886.675111	None	888.7138275	890.2177977	890.2010814	None	891.755185	None	1	893.7270659	None	893.7270659	None	893.7270659	None	894.2618016	None	894.2618016	895.2644418	896.3840674	None	896.3840674	None	right	896.3840674	None	None	None	897.5036829	None	0.403214437	1.074208916													107	1	18	1	2019_Dec_06_1110	Test	3.2.4	59.84127461		Pictures/IA50_L10.bmp	Pictures/IA50_L10.bmp	Pictures/IA50.bmp	"Play it safe"	0	safe					0	0	0	0	0	10	10	7																															898.3893568	None	900.4113514	901.9320287	901.9153102	None	903.4861299	None	1	905.4412801	None	905.4412801	None	905.4412801	None	905.7754606	None	905.7754606	906.7781312	907.9144664	None	907.9144664	None	left	907.9144664	None	909.084227	None	None	None	0.217001973	1.119805172													107	1	18	1	2019_Dec_06_1110	Test	3.2.4	59.84127461		Pictures/IA40_20_G95p.bmp	Pictures/IA40_20_G95p.bmp	Pictures/IA40.bmp	"Hold back"	0	safe					0	0	0	0	0	11	11	15																															909.936473	None	911.9918955	913.4958487	913.4791529	None	915.0165407	None	1	916.9884095	None	916.9884095	None	916.9884095	None	919.4281766	None	919.4281766	920.4308156	921.5337299	None	921.5337299	None	left	921.5337299	None	922.2355666	923.5390146	None	None	2.309872827	0.668521857													107	1	18	1	2019_Dec_06_1110	Test	3.2.4	59.84127461		Pictures/IA80_40_G95p.bmp	Pictures/IA80_40_G95p.bmp	Pictures/IA80.bmp	"Think of the payoff"	1	risk					0	0	0	0	0	12	12	12																															923.5557199	None	925.5777149	927.0816919	927.0649779	None	928.6524934	None	1	930.6076614	None	930.6076614	None	930.6076614	None	931.5100325	None	931.5100325	932.5126692	933.6155841	None	933.6155841	None	left	933.6155841	None	934.7017765	None	None	None	0.794617285	1.042691336													107	1	18	1	2019_Dec_06_1110	Test	3.2.4	59.84127461		Pictures/IA100_L40.bmp	Pictures/IA100_L40.bmp	Pictures/IA100.bmp	"Think of the payoff"	1	risk					0	0	0	0	0	13	13	6																															935.6208675	None	937.6428683	939.1635432	939.1468478	None	940.7009332	None	1	942.6728041	None	942.6728041	None	942.6728041	None	943.5417685	None	943.5417685	944.544411	945.647324	None	945.647324	None	right	945.647324	None	None	None	946.2656189	947.6358877	0.793477201	0.578941512													107	1	18	1	2019_Dec_06_1110	Test	3.2.4	59.84127461		Pictures/IA25_G5.bmp	Pictures/IA25_G5.bmp	Pictures/IA25.bmp	"Let's stay with the certain option."""""	0	safe					0	0	0	0	0	14	14	18																															947.6526083	None	949.6746121	951.1952852	951.178568	None	952.7326807	None	1	954.7045453	None	954.7045453	None	954.7045453	None	955.0554579	None	955.0554579	956.0581008	957.1610144	None	957.1610144	None	left	957.1610144	None	957.9965558	959.166294	None	None	0.23374214	0.801256237													107	1	18	1	2019_Dec_06_1110	Test	3.2.4	59.84127461		Pictures/IA100_L20.bmp	Pictures/IA100_L20.bmp	Pictures/IA100.bmp	"Try to win as much money as you can"	1	risk					0	0	0	0	0	15	15	2																															959.1830181	None	961.2050189	962.7256932	962.708979	None	964.2797912	None	1	966.2349436	None	966.2349436	None	966.2349436	None	966.7863954	None	966.7863954	967.7890471	968.8919488	None	968.8919488	None	right	968.8919488	None	None	None	969.2428705	970.8805318	0.415328655	0.302318381													107	1	18	1	2019_Dec_06_1110	Test	3.2.4	59.84127461		Pictures/IA75_L60.bmp	Pictures/IA75_L60.bmp	Pictures/IA75.bmp	"Why not take the gamble?"""""	1	risk					0	0	0	0	0	16	16	13																															970.8972326	None	972.9192345	974.4399342	974.4232126	None	975.9773014	None	1	977.9491719	None	977.9491719	None	977.9491719	None	979.0019478	None	979.0019478	980.0045814	981.1074961	None	981.1074961	None	right	981.1074961	None	None	None	982.1769899	None	0.94910763	1.030769419													107	1	18	1	2019_Dec_06_1110	Test	3.2.4	59.84127461		Pictures/IA75_G45.bmp	Pictures/IA75_G45.bmp	Pictures/IA75.bmp	"Don't gamble for this one."""""	0	safe					0	0	0	0	0	17	17	8																															983.1295059	None	985.1514908	986.6721665	986.6554688	None	988.3432424	None	1	990.1814246	None	990.1814246	None	990.1814246	None	990.783018	None	990.783018	991.7856596	992.9052833	None	992.9052833	None	left	992.9052833	None	993.6739624	994.9105654	None	None	0.492858416	0.720991047													107	1	18	1	2019_Dec_06_1110	Test	3.2.4	59.84127461		Pictures/IA75_G30.bmp	Pictures/IA75_G30.bmp	Pictures/IA75.bmp	"Be bold"	1	risk					0	0	0	0	0	18	18	3																															994.927268	None	996.9492663	998.4699452	998.4532464	None	1000.024048	None	1	1001.979212	None	1001.979212	None	1001.979212	None	1002.697762	None	1002.697762	1003.700403	1004.80333	None	1004.80333	None	left	1004.80333	None	1005.872807	None	None	None	0.623070423	1.022943861													107	1	18	1	2019_Dec_06_1110	Test	3.2.4	59.84127461		Pictures/IA100_G20.bmp	Pictures/IA100_G20.bmp	Pictures/IA100.bmp	"Go ahead and gamble!"""""	1	risk					0	0	0	0	0	19	19	11																															1006.825308	None	1008.847307	1010.367983	1010.351291	None	1011.85524	None	1	1013.877253	None	1013.877253	None	1013.877253	None	1014.34515	None	1014.34515	1015.34779	1016.450703	None	1016.450703	None	left	1016.450703	None	1017.169262	1018.439265	None	None	0.381018038	0.671572647													107	1	18	1	2019_Dec_06_1110	Test	3.2.4	59.84127461												0	0	0	0																																																																									1018.68994	None	return	9.856322325	1018.68994	None	107	1	18	1	2019_Dec_06_1110	Test	3.2.4	59.84127461		Pictures/IA25_G10.bmp	Pictures/IA25_G10.bmp	Pictures/IA25.bmp	"What's life without a little risk?"""""	1	risk					1	0	1	0	0	0	0	17													1028.699658	None	1028.699658	None	1028.699658	None	right	1.678614963	1028.699658	None	1028.699658	None	1028.699658	None	return	2.718493329	1028.699658	None	1031.473634	None	1033.478933	1034.999608	1034.982889	None	1036.470147	None	1	1038.492154	None	1038.492154	None	1038.492154	None	1039.277546	None	1039.277546	1040.280185	1041.383103	None	1041.383103	None	left	1041.383103	None	1042.068234	1043.37168	None	None	0.662127154	0.643174634													107	1	18	1	2019_Dec_06_1110	Test	3.2.4	59.84127461		Pictures/IA40_20_G95p.bmp	Pictures/IA40_20_G95p.bmp	Pictures/IA40.bmp	"Hold back"	0	safe					1	0	1	0	0	1	1	18																															1043.388388	None	1045.410395	1046.914363	1046.897644	None	1048.418327	None	1	1050.440323	None	1050.440323	None	1050.440323	None	1051.108747	None	1051.108747	1052.111389	1053.231012	None	1053.231012	None	left	1053.231012	None	1053.598633	1055.236295	None	None	0.545953944	0.331259701													107	1	18	1	2019_Dec_06_1110	Test	3.2.4	59.84127461		Pictures/IA25_L10.bmp	Pictures/IA25_L10.bmp	Pictures/IA25.bmp	"Dont be afraid to take the risk!"""""	1	risk					1	0	1	0	0	2	2	7																															1055.252994	None	1057.274994	1058.795683	1058.778973	None	1060.333057	None	2	1062.304925	None	1062.304925	None	1062.304925	None	None	None	None	None	1062.990062	None	1062.990062	None	left	1062.990062	None	1064.577579	None	None	None	0.513359005	1.548211543													107	1	18	1	2019_Dec_06_1110	Test	3.2.4	59.84127461		Pictures/IA25_G5.bmp	Pictures/IA25_G5.bmp	Pictures/IA25.bmp	"Let's stay with the certain option."""""	0	safe					1	0	1	0	0	3	3	16																															1064.995357	None	1067.017356	1068.538027	1068.521313	None	1070.025286	None	1	1072.047274	None	1072.047274	None	1072.047274	None	1073.384145	None	1073.384145	1074.386781	1075.506406	None	1075.506406	None	None	1075.506406	None	None	None	None	None	1.195012059														107	1	18	1	2019_Dec_06_1110	Test	3.2.4	59.84127461		Pictures/IA20_10_L95p.bmp	Pictures/IA20_10_L95p.bmp	Pictures/IA20.bmp	"Don't be tempted to gamble."""""	0	safe					1	0	1	0	0	4	4	8																															1077.511695	None	1079.533685	1081.054358	1081.037641	None	1082.575036	None	1	1084.563605	None	1084.563605	None	1084.563605	None	1085.198622	None	1085.198622	1086.201257	1087.304174	None	1087.304174	None	right	1087.304174	None	None	None	1087.922464	1089.292731	0.518669341	0.570098963													107	1	18	1	2019_Dec_06_1110	Test	3.2.4	59.84127461		Pictures/IA80_40_G95p.bmp	Pictures/IA80_40_G95p.bmp	Pictures/IA80.bmp	"Think of the payoff"	1	risk					1	0	1	0	0	5	5	5																															1089.309465	None	1091.331453	1092.852126	1092.835409	None	1094.339382	None	2	1096.444922	None	1096.444922	None	1096.444922	None	None	None	None	None	1098.700869	None	1098.700869	None	left	1098.700869	None	1099.937472	None	None	None	2.085358639	1.189407104													107	1	18	1	2019_Dec_06_1110	Test	3.2.4	59.84127461		Pictures/IA100_G60.bmp	Pictures/IA100_G60.bmp	Pictures/IA100.bmp	"Be cautious"	0	safe					1	0	1	0	0	6	6	2																															1100.722873	None	1102.74487	1104.265547	1104.248828	None	1105.769508	None	2	1107.774797	None	1107.774797	None	1107.774797	None	None	None	None	None	1108.37638	None	1108.37638	None	left	1108.37638	None	1108.777426	1110.381653	None	None	0.347520079	0.361886985													107	1	18	1	2019_Dec_06_1110	Test	3.2.4	59.84127461		Pictures/IA50_L40.bmp	Pictures/IA50_L40.bmp	Pictures/IA50.bmp	"That gamble doesn't sound too good"	0	safe					1	0	1	0	0	7	7	1																															1110.398375	None	1112.420372	1113.941048	1113.924328	None	1115.511856	None	1	1117.4503	None	1117.4503	None	1117.4503	None	1117.834631	None	1117.834631	1118.837278	1119.940186	None	1119.940186	None	left	1119.940186	None	1121.343895	None	None	None	0.231985024	1.366087761													107	1	18	1	2019_Dec_06_1110	Test	3.2.4	59.84127461		Pictures/IA100_L20.bmp	Pictures/IA100_L20.bmp	Pictures/IA100.bmp	"Try to win as much money as you can"	1	risk					1	0	1	0	0	8	8	15																															1121.962177	None	1123.98418	1125.504848	1125.48815	None	1126.992115	None	2	1129.014116	None	1129.014116	None	1129.014116	None	None	None	None	None	1130.835577	None	1130.835577	None	right	1130.835577	None	None	None	1132.189143	None	1.612164312	1.31869681													107	1	18	1	2019_Dec_06_1110	Test	3.2.4	59.84127461		Pictures/IA100_L60.bmp	Pictures/IA100_L60.bmp	Pictures/IA100.bmp	"You'd have a lot to lose"	0	safe					1	0	1	0	0	9	9	10																															1132.840861	None	1134.862857	1136.383549	1136.366816	None	1137.92092	None	1	1139.892791	None	1139.892791	None	1139.892791	None	1140.327249	None	1140.327249	1141.329889	1142.432802	None	1142.432802	None	left	1142.432802	None	1143.702821	None	None	None	0.29349244	1.233468439													107	1	18	1	2019_Dec_06_1110	Test	3.2.4	59.84127461		Pictures/IA25_L5.bmp	Pictures/IA25_L5.bmp	Pictures/IA25.bmp	"It would be smarter to choose the safe option."""""	0	safe					1	0	1	0	0	10	10	14																															1144.454793	None	1146.476789	1147.997464	1147.980767	None	1149.551566	None	1	1151.506726	None	1151.506726	None	1151.506726	None	1152.927143	None	1152.927143	1153.929774	1155.032688	None	1155.032688	None	left	1155.032688	None	1156.185726	None	None	None	1.271554744	1.113584657													107	1	18	1	2019_Dec_06_1110	Test	3.2.4	59.84127461		Pictures/IA75_L15.bmp	Pictures/IA75_L15.bmp	Pictures/IA75.bmp	"Trust me"	1	risk					1	0	1	0	0	11	11	6																															1157.037967	None	1159.059966	1160.563918	1160.547219	None	1162.118025	None	2	1164.08989	None	1164.08989	None	1164.08989	None	None	None	None	None	1165.493589	None	1165.493589	None	right	1165.493589	None	None	None	1165.79439	1167.498872	1.24839249	0.252686262													107	1	18	1	2019_Dec_06_1110	Test	3.2.4	59.84127461		Pictures/IA80_40_L95p.bmp	Pictures/IA80_40_L95p.bmp	Pictures/IA80.bmp	"Let's stay with the certain option."""""	0	safe					1	0	1	0	0	12	12	9																															1167.51557	None	1169.537567	1171.058239	1171.041544	None	1172.545495	None	1	1174.567504	None	1174.567504	None	1174.567504	None	1175.068829	None	1175.068829	1176.071462	1177.174374	None	1177.174374	None	right	1177.174374	None	None	None	1177.943051	1179.179667	0.378788427	0.731896228													107	1	18	1	2019_Dec_06_1110	Test	3.2.4	59.84127461		Pictures/IA110_55_G95p.bmp	Pictures/IA110_55_G95p.bmp	Pictures/IA110.bmp	"Take a chance!"""""	1	risk					1	0	1	0	0	13	13	0																															1179.196354	None	1181.235068	1182.755741	1182.739039	None	1184.276422	None	2	1186.248288	None	1186.248288	None	1186.248288	None	None	None	None	None	1187.718828	None	1187.718828	None	left	1187.718828	None	1188.871868	None	None	None	1.305989909	1.107447907													107	1	18	1	2019_Dec_06_1110	Test	3.2.4	59.84127461		Pictures/IA50_G40.bmp	Pictures/IA50_G40.bmp	Pictures/IA50.bmp	"It would probably be best to play it safe."""""	0	safe					1	0	1	0	0	14	14	11																															1189.724112	None	1191.74611	1193.26678	1193.250062	None	1194.770746	None	2	1196.776032	None	1196.776032	None	1196.776032	None	None	None	None	None	1197.828796	None	1197.828796	None	left	1197.828796	None	1198.112875	1199.817391	None	None	0.858247751	0.237476953													107	1	18	1	2019_Dec_06_1110	Test	3.2.4	59.84127461		Pictures/IA50_L20.bmp	Pictures/IA50_L20.bmp	Pictures/IA50.bmp	"Certainty is boring"	1	risk					1	0	1	0	0	15	15	12																															1199.834078	None	1201.856074	1203.376748	1203.360063	None	1204.897423	None	2	1206.88601	None	1206.88601	None	1206.88601	None	None	None	None	None	1208.540366	None	1208.540366	None	right	1208.540366	None	None	None	1208.857869	1210.528937	1.484268072	0.277900328													107	1	18	1	2019_Dec_06_1110	Test	3.2.4	59.84127461		Pictures/IA110_55_L95p.bmp	Pictures/IA110_55_L95p.bmp	Pictures/IA110.bmp	"Trust me"	1	risk					1	0	1	0	0	16	16	4																															1210.54564	None	1212.567634	1214.088313	1214.071617	None	1215.625696	None	1	1217.597568	None	1217.597568	None	1217.597568	None	1218.483232	None	1218.483232	1219.485866	1220.588778	None	1220.588778	None	right	1220.588778	None	None	None	1220.923	1222.594067	0.77272548	0.285508303													107	1	18	1	2019_Dec_06_1110	Test	3.2.4	59.84127461		Pictures/IA100_L40.bmp	Pictures/IA100_L40.bmp	Pictures/IA100.bmp	"Think of the payoff"	1	risk					1	0	1	0	0	17	17	19																															1222.610769	None	1224.632766	1226.153441	1226.136743	None	1227.674116	None	2	1229.662704	None	1229.662704	None	1229.662704	None	None	None	None	None	1230.314405	None	1230.314405	None	right	1230.314405	None	None	None	1230.648629	1232.3197	0.459577148	0.295863041													107	1	18	1	2019_Dec_06_1110	Test	3.2.4	59.84127461		Pictures/IA75_L30.bmp	Pictures/IA75_L30.bmp	Pictures/IA75.bmp	"Hold back"	0	safe					1	0	1	0	0	18	18	3																															1232.336402	None	1234.358434	1235.862403	1235.845686	None	1237.433178	None	2	1239.388333	None	1239.388333	None	1239.388333	None	None	None	None	None	1239.889644	None	1239.889644	None	right	1239.889644	None	None	None	1240.173723	1241.878224	0.325946384	0.248621134													107	1	18	1	2019_Dec_06_1110	Test	3.2.4	59.84127461		Pictures/IA25_L20.bmp	Pictures/IA25_L20.bmp	Pictures/IA25.bmp	"Don't be tempted to gamble."""""	0	safe					1	0	1	0	0	19	19	13																															1241.894924	None	1243.933633	1245.454304	1245.437609	None	1246.974994	None	1	1248.946859	None	1248.946859	None	1248.946859	None	1249.765684	None	1249.765684	1250.768318	1251.887944	None	1251.887944	None	left	1251.887944	None	1252.439398	1253.893248	None	None	0.703412858	0.514320235													107	1	18	1	2019_Dec_06_1110	Test	3.2.4	59.84127461												1	0	1	0																																																																									1254.060332	None	return	7.997933479	1254.060332	None	107	1	18	1	2019_Dec_06_1110	Test	3.2.4	59.84127461		Pictures/IA40_20_G95p.bmp	Pictures/IA40_20_G95p.bmp	Pictures/IA40.bmp	"Hold back"	0	safe					2	0	2	0	0	0	0	12													1262.248583	None	1262.248583	None	1262.248583	None	left	5.473687806	1262.248583	None	1262.248583	None	1262.248583	None	return	6.457472317	1262.248583	None	1268.765754	None	1270.787739	1272.308412	1272.291718	None	1273.812378	None	1	1275.784248	None	1275.784248	None	1275.784248	None	1276.435969	None	1276.435969	1277.438607	1278.54152	None	1278.54152	None	left	1278.54152	None	1278.859018	1280.530088	None	None	0.522038644	0.268753095													107	1	18	1	2019_Dec_06_1110	Test	3.2.4	59.84127461		Pictures/IA40_20_L95p.bmp	Pictures/IA40_20_L95p.bmp	Pictures/IA40.bmp	"Trust me"	1	risk					2	0	2	0	0	1	1	1																															1280.546791	None	1282.568787	1284.089472	1284.072764	None	1285.626863	None	1	1287.598713	None	1287.598713	None	1287.598713	None	1288.083322	None	1288.083322	1289.085986	1290.188872	None	1290.188872	None	right	1290.188872	None	None	None	1290.523095	1292.194164	0.379565949	0.29339567													107	1	18	1	2019_Dec_06_1110	Test	3.2.4	59.84127461		Pictures/IA20_10_G95p.bmp	Pictures/IA20_10_G95p.bmp	Pictures/IA20.bmp	"Take a leap"	1	risk					2	0	2	0	0	2	2	19																															1292.210864	None	1294.249571	1295.753543	1295.736828	None	1297.257509	None	2	1299.262796	None	1299.262796	None	1299.262796	None	None	None	None	None	1300.399122	None	1300.399122	None	left	1300.399122	None	1300.666482	1302.404395	None	None	0.947484088	0.227145464													107	1	18	1	2019_Dec_06_1110	Test	3.2.4	59.84127461		Pictures/IA20_10_L95p.bmp	Pictures/IA20_10_L95p.bmp	Pictures/IA20.bmp	"Don't be tempted to gamble."""""	0	safe					2	0	2	0	0	3	3	8																															1302.421115	None	1304.459847	1305.9638	1305.947104	None	1307.484496	None	2	1309.473052	None	1309.473052	None	1309.473052	None	None	None	None	None	1310.375413	None	1310.375413	None	right	1310.375413	None	None	None	1310.97699	1312.380688	0.713241938	0.562870731													107	1	18	1	2019_Dec_06_1110	Test	3.2.4	59.84127461		Pictures/IA50_L40.bmp	Pictures/IA50_L40.bmp	Pictures/IA50.bmp	"That gamble doesn't sound too good"	0	safe					2	0	2	0	0	4	4	15																															1312.397432	None	1314.436117	1315.956791	1315.940072	None	1317.477453	None	1	1319.449323	None	1319.449323	None	1319.449323	None	1320.468685	None	1320.468685	1321.47132	1322.590945	None	1322.590945	None	left	1322.590945	None	1323.67714	None	None	None	0.856954765	1.043323961													107	1	18	1	2019_Dec_06_1110	Test	3.2.4	59.84127461		Pictures/IA75_L60.bmp	Pictures/IA75_L60.bmp	Pictures/IA75.bmp	"Why not take the gamble?"""""	1	risk					2	0	2	0	0	5	5	17																															1324.596225	None	1326.634934	1328.155611	1328.138889	None	1329.676272	None	1	1331.648136	None	1331.648136	None	1331.648136	None	1332.34999	None	1332.34999	1333.352622	1334.455536	None	1334.455536	None	right	1334.455536	None	None	None	1334.940143	1336.444116	0.570148286	0.44274137													107	1	18	1	2019_Dec_06_1110	Test	3.2.4	59.84127461		Pictures/IA100_L20.bmp	Pictures/IA100_L20.bmp	Pictures/IA100.bmp	"Try to win as much money as you can"	1	risk					2	0	2	0	0	6	6	13																															1336.460816	None	1338.516239	1340.020208	1340.00349	None	1341.540875	None	2	1343.512738	None	1343.512738	None	1343.512738	None	None	None	None	None	1344.014072	None	1344.014072	None	right	1344.014072	None	None	None	1344.31485	1346.019351	0.329553183	0.260195941													107	1	18	1	2019_Dec_06_1110	Test	3.2.4	59.84127461		Pictures/IA50_L20.bmp	Pictures/IA50_L20.bmp	Pictures/IA50.bmp	"Certainty is boring"	1	risk					2	0	2	0	0	7	7	5																															1346.036052	None	1348.058046	1349.578723	1349.562025	None	1351.099407	None	1	1353.088	None	1353.088	None	1353.088	None	1353.973648	None	1353.973648	1354.976286	1356.095912	None	1356.095912	None	right	1356.095912	None	None	None	1356.981571	1358.101198	0.762284639	0.842355087													107	1	18	1	2019_Dec_06_1110	Test	3.2.4	59.84127461		Pictures/IA50_L30.bmp	Pictures/IA50_L30.bmp	Pictures/IA50.bmp	"Take a leap"	1	risk					2	0	2	0	0	8	8	2																															1358.117905	None	1360.1399	1361.660575	1361.643857	None	1363.197965	None	1	1365.169828	None	1365.169828	None	1365.169828	None	1366.874338	None	1366.874338	1367.876947	1368.979859	None	1368.979859	None	right	1368.979859	None	None	None	1370.701058	None	1.56845043	1.686413599													107	1	18	1	2019_Dec_06_1110	Test	3.2.4	59.84127461		Pictures/IA110_55_G95p.bmp	Pictures/IA110_55_G95p.bmp	Pictures/IA110.bmp	"Take a chance!"""""	1	risk					2	0	2	0	0	9	9	0																															1370.985154	None	1373.023864	1374.544531	1374.527819	None	1376.048486	None	1	1378.03708	None	1378.03708	None	1378.03708	None	1378.672068	None	1378.672068	1379.674707	1380.77762	None	1380.77762	None	left	1380.77762	None	1381.579747	1382.782909	None	None	0.557189636	0.752643501													107	1	18	1	2019_Dec_06_1110	Test	3.2.4	59.84127461		Pictures/IA80_40_G95p.bmp	Pictures/IA80_40_G95p.bmp	Pictures/IA80.bmp	"Think of the payoff"	1	risk					2	0	2	0	0	10	10	18																															1382.799616	None	1384.838319	1386.342292	1386.325573	None	1387.879679	None	2	1389.851544	None	1389.851544	None	1389.851544	None	None	None	None	None	1390.820767	None	1390.820767	None	left	1390.820767	None	1391.455759	1392.826053	None	None	0.814734957	0.589504961													107	1	18	1	2019_Dec_06_1110	Test	3.2.4	59.84127461		Pictures/IA100_G20.bmp	Pictures/IA100_G20.bmp	Pictures/IA100.bmp	"Go ahead and gamble!"""""	1	risk					2	0	2	0	0	11	11	10																															1392.842747	None	1394.864746	1396.385418	1396.368743	None	1397.922804	None	1	1399.894671	None	1399.894671	None	1399.894671	None	1400.496253	None	1400.496253	1401.498894	1402.601812	None	1402.601812	None	right	1402.601812	None	None	None	1403.571035	1404.607088	0.50760697	0.920457334													107	1	18	1	2019_Dec_06_1110	Test	3.2.4	59.84127461		Pictures/IA25_L5.bmp	Pictures/IA25_L5.bmp	Pictures/IA25.bmp	"It would be smarter to choose the safe option."""""	0	safe					2	0	2	0	0	12	12	16																															1404.623808	None	1406.662516	1408.183191	1408.166516	None	1409.687158	None	2	1411.675723	None	1411.675723	None	1411.675723	None	None	None	None	None	1412.294017	None	1412.294017	None	right	1412.294017	None	None	None	1412.628244	1414.29931	0.414558923	0.284258233													107	1	18	1	2019_Dec_06_1110	Test	3.2.4	59.84127461		Pictures/IA75_G30.bmp	Pictures/IA75_G30.bmp	Pictures/IA75.bmp	"Be bold"	1	risk					2	0	2	0	0	13	13	4																															1414.316008	None	1416.354716	1417.858689	1417.841971	None	1419.412788	None	2	1421.367934	None	1421.367934	None	1421.367934	None	None	None	None	None	1422.671368	None	1422.671368	None	right	1422.671368	None	None	None	1422.972173	1424.676647	1.146352067	0.250901315													107	1	18	1	2019_Dec_06_1110	Test	3.2.4	59.84127461		Pictures/IA100_L60.bmp	Pictures/IA100_L60.bmp	Pictures/IA100.bmp	"You'd have a lot to lose"	0	safe					2	0	2	0	0	14	14	14																															1424.693371	None	1426.715369	1428.236043	1428.219323	None	1429.77343	None	2	1431.745294	None	1431.745294	None	1431.745294	None	None	None	None	None	1432.480565	None	1432.480565	None	right	1432.480565	None	None	None	1432.781345	1434.485845	0.512979259	0.257708141													107	1	18	1	2019_Dec_06_1110	Test	3.2.4	59.84127461		Pictures/IA50_G10.bmp	Pictures/IA50_G10.bmp	Pictures/IA50.bmp	"Go with the safe option here!"""""	0	safe					2	0	2	0	0	15	15	11																															1434.502547	None	1436.524544	1438.045217	1438.028521	None	1439.582604	None	1	1441.554473	None	1441.554473	None	1441.554473	None	1442.156065	None	1442.156065	1443.158704	1444.261616	None	1444.261616	None	left	1444.261616	None	1445.013595	1446.250176	None	None	0.487809164	0.708660361													107	1	18	1	2019_Dec_06_1110	Test	3.2.4	59.84127461		Pictures/IA75_L15.bmp	Pictures/IA75_L15.bmp	Pictures/IA75.bmp	"Trust me"	1	risk					2	0	2	0	0	16	16	6																															1446.266901	None	1448.288895	1449.809569	1449.79285	None	1451.330244	None	2	1453.318811	None	1453.318811	None	1453.318811	None	None	None	None	None	1453.820133	None	1453.820133	None	right	1453.820133	None	None	None	1454.104223	1455.808717	0.347467641	0.238141984													107	1	18	1	2019_Dec_06_1110	Test	3.2.4	59.84127461		Pictures/IA80_40_L95p.bmp	Pictures/IA80_40_L95p.bmp	Pictures/IA80.bmp	"Let's stay with the certain option."""""	0	safe					2	0	2	0	0	17	17	7																															1455.825412	None	1457.864122	1459.384799	1459.368099	None	1460.905482	None	2	1462.877349	None	1462.877349	None	1462.877349	None	None	None	None	None	1463.646032	None	1463.646032	None	right	1463.646032	None	None	None	1464.364587	1465.634604	0.588935293	0.684230823													107	1	18	1	2019_Dec_06_1110	Test	3.2.4	59.84127461		Pictures/IA25_G20.bmp	Pictures/IA25_G20.bmp	Pictures/IA25.bmp	"I wouldn't gamble for this one. """""	0	safe					2	0	2	0	0	18	18	9																															1465.651323	None	1467.673323	1469.193991	1469.177279	None	1470.748091	None	2	1472.703236	None	1472.703236	None	1472.703236	None	None	None	None	None	1473.237941	None	1473.237941	None	right	1473.237941	None	None	None	1473.722585	1475.226561	0.371047168	0.436335346													107	1	18	1	2019_Dec_06_1110	Test	3.2.4	59.84127461		Pictures/IA100_G40.bmp	Pictures/IA100_G40.bmp	Pictures/IA100.bmp	"Try your luck and gamble!"""""	1	risk					2	0	2	0	0	19	19	3																															1475.243261	None	1477.265257	1478.78593	1478.769234	None	1480.323317	None	1	1482.295184	None	1482.295184	None	1482.295184	None	1482.72967	None	1482.72967	1483.73231	1484.83522	None	1484.83522	None	left	1484.83522	None	1485.537057	1486.840503	None	None	0.33109367	0.655053521													107	1	18	1	2019_Dec_06_1110	Test	3.2.4	59.84127461												2	0	2	0																																																																									1487.007604	None	return	10.34666417	1487.007604	None	107	1	18	1	2019_Dec_06_1110	Test	3.2.4	59.84127461		Pictures/IA50_G30.bmp	Pictures/IA50_G30.bmp	Pictures/IA50.bmp	"I think you should gamble."""""	1	risk					3	0	3	0	0	0	0	19													1497.535361	None	1497.535361	None	1497.535361	None	right	7.506932087	1497.535361	None	1497.535361	None	1497.535361	None	return	8.498839802	1497.535361	None	1506.091254	None	1508.096531	1509.617192	1509.600496	None	1511.137886	None	2	1513.109751	None	1513.109751	None	1513.109751	None	None	None	None	None	1513.594357	None	1513.594357	None	right	1513.594357	None	None	None	1514.429878	1515.599637	0.308540236	0.799916116													107	1	18	1	2019_Dec_06_1110	Test	3.2.4	59.84127461		Pictures/IA75_G45.bmp	Pictures/IA75_G45.bmp	Pictures/IA75.bmp	"Don't gamble for this one."""""	0	safe					3	0	3	0	0	1	1	7																															1515.616338	None	1517.638335	1519.159013	1519.142314	None	1520.696401	None	1	1522.668269	None	1522.668269	None	1522.668269	None	1523.921569	None	1523.921569	1524.924208	1526.027117	None	1526.027117	None	left	1526.027117	None	1527.8653	None	None	None	1.142014457	1.799161982													107	1	18	1	2019_Dec_06_1110	Test	3.2.4	59.84127461		Pictures/IA100_G80.bmp	Pictures/IA100_G80.bmp	Pictures/IA100.bmp	"Why not gamble?"""""	1	risk					3	0	3	0	0	2	2	4																															1528.049119	None	1530.071117	1531.591791	1531.575072	None	1533.145892	None	2	1535.101031	None	1535.101031	None	1535.101031	None	None	None	None	None	1535.769458	None	1535.769458	None	left	1535.769458	None	1536.504738	1537.758041	None	None	0.51725918	0.688815293													107	1	18	1	2019_Dec_06_1110	Test	3.2.4	59.84127461		Pictures/IA100_G60.bmp	Pictures/IA100_G60.bmp	Pictures/IA100.bmp	"Be cautious"	0	safe					3	0	3	0	0	3	3	18																															1537.774741	None	1539.796743	1541.317414	1541.300716	None	1542.854799	None	2	1544.826666	None	1544.826666	None	1544.826666	None	None	None	None	None	1545.311277	None	1545.311277	None	left	1545.311277	None	1545.628777	1547.299847	None	None	0.311614893	0.28298755													107	1	18	1	2019_Dec_06_1110	Test	3.2.4	59.84127461		Pictures/IA100_L80.bmp	Pictures/IA100_L80.bmp	Pictures/IA100.bmp	"Go all in!"""""	1	risk					3	0	3	0	0	4	4	1																															1547.316571	None	1549.338566	1550.859241	1550.842523	None	1552.413337	None	1	1554.368483	None	1554.368483	None	1554.368483	None	1554.752839	None	1554.752839	1555.755474	1556.858396	None	1556.858396	None	right	1556.858396	None	None	None	1558.128458	None	0.29779134	1.231886472													107	1	18	1	2019_Dec_06_1110	Test	3.2.4	59.84127461		Pictures/IA75_G60.bmp	Pictures/IA75_G60.bmp	Pictures/IA75.bmp	"Make it exciting"	1	risk					3	0	3	0	0	5	5	10																															1558.863673	None	1560.885668	1562.406341	1562.389623	None	1563.943733	None	2	1565.915596	None	1565.915596	None	1565.915596	None	None	None	None	None	1566.934949	None	1566.934949	None	left	1566.934949	None	1567.269149	1568.923508	None	None	0.84667906	0.299323553													107	1	18	1	2019_Dec_06_1110	Test	3.2.4	59.84127461		Pictures/IA80_40_G95p.bmp	Pictures/IA80_40_G95p.bmp	Pictures/IA80.bmp	"Think of the payoff"	1	risk					3	0	3	0	0	6	6	8																															1568.94023	None	1570.962227	1572.482901	1572.466183	None	1573.97016	None	1	1575.992144	None	1575.992144	None	1575.992144	None	1576.343076	None	1576.343076	1577.345708	1578.448623	None	1578.448623	None	left	1578.448623	None	1580.036137	None	None	None	0.250134381	1.54565337													107	1	18	1	2019_Dec_06_1110	Test	3.2.4	59.84127461		Pictures/IA50_L40.bmp	Pictures/IA50_L40.bmp	Pictures/IA50.bmp	"That gamble doesn't sound too good"	0	safe					3	0	3	0	0	7	7	14																															1580.45391	None	1582.475907	1583.996581	1583.979863	None	1585.517258	None	1	1587.505824	None	1587.505824	None	1587.505824	None	1588.809266	None	1588.809266	1589.811902	1590.914809	None	1590.914809	None	left	1590.914809	None	1592.819846	None	None	None	1.136448734	1.855465872													107	1	18	1	2019_Dec_06_1110	Test	3.2.4	59.84127461		Pictures/IA100_G20.bmp	Pictures/IA100_G20.bmp	Pictures/IA100.bmp	"Go ahead and gamble!"""""	1	risk					3	0	3	0	0	8	8	5																															1592.936812	None	1594.958809	1596.479484	1596.462766	None	1597.983452	None	1	1599.98874	None	1599.98874	None	1599.98874	None	1600.907826	None	1600.907826	1601.910464	1603.030089	None	1603.030089	None	right	1603.030089	None	None	None	1603.514694	1605.018647	0.805541026	0.444179884													107	1	18	1	2019_Dec_06_1110	Test	3.2.4	59.84127461		Pictures/IA75_L45.bmp	Pictures/IA75_L45.bmp	Pictures/IA75.bmp	"Don't gamble for this one"	0	safe					3	0	3	0	0	9	9	0																															1605.035371	None	1607.057366	1608.57804	1608.561322	None	1610.115428	None	1	1612.08731	None	1612.08731	None	1612.08731	None	1613.791783	None	1613.791783	1614.794413	1615.897325	None	1615.897325	None	right	1615.897325	None	None	None	1617.184047	None	1.55496144	1.248946894													107	1	18	1	2019_Dec_06_1110	Test	3.2.4	59.84127461		Pictures/IA75_L60.bmp	Pictures/IA75_L60.bmp	Pictures/IA75.bmp	"Why not take the gamble?"""""	1	risk					3	0	3	0	0	10	10	6																															1617.902605	None	1619.92461	1621.445277	1621.428597	None	1622.932548	None	1	1624.954543	None	1624.954543	None	1624.954543	None	1625.405719	None	1625.405719	1626.408357	1627.511272	None	1627.511272	None	right	1627.511272	None	None	None	1628.129562	1629.499851	0.327747764	0.571002513													107	1	18	1	2019_Dec_06_1110	Test	3.2.4	59.84127461		Pictures/IA50_G20.bmp	Pictures/IA50_G20.bmp	Pictures/IA50.bmp	"Let's venture and take a risk!"""""	1	risk					3	0	3	0	0	11	11	9																															1629.516551	None	1631.53855	1633.059222	1633.042527	None	1634.613319	None	2	1636.568487	None	1636.568487	None	1636.568487	None	None	None	None	None	1637.00296	None	1637.00296	None	left	1637.00296	None	1637.287034	1638.991536	None	None	0.265793175	0.24730768													107	1	18	1	2019_Dec_06_1110	Test	3.2.4	59.84127461		Pictures/IA50_L20.bmp	Pictures/IA50_L20.bmp	Pictures/IA50.bmp	"Certainty is boring"	1	risk					3	0	3	0	0	12	12	15																															1639.008236	None	1641.030233	1642.550907	1642.53421	None	1644.071583	None	2	1646.060171	None	1646.060171	None	1646.060171	None	None	None	None	None	1646.962539	None	1646.962539	None	right	1646.962539	None	None	None	1647.397025	1648.951119	0.726108697	0.391732051													107	1	18	1	2019_Dec_06_1110	Test	3.2.4	59.84127461		Pictures/IA25_G10.bmp	Pictures/IA25_G10.bmp	Pictures/IA25.bmp	"What's life without a little risk?"""""	1	risk					3	0	3	0	0	13	13	12																															1648.967826	None	1650.989818	1652.510495	1652.493797	None	1654.047879	None	1	1656.01975	None	1656.01975	None	1656.01975	None	1657.03911	None	1657.03911	1658.041748	1659.144676	None	1659.144676	None	right	1659.144676	None	None	None	1659.846495	1661.133233	0.886519811	0.665592222													107	1	18	1	2019_Dec_06_1110	Test	3.2.4	59.84127461		Pictures/IA110_55_L95p.bmp	Pictures/IA110_55_L95p.bmp	Pictures/IA110.bmp	"Trust me"	1	risk					3	0	3	0	0	14	14	16																															1661.149931	None	1663.205345	1664.709322	1664.692622	None	1666.196566	None	2	1668.201856	None	1668.201856	None	1668.201856	None	None	None	None	None	1668.853583	None	1668.853583	None	right	1668.853583	None	None	None	1669.104251	1670.842153	0.488436613	0.204692641													107	1	18	1	2019_Dec_06_1110	Test	3.2.4	59.84127461		Pictures/IA100_L40.bmp	Pictures/IA100_L40.bmp	Pictures/IA100.bmp	"Think of the payoff"	1	risk					3	0	3	0	0	15	15	3																															1670.858856	None	1672.880851	1674.401524	1674.384832	None	1675.938912	None	2	1677.910785	None	1677.910785	None	1677.910785	None	None	None	None	None	1678.529086	None	1678.529086	None	right	1678.529086	None	None	None	1678.763021	1680.534367	0.451498347	0.185197819													107	1	18	1	2019_Dec_06_1110	Test	3.2.4	59.84127461		Pictures/IA25_L15.bmp	Pictures/IA25_L15.bmp	Pictures/IA25.bmp	"There's not much on the line here"	1	risk					3	0	3	0	0	16	16	2																															1680.551067	None	1682.573064	1684.093759	1684.077042	None	1685.647838	None	1	1687.603009	None	1687.603009	None	1687.603009	None	1688.455247	None	1688.455247	1689.457892	1690.57751	None	1690.57751	None	right	1690.57751	None	None	None	1690.928431	1692.566069	0.711277415	0.312776992													107	1	18	1	2019_Dec_06_1110	Test	3.2.4	59.84127461		Pictures/IA20_10_L95p.bmp	Pictures/IA20_10_L95p.bmp	Pictures/IA20.bmp	"Don't be tempted to gamble."""""	0	safe					3	0	3	0	0	17	17	11																															1692.58279	None	1694.62152	1696.125454	1696.10876	None	1697.629435	None	2	1699.634706	None	1699.634706	None	1699.634706	None	None	None	None	None	1700.0859	None	1700.0859	None	right	1700.0859	None	None	None	1700.369973	1702.074475	0.279572139	0.244369149													107	1	18	1	2019_Dec_06_1110	Test	3.2.4	59.84127461		Pictures/IA75_L30.bmp	Pictures/IA75_L30.bmp	Pictures/IA75.bmp	"Hold back"	0	safe					3	0	3	0	0	18	18	13																															1702.091185	None	1704.113171	1705.633846	1705.617149	None	1707.154531	None	2	1709.143113	None	1709.143113	None	1709.143113	None	None	None	None	None	1709.560883	None	1709.560883	None	right	1709.560883	None	None	None	1709.844958	1711.549437	0.243169921	0.249399847													107	1	18	1	2019_Dec_06_1110	Test	3.2.4	59.84127461		Pictures/IA80_40_L95p.bmp	Pictures/IA80_40_L95p.bmp	Pictures/IA80.bmp	"Let's stay with the certain option."""""	0	safe					3	0	3	0	0	19	19	17																															1711.566159	None	1713.588159	1715.108836	1715.09212	None	1716.596085	None	2	1718.618079	None	1718.618079	None	1718.618079	None	None	None	None	None	1719.069262	None	1719.069262	None	right	1719.069262	None	None	None	1719.386764	1721.057832	0.272204684	0.26900945													107	1	18	1	2019_Dec_06_1110	Test	3.2.4	59.84127461												3	0	3	0																																																																									1721.224957	None	return	10.99330836	1721.224957	None	107	1	18	1	2019_Dec_06_1110	Test	3.2.4	59.84127461		Pictures/IA100_G80.bmp	Pictures/IA100_G80.bmp	Pictures/IA100.bmp	"Why not gamble?"""""	1	risk					4	0	4	0	0	0	0	11													1732.404411	None	1732.404411	None	1732.404411	None	right	6.589861894	1732.404411	None	1732.404411	None	1732.404411	None	return	7.437641472	1732.404411	None	1739.907532	None	1741.912802	1743.433478	1743.41678	None	1744.904037	None	2	1746.926021	None	1746.926021	None	1746.926021	None	None	None	None	None	1747.477483	None	1747.477483	None	left	1747.477483	None	1747.811684	1749.482754	None	None	0.388266102	0.292790113													107	1	18	1	2019_Dec_06_1110	Test	3.2.4	59.84127461		Pictures/IA75_G15.bmp	Pictures/IA75_G15.bmp	Pictures/IA75.bmp	"Take a chance!"""""	1	risk					4	0	4	0	0	1	1	7																															1749.499477	None	1751.521479	1753.042151	1753.025435	None	1754.579533	None	2	1756.551401	None	1756.551401	None	1756.551401	None	None	None	None	None	1757.888262	None	1757.888262	None	right	1757.888262	None	None	None	1758.172341	1759.876821	1.178877431	0.250010297													107	1	18	1	2019_Dec_06_1110	Test	3.2.4	59.84127461		Pictures/IA100_L20.bmp	Pictures/IA100_L20.bmp	Pictures/IA100.bmp	"Try to win as much money as you can"	1	risk					4	0	4	0	0	2	2	1																															1759.893539	None	1761.915538	1763.419489	1763.402793	None	1764.940176	None	2	1766.945464	None	1766.945464	None	1766.945464	None	None	None	None	None	1767.413353	None	1767.413353	None	right	1767.413353	None	None	None	1767.747573	1769.418645	0.288824586	0.292930326													107	1	18	1	2019_Dec_06_1110	Test	3.2.4	59.84127461		Pictures/IA20_10_L95p.bmp	Pictures/IA20_10_L95p.bmp	Pictures/IA20.bmp	"Don't be tempted to gamble."""""	0	safe					4	0	4	0	0	3	3	8																															1769.435346	None	1771.457343	1772.978015	1772.96132	None	1774.465272	None	2	1776.487279	None	1776.487279	None	1776.487279	None	None	None	None	None	1777.055411	None	1777.055411	None	right	1777.055411	None	None	None	1777.372944	1779.060716	0.403003174	0.274876674													107	1	18	1	2019_Dec_06_1110	Test	3.2.4	59.84127461		Pictures/IA110_55_L95p.bmp	Pictures/IA110_55_L95p.bmp	Pictures/IA110.bmp	"Trust me"	1	risk					4	0	4	0	0	4	4	3																															1779.077436	None	1781.116106	1782.636818	1782.620105	None	1784.107361	None	2	1786.129363	None	1786.129363	None	1786.129363	None	None	None	None	None	1786.613967	None	1786.613967	None	right	1786.613967	None	None	None	1786.948182	1788.602543	0.328921787	0.292308104													107	1	18	1	2019_Dec_06_1110	Test	3.2.4	59.84127461		Pictures/IA50_L20.bmp	Pictures/IA50_L20.bmp	Pictures/IA50.bmp	"Certainty is boring"	1	risk					4	0	4	0	0	5	5	13																															1788.619241	None	1790.641242	1792.161913	1792.145219	None	1793.682589	None	1	1795.671178	None	1795.671178	None	1795.671178	None	1796.389725	None	1796.389725	1797.392364	1798.495281	None	1798.495281	None	right	1798.495281	None	None	None	1798.87962	1800.483847	0.595103268	0.338994057													107	1	18	1	2019_Dec_06_1110	Test	3.2.4	59.84127461		Pictures/IA25_L10.bmp	Pictures/IA25_L10.bmp	Pictures/IA25.bmp	"Dont be afraid to take the risk!"""""	1	risk					4	0	4	0	0	6	6	6																															1800.500569	None	1802.522572	1804.043239	1804.026522	None	1805.580628	None	2	1807.552493	None	1807.552493	None	1807.552493	None	None	None	None	None	1808.070514	None	1808.070514	None	right	1808.070514	None	None	None	1808.388015	1810.05909	0.35379001	0.275758657													107	1	18	1	2019_Dec_06_1110	Test	3.2.4	59.84127461		Pictures/IA75_L60.bmp	Pictures/IA75_L60.bmp	Pictures/IA75.bmp	"Why not take the gamble?"""""	1	risk					4	0	4	0	0	7	7	4																															1810.075806	None	1812.097813	1813.618477	1813.601761	None	1815.122443	None	1	1817.127733	None	1817.127733	None	1817.127733	None	1817.913133	None	1817.913133	1818.915773	1820.018685	None	1820.018685	None	right	1820.018685	None	None	None	1821.405669	None	0.682548275	1.351579516													107	1	18	1	2019_Dec_06_1110	Test	3.2.4	59.84127461		Pictures/IA50_L30.bmp	Pictures/IA50_L30.bmp	Pictures/IA50.bmp	"Take a leap"	1	risk					4	0	4	0	0	8	8	9																															1822.023954	None	1824.045952	1825.549924	1825.533208	None	1827.070568	None	1	1829.07588	None	1829.07588	None	1829.07588	None	1829.577209	None	1829.577209	1830.579849	1831.682763	None	1831.682763	None	right	1831.682763	None	None	None	1832.033682	1833.671322	0.366398995	0.303510062													107	1	18	1	2019_Dec_06_1110	Test	3.2.4	59.84127461		Pictures/IA20_10_G95p.bmp	Pictures/IA20_10_G95p.bmp	Pictures/IA20.bmp	"Take a leap"	1	risk					4	0	4	0	0	9	9	12																															1833.688042	None	1835.710041	1837.230715	1837.213996	None	1838.734683	None	2	1840.73997	None	1840.73997	None	1840.73997	None	None	None	None	None	1842.411024	None	1842.411024	None	left	1842.411024	None	1843.096175	1844.399607	None	None	1.526314385	0.647246013													107	1	18	1	2019_Dec_06_1110	Test	3.2.4	59.84127461		Pictures/IA50_G20.bmp	Pictures/IA50_G20.bmp	Pictures/IA50.bmp	"Let's venture and take a risk!"""""	1	risk					4	0	4	0	0	10	10	18																															1844.416308	None	1846.438307	1847.958978	1847.942283	None	1849.446234	None	2	1851.468244	None	1851.468244	None	1851.468244	None	None	None	None	None	1851.902727	None	1851.902727	None	left	1851.902727	None	1852.2035	1853.908001	None	None	0.270041591	0.259544249													107	1	18	1	2019_Dec_06_1110	Test	3.2.4	59.84127461		Pictures/IA75_G60.bmp	Pictures/IA75_G60.bmp	Pictures/IA75.bmp	"Make it exciting"	1	risk					4	0	4	0	0	11	11	14																															1853.924703	None	1855.946703	1857.467374	1857.450678	None	1858.95463	None	2	1860.976638	None	1860.976638	None	1860.976638	None	None	None	None	None	1861.594935	None	1861.594935	None	left	1861.594935	None	1861.912433	1863.583504	None	None	0.449636405	0.271337808													107	1	18	1	2019_Dec_06_1110	Test	3.2.4	59.84127461		Pictures/IA110_55_G95p.bmp	Pictures/IA110_55_G95p.bmp	Pictures/IA110.bmp	"Take a chance!"""""	1	risk					4	0	4	0	0	12	12	16																															1863.600209	None	1865.622202	1867.142876	1867.12618	None	1868.646837	None	2	1870.652129	None	1870.652129	None	1870.652129	None	None	None	None	None	1871.521095	None	1871.521095	None	left	1871.521095	None	1871.771754	1873.509665	None	None	0.734145338	0.201177299													107	1	18	1	2019_Dec_06_1110	Test	3.2.4	59.84127461		Pictures/IA100_L80.bmp	Pictures/IA100_L80.bmp	Pictures/IA100.bmp	"Go all in!"""""	1	risk					4	0	4	0	0	13	13	19																															1873.526371	None	1875.548363	1877.069038	1877.05234	None	1878.606432	None	1	1880.578292	None	1880.578292	None	1880.578292	None	1880.945925	None	1880.945925	1881.948565	1883.051477	None	1883.051477	None	right	1883.051477	None	None	None	1883.352276	1885.056755	0.279978808	0.262796404													107	1	18	1	2019_Dec_06_1110	Test	3.2.4	59.84127461		Pictures/IA25_L5.bmp	Pictures/IA25_L5.bmp	Pictures/IA25.bmp	"It would be smarter to choose the safe option."""""	0	safe					4	0	4	0	0	14	14	10																															1885.073478	None	1887.095494	1888.61615	1888.599431	None	1890.120117	None	2	1892.125408	None	1892.125408	None	1892.125408	None	None	None	None	None	1892.57658	None	1892.57658	None	right	1892.57658	None	None	None	1893.027767	1894.56515	0.220875382	0.401697375													107	1	18	1	2019_Dec_06_1110	Test	3.2.4	59.84127461		Pictures/IA100_G20.bmp	Pictures/IA100_G20.bmp	Pictures/IA100.bmp	"Go ahead and gamble!"""""	1	risk					4	0	4	0	0	15	15	15																															1894.581873	None	1896.603874	1898.124544	1898.10783	None	1899.645225	None	2	1901.633786	None	1901.633786	None	1901.633786	None	None	None	None	None	1902.151831	None	1902.151831	None	left	1902.151831	None	1902.435907	1904.140393	None	None	0.352479722	0.242443802													107	1	18	1	2019_Dec_06_1110	Test	3.2.4	59.84127461		Pictures/IA40_20_L95p.bmp	Pictures/IA40_20_L95p.bmp	Pictures/IA40.bmp	"Trust me"	1	risk					4	0	4	0	0	16	16	2																															1904.157111	None	1906.179112	1907.699785	1907.683061	None	1909.203747	None	2	1911.209036	None	1911.209036	None	1911.209036	None	None	None	None	None	1911.693645	None	1911.693645	None	right	1911.693645	None	None	None	1911.977724	1913.682203	0.313244453	0.23663138													107	1	18	1	2019_Dec_06_1110	Test	3.2.4	59.84127461		Pictures/IA75_L15.bmp	Pictures/IA75_L15.bmp	Pictures/IA75.bmp	"Trust me"	1	risk					4	0	4	0	0	17	17	0																															1913.698927	None	1915.720923	1917.241596	1917.22488	None	1918.745565	None	2	1920.750856	None	1920.750856	None	1920.750856	None	None	None	None	None	1921.185326	None	1921.185326	None	right	1921.185326	None	None	None	1921.43599	1923.173899	0.315430952	0.216946856													107	1	18	1	2019_Dec_06_1110	Test	3.2.4	59.84127461		Pictures/IA75_G30.bmp	Pictures/IA75_G30.bmp	Pictures/IA75.bmp	"Be bold"	1	risk					4	0	4	0	0	18	18	17																															1923.190599	None	1925.212599	1926.733269	1926.716577	None	1928.237236	None	2	1930.242525	None	1930.242525	None	1930.242525	None	None	None	None	None	1930.844111	None	1930.844111	None	left	1930.844111	None	1931.011225	1932.849388	None	None	0.447752515	0.118173574													107	1	18	1	2019_Dec_06_1110	Test	3.2.4	59.84127461		Pictures/IA25_G15.bmp	Pictures/IA25_G15.bmp	Pictures/IA25.bmp	"I think you should take a gamble."""""	1	risk					4	0	4	0	0	19	19	5																															1932.866111	None	1934.888106	1936.408782	1936.392064	None	1937.96288	None	None	1939.918024	None	1939.918024	None	1939.918024	None	None	None	None	None	1943.042937	None	1943.042937	None	left	1943.042937	None	1944.881102	None	None	None		1.799335674													107	1	18	1	2019_Dec_06_1110	Test	3.2.4	59.84127461												4	0	4	0																																																																									1945.215321	None	return	9.314943759	1945.215321	None	107	1	18	1	2019_Dec_06_1110	Test	3.2.4	59.84127461		Pictures/IA50_L10.bmp	Pictures/IA50_L10.bmp	Pictures/IA50.bmp	"Play it safe"	0	safe					5	0	5	0	0	0	0	2													1954.690301	None	1954.690301	None	1954.690301	None	right	1.159970209	1954.690301	None	1954.690301	None	1954.690301	None	return	1.975843075	1954.690301	None	1956.729006	None	1958.734282	1960.254955	1960.238257	None	1961.775647	None	None	1963.747508	None	1963.747508	None	1963.747508	None	None	None	None	None	1966.855688	None	1966.855688	None	right	1966.855688	None	None	None	1967.707904	1968.844269		0.802581027													107	1	18	1	2019_Dec_06_1110	Test	3.2.4	59.84127461		Pictures/IA80_40_G95p.bmp	Pictures/IA80_40_G95p.bmp	Pictures/IA80.bmp	"Think of the payoff"	1	risk					5	0	5	0	0	1	1	9																															1968.860969	None	1970.882968	1972.40364	1972.386944	None	1973.924318	None	2	1975.912904	None	1975.912904	None	1975.912904	None	None	None	None	None	1976.414212	None	1976.414212	None	left	1976.414212	None	1976.731714	1978.402794	None	None	0.329375618	0.276046105													107	1	18	1	2019_Dec_06_1110	Test	3.2.4	59.84127461		Pictures/IA20_10_L95p.bmp	Pictures/IA20_10_L95p.bmp	Pictures/IA20.bmp	"Don't be tempted to gamble."""""	0	safe					5	0	5	0	0	2	2	1																															1978.419494	None	1980.441493	1981.962167	1981.945469	None	1983.449421	None	2	1985.471429	None	1985.471429	None	1985.471429	None	None	None	None	None	1985.956039	None	1985.956039	None	right	1985.956039	None	None	None	1986.256818	1987.961321	0.306855522	0.262232414													107	1	18	1	2019_Dec_06_1110	Test	3.2.4	59.84127461		Pictures/IA25_L5.bmp	Pictures/IA25_L5.bmp	Pictures/IA25.bmp	"It would be smarter to choose the safe option."""""	0	safe					5	0	5	0	0	3	3	15																															1987.978021	None	1990.000017	1991.520692	1991.503995	None	1993.007946	None	2	1995.029955	None	1995.029955	None	1995.029955	None	None	None	None	None	1995.63153	None	1995.63153	None	right	1995.63153	None	None	None	1995.965751	1997.636823	0.420325958	0.298734832													107	1	18	1	2019_Dec_06_1110	Test	3.2.4	59.84127461		Pictures/IA40_20_L95p.bmp	Pictures/IA40_20_L95p.bmp	Pictures/IA40.bmp	"Trust me"	1	risk					5	0	5	0	0	4	4	7																															1997.653529	None	1999.675519	2001.196193	2001.179496	None	2002.683446	None	2	2004.705458	None	2004.705458	None	2004.705458	None	None	None	None	None	2005.123213	None	2005.123213	None	right	2005.123213	None	None	None	2005.373869	2007.111796	0.264818161	0.215059701													107	1	18	1	2019_Dec_06_1110	Test	3.2.4	59.84127461		Pictures/IA80_40_L95p.bmp	Pictures/IA80_40_L95p.bmp	Pictures/IA80.bmp	"Let's stay with the certain option."""""	0	safe					5	0	5	0	0	5	5	4																															2007.128506	None	2009.150502	2010.671174	2010.654457	None	2012.191855	None	2	2014.180417	None	2014.180417	None	2014.180417	None	None	None	None	None	2014.715171	None	2014.715171	None	right	2014.715171	None	None	None	2015.116226	2016.720439	0.35786225	0.351087493													107	1	18	1	2019_Dec_06_1110	Test	3.2.4	59.84127461		Pictures/IA75_G15.bmp	Pictures/IA75_G15.bmp	Pictures/IA75.bmp	"Take a chance!"""""	1	risk					5	0	5	0	0	6	6	12																															2016.737167	None	2018.759162	2020.279834	2020.263114	None	2021.767088	None	2	2023.789078	None	2023.789078	None	2023.789078	None	None	None	None	None	2024.691452	None	2024.691452	None	left	2024.691452	None	2025.142638	2026.680021	None	None	0.741200753	0.414823141													107	1	18	1	2019_Dec_06_1110	Test	3.2.4	59.84127461		Pictures/IA100_G60.bmp	Pictures/IA100_G60.bmp	Pictures/IA100.bmp	"Be cautious"	0	safe					5	0	5	0	0	7	7	8																															2026.696746	None	2028.735476	2030.239416	2030.222696	None	2031.743382	None	2	2033.748669	None	2033.748669	None	2033.748669	None	None	None	None	None	2034.300118	None	2034.300118	None	left	2034.300118	None	2034.600898	2036.305403	None	None	0.373618641	0.262166181													107	1	18	1	2019_Dec_06_1110	Test	3.2.4	59.84127461		Pictures/IA20_10_G95p.bmp	Pictures/IA20_10_G95p.bmp	Pictures/IA20.bmp	"Take a leap"	1	risk					5	0	5	0	0	8	8	0																															2036.322102	None	2038.344101	2039.864772	2039.848074	None	2041.352026	None	2	2043.374041	None	2043.374041	None	2043.374041	None	None	None	None	None	2043.808508	None	2043.808508	None	left	2043.808508	None	2044.126003	2045.797072	None	None	0.260246124	0.273763872													107	1	18	1	2019_Dec_06_1110	Test	3.2.4	59.84127461		Pictures/IA100_G40.bmp	Pictures/IA100_G40.bmp	Pictures/IA100.bmp	"Try your luck and gamble!"""""	1	risk					5	0	5	0	0	9	9	16																															2045.813801	None	2047.835794	2049.356467	2049.339747	None	2050.877142	None	2	2052.865707	None	2052.865707	None	2052.865707	None	None	None	None	None	2053.43387	None	2053.43387	None	left	2053.43387	None	2053.717949	2055.42245	None	None	0.408574033	0.248395187													107	1	18	1	2019_Dec_06_1110	Test	3.2.4	59.84127461		Pictures/IA75_L45.bmp	Pictures/IA75_L45.bmp	Pictures/IA75.bmp	"Don't gamble for this one"	0	safe					5	0	5	0	0	10	10	5																															2055.439153	None	2057.46115	2058.981823	2058.965125	None	2060.5025	None	2	2062.491085	None	2062.491085	None	2062.491085	None	None	None	None	None	2063.376742	None	2063.376742	None	right	2063.376742	None	None	None	2063.644121	2065.382034	0.695207307	0.233530841													107	1	18	1	2019_Dec_06_1110	Test	3.2.4	59.84127461		Pictures/IA100_L20.bmp	Pictures/IA100_L20.bmp	Pictures/IA100.bmp	"Try to win as much money as you can"	1	risk					5	0	5	0	0	11	11	18																															2065.398734	None	2067.420732	2068.941403	2068.924709	None	2070.445368	None	2	2072.450658	None	2072.450658	None	2072.450658	None	None	None	None	None	2072.901857	None	2072.901857	None	right	2072.901857	None	None	None	2073.202634	2074.907137	0.26363334	0.26041528													107	1	18	1	2019_Dec_06_1110	Test	3.2.4	59.84127461		Pictures/IA25_G20.bmp	Pictures/IA25_G20.bmp	Pictures/IA25.bmp	"I wouldn't gamble for this one. """""	0	safe					5	0	5	0	0	12	12	10																															2074.923839	None	2076.945837	2078.466507	2078.44981	None	2079.970474	None	2	2081.975761	None	2081.975761	None	2081.975761	None	None	None	None	None	2082.660905	None	2082.660905	None	right	2082.660905	None	None	None	2082.794592	2084.666191	0.514519413	0.093380038													107	1	18	1	2019_Dec_06_1110	Test	3.2.4	59.84127461		Pictures/IA75_G30.bmp	Pictures/IA75_G30.bmp	Pictures/IA75.bmp	"Be bold"	1	risk					5	0	5	0	0	13	13	13																															2084.682894	None	2086.704892	2088.22556	2088.208864	None	2089.712815	None	2	2091.734824	None	2091.734824	None	2091.734824	None	None	None	None	None	2092.219422	None	2092.219422	None	left	2092.219422	None	2092.436664	2094.208004	None	None	0.33144771	0.174851274													107	1	18	1	2019_Dec_06_1110	Test	3.2.4	59.84127461		Pictures/IA50_L20.bmp	Pictures/IA50_L20.bmp	Pictures/IA50.bmp	"Certainty is boring"	1	risk					5	0	5	0	0	14	14	3																															2094.224703	None	2096.246701	2097.750664	2097.733968	None	2099.27135	None	2	2101.276638	None	2101.276638	None	2101.276638	None	None	None	None	None	2101.911637	None	2101.911637	None	right	2101.911637	None	None	None	2102.162296	2103.900204	0.461641217	0.210628221													107	1	18	1	2019_Dec_06_1110	Test	3.2.4	59.84127461		Pictures/IA50_G30.bmp	Pictures/IA50_G30.bmp	Pictures/IA50.bmp	"I think you should gamble."""""	1	risk					5	0	5	0	0	15	15	6																															2103.916924	None	2105.938922	2107.459599	2107.442878	None	2108.980273	None	2	2110.968841	None	2110.968841	None	2110.968841	None	None	None	None	None	2111.603856	None	2111.603856	None	left	2111.603856	None	2112.188727	2113.592425	None	None	0.465435663	0.550422913													107	1	18	1	2019_Dec_06_1110	Test	3.2.4	59.84127461		Pictures/IA25_L20.bmp	Pictures/IA25_L20.bmp	Pictures/IA25.bmp	"Don't be tempted to gamble."""""	0	safe					5	0	5	0	0	16	16	11																															2113.609124	None	2115.631123	2117.151793	2117.135099	None	2118.67247	None	None	2120.66106	None	2120.66106	None	2120.66106	None	None	None	None	None	2123.752528	None	2123.752528	None	left	2123.752528	None	2124.15359	2125.757818	None	None		0.353749864													107	1	18	1	2019_Dec_06_1110	Test	3.2.4	59.84127461		Pictures/IA100_L40.bmp	Pictures/IA100_L40.bmp	Pictures/IA100.bmp	"Think of the payoff"	1	risk					5	0	5	0	0	17	17	14																															2125.774519	None	2127.796516	2129.317191	2129.300495	None	2130.837866	None	2	2132.826452	None	2132.826452	None	2132.826452	None	None	None	None	None	2133.829081	None	2133.829081	None	right	2133.829081	None	None	None	2134.380538	2135.817665	0.82384194	0.517183375													107	1	18	1	2019_Dec_06_1110	Test	3.2.4	59.84127461		Pictures/IA25_L15.bmp	Pictures/IA25_L15.bmp	Pictures/IA25.bmp	"There's not much on the line here"	1	risk					5	0	5	0	0	18	18	19																															2135.834371	None	2137.856362	2139.377034	2139.360337	None	2140.897712	None	2	2142.886299	None	2142.886299	None	2142.886299	None	None	None	None	None	2143.805387	None	2143.805387	None	right	2143.805387	None	None	None	2144.507222	2145.810668	0.747977627	0.652883272													107	1	18	1	2019_Dec_06_1110	Test	3.2.4	59.84127461		Pictures/IA75_L15.bmp	Pictures/IA75_L15.bmp	Pictures/IA75.bmp	"Trust me"	1	risk					5	0	5	0	0	19	19	17																															2145.827368	None	2147.849365	2149.370036	2149.353343	None	2150.874002	None	2	2152.87929	None	2152.87929	None	2152.87929	None	None	None	None	None	2155.553007	None	2155.553007	None	right	2155.553007	None	None	None	2156.304981	2157.541582	2.506997007	0.705269231													107	1	18	1	2019_Dec_06_1110	Test	3.2.4	59.84127461												5	0	5	0																																																																									2157.708651	None	return	8.653597711	2157.708651	None	107	1	18	1	2019_Dec_06_1110	Test	3.2.4	59.84127461		Pictures/IA25_L5.bmp	Pictures/IA25_L5.bmp	Pictures/IA25.bmp	"It would be smarter to choose the safe option."""""	0	safe					6	0	6	0	0	0	0	18													2166.51523	None	2166.51523	None	2166.51523	None	right	1.567035361	2166.51523	None	2166.51523	None	2166.51523	None	return	2.286814484	2166.51523	None	2168.854721	None	2170.860015	2172.380689	2172.363975	None	2173.884644	None	None	2175.873235	None	2175.873235	None	2175.873235	None	None	None	None	None	2179.014832	None	2179.014832	None	right	2179.014832	None	None	None	2179.699968	2181.003412		0.643439819													107	1	18	1	2019_Dec_06_1110	Test	3.2.4	59.84127461		Pictures/IA80_40_L95p.bmp	Pictures/IA80_40_L95p.bmp	Pictures/IA80.bmp	"Let's stay with the certain option."""""	0	safe					6	0	6	0	0	1	1	4																															2181.020113	None	2183.042118	2184.562783	2184.546088	None	2186.08346	None	2	2188.072047	None	2188.072047	None	2188.072047	None	None	None	None	None	2188.707043	None	2188.707043	None	right	2188.707043	None	None	None	2188.824015	2190.69561	0.466218733	0.071240751													107	1	18	1	2019_Dec_06_1110	Test	3.2.4	59.84127461		Pictures/IA40_20_G95p.bmp	Pictures/IA40_20_G95p.bmp	Pictures/IA40.bmp	"Hold back"	0	safe					6	0	6	0	0	2	2	13																															2190.712332	None	2192.734334	2194.255002	2194.238285	None	2195.775681	None	2	2197.764246	None	2197.764246	None	2197.764246	None	None	None	None	None	2198.850445	None	2198.850445	None	left	2198.850445	None	2199.15124	2200.855722	None	None	0.910035719	0.255834594													107	1	18	1	2019_Dec_06_1110	Test	3.2.4	59.84127461		Pictures/IA75_G60.bmp	Pictures/IA75_G60.bmp	Pictures/IA75.bmp	"Make it exciting"	1	risk					6	0	6	0	0	3	3	7																															2200.872441	None	2202.894441	2204.415112	2204.398393	None	2205.935787	None	2	2207.92435	None	2207.92435	None	2207.92435	None	None	None	None	None	2208.442384	None	2208.442384	None	left	2208.442384	None	2208.659621	2210.430966	None	None	0.349928541	0.175887833													107	1	18	1	2019_Dec_06_1110	Test	3.2.4	59.84127461		Pictures/IA100_L80.bmp	Pictures/IA100_L80.bmp	Pictures/IA100.bmp	"Go all in!"""""	1	risk					6	0	6	0	0	4	4	12																															2210.447665	None	2212.469665	2213.990334	2213.973639	None	2215.511011	None	2	2217.499603	None	2217.499603	None	2217.499603	None	None	None	None	None	2218.970129	None	2218.970129	None	right	2218.970129	None	None	None	2219.788967	2220.958707	1.32667613	0.78414012													107	1	18	1	2019_Dec_06_1110	Test	3.2.4	59.84127461		Pictures/IA25_L10.bmp	Pictures/IA25_L10.bmp	Pictures/IA25.bmp	"Dont be afraid to take the risk!"""""	1	risk					6	0	6	0	0	5	5	5																															2220.975409	None	2222.997406	2224.518078	2224.501382	None	2226.022007	None	2	2228.027332	None	2228.027332	None	2228.027332	None	None	None	None	None	2228.913013	None	2228.913013	None	right	2228.913013	None	None	None	2229.765251	2230.901577	0.686952155	0.809263248													107	1	18	1	2019_Dec_06_1110	Test	3.2.4	59.84127461		Pictures/IA100_L20.bmp	Pictures/IA100_L20.bmp	Pictures/IA100.bmp	"Try to win as much money as you can"	1	risk					6	0	6	0	0	6	6	2																															2230.91828	None	2232.940273	2234.460947	2234.444252	None	2235.948205	None	2	2237.970212	None	2237.970212	None	2237.970212	None	None	None	None	None	2238.471519	None	2238.471519	None	right	2238.471519	None	None	None	2238.805743	2240.47681	0.320068793	0.290765704													107	1	18	1	2019_Dec_06_1110	Test	3.2.4	59.84127461		Pictures/IA50_L30.bmp	Pictures/IA50_L30.bmp	Pictures/IA50.bmp	"Take a leap"	1	risk					6	0	6	0	0	7	7	10																															2240.493512	None	2242.515509	2244.036182	2244.019485	None	2245.540152	None	1	2247.545437	None	2247.545437	None	2247.545437	None	2248.631633	None	2248.631633	2249.634266	2250.737177	None	2250.737177	None	right	2250.737177	None	None	None	2251.054678	2252.725746	0.944842814	0.273105416													107	1	18	1	2019_Dec_06_1110	Test	3.2.4	59.84127461		Pictures/IA75_L15.bmp	Pictures/IA75_L15.bmp	Pictures/IA75.bmp	"Trust me"	1	risk					6	0	6	0	0	8	8	3																															2252.742472	None	2254.764466	2256.285142	2256.268421	None	2257.805817	None	2	2259.794379	None	2259.794379	None	2259.794379	None	None	None	None	None	2260.512941	None	2260.512941	None	right	2260.512941	None	None	None	2260.646639	2262.51823	0.53591288	0.097328836													107	1	18	1	2019_Dec_06_1110	Test	3.2.4	59.84127461		Pictures/IA110_55_L95p.bmp	Pictures/IA110_55_L95p.bmp	Pictures/IA110.bmp	"Trust me"	1	risk					6	0	6	0	0	9	9	0																															2262.534931	None	2264.556925	2266.0776	2266.060913	None	2267.598279	None	2	2269.586863	None	2269.586863	None	2269.586863	None	None	None	None	None	2270.405676	None	2270.405676	None	right	2270.405676	None	None	None	2270.656339	2272.394334	0.695411311	0.204600267													107	1	18	1	2019_Dec_06_1110	Test	3.2.4	59.84127461		Pictures/IA50_G10.bmp	Pictures/IA50_G10.bmp	Pictures/IA50.bmp	"Go with the safe option here!"""""	0	safe					6	0	6	0	0	10	10	1																															2272.411065	None	2274.432984	2275.953635	2275.936924	None	2277.457605	None	1	2279.479618	None	2279.479618	None	2279.479618	None	2280.432098	None	2280.432098	2281.434736	2282.554357	None	2282.554357	None	left	2282.554357	None	2283.323074	2284.559636	None	None	0.842670117	0.727891119													107	1	18	1	2019_Dec_06_1110	Test	3.2.4	59.84127461		Pictures/IA25_G5.bmp	Pictures/IA25_G5.bmp	Pictures/IA25.bmp	"Let's stay with the certain option."""""	0	safe					6	0	6	0	0	11	11	16																															2284.576359	None	2286.598356	2288.119031	2288.102322	None	2289.656415	None	2	2291.628281	None	2291.628281	None	2291.628281	None	None	None	None	None	2292.413684	None	2292.413684	None	left	2292.413684	None	2292.647619	2294.418962	None	None	0.613999401	0.188600064													107	1	18	1	2019_Dec_06_1110	Test	3.2.4	59.84127461		Pictures/IA110_55_G95p.bmp	Pictures/IA110_55_G95p.bmp	Pictures/IA110.bmp	"Take a chance!"""""	1	risk					6	0	6	0	0	12	12	17																															2294.435661	None	2296.457659	2297.978332	2297.961636	None	2299.499011	None	2	2301.487596	None	2301.487596	None	2301.487596	None	None	None	None	None	2302.105881	None	2302.105881	None	left	2302.105881	None	2302.373259	2304.111188	None	None	0.458687697	0.224389422													107	1	18	1	2019_Dec_06_1110	Test	3.2.4	59.84127461		Pictures/IA100_G20.bmp	Pictures/IA100_G20.bmp	Pictures/IA100.bmp	"Go ahead and gamble!"""""	1	risk					6	0	6	0	0	13	13	8																															2304.127872	None	2306.149868	2307.670539	2307.653843	None	2309.174506	None	1	2311.179792	None	2311.179792	None	2311.179792	None	2312.516652	None	2312.516652	2313.519288	2314.622198	None	2314.622198	None	right	2314.622198	None	None	None	2315.073382	2316.610767	1.246498589	0.404074369													107	1	18	1	2019_Dec_06_1110	Test	3.2.4	59.84127461		Pictures/IA50_G30.bmp	Pictures/IA50_G30.bmp	Pictures/IA50.bmp	"I think you should gamble."""""	1	risk					6	0	6	0	0	14	14	14																															2316.627487	None	2318.649483	2320.170159	2320.15344	None	2321.657411	None	2	2323.679402	None	2323.679402	None	2323.679402	None	None	None	None	None	2324.297706	None	2324.297706	None	right	2324.297706	None	None	None	2324.531641	2326.302989	0.458877941	0.200571761													107	1	18	1	2019_Dec_06_1110	Test	3.2.4	59.84127461		Pictures/IA80_40_G95p.bmp	Pictures/IA80_40_G95p.bmp	Pictures/IA80.bmp	"Think of the payoff"	1	risk					6	0	6	0	0	15	15	6																															2326.319682	None	2328.341681	2329.862354	2329.845656	None	2331.366319	None	2	2333.371605	None	2333.371605	None	2333.371605	None	None	None	None	None	2333.705819	None	2333.705819	None	left	2333.705819	None	2333.956476	2335.694387	None	None	0.182667342	0.208457737													107	1	18	1	2019_Dec_06_1110	Test	3.2.4	59.84127461		Pictures/IA50_L10.bmp	Pictures/IA50_L10.bmp	Pictures/IA50.bmp	"Play it safe"	0	safe					6	0	6	0	0	16	16	15																															2335.71111	None	2337.733107	2339.237087	2339.22036	None	2340.757748	None	2	2342.763037	None	2342.763037	None	2342.763037	None	None	None	None	None	2343.498306	None	2343.498306	None	right	2343.498306	None	None	None	2343.76567	2345.503579	0.55924337	0.223963297													107	1	18	1	2019_Dec_06_1110	Test	3.2.4	59.84127461		Pictures/IA100_G40.bmp	Pictures/IA100_G40.bmp	Pictures/IA100.bmp	"Try your luck and gamble!"""""	1	risk					6	0	6	0	0	17	17	11																															2345.520281	None	2347.542278	2349.062951	2349.046254	None	2350.550206	None	2	2352.572213	None	2352.572213	None	2352.572213	None	None	None	None	None	2353.056815	None	2353.056815	None	left	2353.056815	None	2353.173784	2355.045381	None	None	0.286070544	0.081456702													107	1	18	1	2019_Dec_06_1110	Test	3.2.4	59.84127461		Pictures/IA50_L20.bmp	Pictures/IA50_L20.bmp	Pictures/IA50.bmp	"Certainty is boring"	1	risk					6	0	6	0	0	18	18	9																															2355.062104	None	2357.0841	2358.604773	2358.588055	None	2360.092039	None	2	2362.114014	None	2362.114014	None	2362.114014	None	None	None	None	None	2362.581922	None	2362.581922	None	right	2362.581922	None	None	None	2363.56785	None	0.296264253	0.94035225													107	1	18	1	2019_Dec_06_1110	Test	3.2.4	59.84127461		Pictures/IA20_10_G95p.bmp	Pictures/IA20_10_G95p.bmp	Pictures/IA20.bmp	"Take a leap"	1	risk					6	0	6	0	0	19	19	19																															2364.587193	None	2366.609188	2368.129919	2368.113167	None	2369.61712	None	2	2371.639128	None	2371.639128	None	2371.639128	None	None	None	None	None	2372.909127	None	2372.909127	None	left	2372.909127	None	2373.176504	2374.914418	None	None	1.099144596	0.229143133													107	1	18	1	2019_Dec_06_1110	Test	3.2.4	59.84127461												6	0	6	0																																																																									2375.08152	None	return	5.888739236	2375.08152	None	107	1	18	1	2019_Dec_06_1110	Test	3.2.4	59.84127461		Pictures/IA25_G20.bmp	Pictures/IA25_G20.bmp	Pictures/IA25.bmp	"I wouldn't gamble for this one. """""	0	safe					7	0	7	0	0	0	0	3													2381.130791	None	2381.130791	None	2381.130791	None	left	2.847470129	2381.130791	None	2381.130791	None	2381.130791	None	return	3.663261031	2381.130791	None	2384.857285	None	2386.862557	2388.383232	2388.366538	None	2389.887208	None	2	2391.875775	None	2391.875775	None	2391.875775	None	None	None	None	None	2392.477356	None	2392.477356	None	right	2392.477356	None	None	None	2392.828279	2394.465939	0.406506933	0.316910889													107	1	18	1	2019_Dec_06_1110	Test	3.2.4	59.84127461		Pictures/IA50_G30.bmp	Pictures/IA50_G30.bmp	Pictures/IA50.bmp	"I think you should gamble."""""	1	risk					7	0	7	0	0	1	1	10																															2394.482639	None	2396.504636	2398.02531	2398.00861	None	2399.512566	None	2	2401.53457	None	2401.53457	None	2401.53457	None	None	None	None	None	2402.10273	None	2402.10273	None	left	2402.10273	None	2402.386802	2404.091313	None	None	0.387708633	0.23553711													107	1	18	1	2019_Dec_06_1110	Test	3.2.4	59.84127461		Pictures/IA25_G15.bmp	Pictures/IA25_G15.bmp	Pictures/IA25.bmp	"I think you should take a gamble."""""	1	risk					7	0	7	0	0	2	2	18																															2404.108003	None	2406.129998	2407.650671	2407.633979	None	2409.154602	None	1	2411.159925	None	2411.159925	None	2411.159925	None	2413.031519	None	2413.031519	2414.034155	2415.137072	None	2415.137072	None	right	2415.137072	None	None	None	2415.487994	2417.12565	1.754347262	0.305200298													107	1	18	1	2019_Dec_06_1110	Test	3.2.4	59.84127461		Pictures/IA100_G80.bmp	Pictures/IA100_G80.bmp	Pictures/IA100.bmp	"Why not gamble?"""""	1	risk					7	0	7	0	0	3	3	12																															2417.142349	None	2419.164345	2420.685016	2420.668323	None	2422.205696	None	2	2424.19428	None	2424.19428	None	2424.19428	None	None	None	None	None	2424.712301	None	2424.712301	None	left	2424.712301	None	2425.380736	2426.717589	None	None	0.359999857	0.633970275													107	1	18	1	2019_Dec_06_1110	Test	3.2.4	59.84127461		Pictures/IA25_L20.bmp	Pictures/IA25_L20.bmp	Pictures/IA25.bmp	"Don't be tempted to gamble."""""	0	safe					7	0	7	0	0	4	4	4																															2426.73429	None	2428.756286	2430.276962	2430.260264	None	2431.79764	None	2	2433.786225	None	2433.786225	None	2433.786225	None	None	None	None	None	2435.27346	None	2435.27346	None	left	2435.27346	None	2436.008744	2437.278753	None	None	1.336057205	0.688815639													107	1	18	1	2019_Dec_06_1110	Test	3.2.4	59.84127461		Pictures/IA50_G20.bmp	Pictures/IA50_G20.bmp	Pictures/IA50.bmp	"Let's venture and take a risk!"""""	1	risk					7	0	7	0	0	5	5	11																															2437.295453	None	2439.317455	2440.838122	2440.821437	None	2442.358798	None	1	2444.347386	None	2444.347386	None	2444.347386	None	2444.531164	None	2444.531164	2445.533839	2446.636751	None	2446.636751	None	left	2446.636751	None	2448.240963	None	None	None	0.0709071	1.557521512													107	1	18	1	2019_Dec_06_1110	Test	3.2.4	59.84127461		Pictures/IA20_10_G95p.bmp	Pictures/IA20_10_G95p.bmp	Pictures/IA20.bmp	"Take a leap"	1	risk					7	0	7	0	0	6	6	9																															2448.658745	None	2450.680737	2452.201409	2452.184691	None	2453.688664	None	2	2455.710655	None	2455.710655	None	2455.710655	None	None	None	None	None	2456.161834	None	2456.161834	None	left	2456.161834	None	2456.445917	2458.167157	None	None	0.283624582	0.240443841													107	1	18	1	2019_Dec_06_1110	Test	3.2.4	59.84127461		Pictures/IA25_L10.bmp	Pictures/IA25_L10.bmp	Pictures/IA25.bmp	"Dont be afraid to take the risk!"""""	1	risk					7	0	7	0	0	7	7	8																															2458.183842	None	2460.205852	2461.726509	2461.709793	None	2463.213766	None	2	2465.235751	None	2465.235751	None	2465.235751	None	None	None	None	None	2465.653516	None	2465.653516	None	right	2465.653516	None	None	None	2466.338652	2467.642096	0.23853075	0.636759055													107	1	18	1	2019_Dec_06_1110	Test	3.2.4	59.84127461		Pictures/IA50_L10.bmp	Pictures/IA50_L10.bmp	Pictures/IA50.bmp	"Play it safe"	0	safe					7	0	7	0	0	8	8	19																															2467.658797	None	2469.680794	2471.201464	2471.184767	None	2472.688719	None	2	2474.710727	None	2474.710727	None	2474.710727	None	None	None	None	None	2475.312311	None	2475.312311	None	right	2475.312311	None	None	None	2475.613091	2477.317592	0.443552583	0.257960348													107	1	18	1	2019_Dec_06_1110	Test	3.2.4	59.84127461		Pictures/IA75_G30.bmp	Pictures/IA75_G30.bmp	Pictures/IA75.bmp	"Be bold"	1	risk					7	0	7	0	0	9	9	13																															2477.334292	None	2479.35629	2480.876962	2480.860264	None	2482.39764	None	2	2484.386222	None	2484.386222	None	2484.386222	None	None	None	None	None	2485.07135	None	2485.07135	None	left	2485.07135	None	2485.338728	2487.076639	None	None	0.52807007	0.218925119													107	1	18	1	2019_Dec_06_1110	Test	3.2.4	59.84127461		Pictures/IA75_L15.bmp	Pictures/IA75_L15.bmp	Pictures/IA75.bmp	"Trust me"	1	risk					7	0	7	0	0	10	10	16																															2487.093352	None	2489.115338	2490.636009	2490.619313	None	2492.123265	None	2	2494.145274	None	2494.145274	None	2494.145274	None	None	None	None	None	2494.713434	None	2494.713434	None	right	2494.713434	None	None	None	2494.913948	2496.718703	0.417004539	0.152846447													107	1	18	1	2019_Dec_06_1110	Test	3.2.4	59.84127461		Pictures/IA25_L5.bmp	Pictures/IA25_L5.bmp	Pictures/IA25.bmp	"It would be smarter to choose the safe option."""""	0	safe					7	0	7	0	0	11	11	15																															2496.735425	None	2498.757422	2500.278092	2500.261377	None	2501.798774	None	2	2503.787336	None	2503.787336	None	2503.787336	None	None	None	None	None	2505.174322	None	2505.174322	None	right	2505.174322	None	None	None	2505.541965	2507.179603	1.214943016	0.323949151													107	1	18	1	2019_Dec_06_1110	Test	3.2.4	59.84127461		Pictures/IA75_G60.bmp	Pictures/IA75_G60.bmp	Pictures/IA75.bmp	"Make it exciting"	1	risk					7	0	7	0	0	12	12	6																															2507.196323	None	2509.21834	2510.738991	2510.722288	None	2512.242958	None	2	2514.248243	None	2514.248243	None	2514.248243	None	None	None	None	None	2514.749552	None	2514.749552	None	left	2514.749552	None	2515.083781	2516.754842	None	None	0.322050233	0.284716545													107	1	18	1	2019_Dec_06_1110	Test	3.2.4	59.84127461		Pictures/IA50_L30.bmp	Pictures/IA50_L30.bmp	Pictures/IA50.bmp	"Take a leap"	1	risk					7	0	7	0	0	13	13	5																															2516.771544	None	2518.79354	2520.314216	2520.297516	None	2521.801467	None	2	2523.823479	None	2523.823479	None	2523.823479	None	None	None	None	None	2524.324786	None	2524.324786	None	right	2524.324786	None	None	None	2524.57544	2526.313353	0.32280532	0.205495856													107	1	18	1	2019_Dec_06_1110	Test	3.2.4	59.84127461		Pictures/IA110_55_G95p.bmp	Pictures/IA110_55_G95p.bmp	Pictures/IA110.bmp	"Take a chance!"""""	1	risk					7	0	7	0	0	14	14	7																															2526.330076	None	2528.352074	2529.872747	2529.856028	None	2531.39342	None	2	2533.381989	None	2533.381989	None	2533.381989	None	None	None	None	None	2533.833175	None	2533.833175	None	left	2533.833175	None	2534.133967	2535.83845	None	None	0.268296957	0.265107395													107	1	18	1	2019_Dec_06_1110	Test	3.2.4	59.84127461		Pictures/IA25_L15.bmp	Pictures/IA25_L15.bmp	Pictures/IA25.bmp	"There's not much on the line here"	1	risk					7	0	7	0	0	15	15	1																															2535.855172	None	2537.877169	2539.397847	2539.381123	None	2540.918517	None	2	2542.90709	None	2542.90709	None	2542.90709	None	None	None	None	None	2543.792749	None	2543.792749	None	right	2543.792749	None	None	None	2544.294075	2545.798027	0.703195287	0.457525346													107	1	18	1	2019_Dec_06_1110	Test	3.2.4	59.84127461		Pictures/IA75_L60.bmp	Pictures/IA75_L60.bmp	Pictures/IA75.bmp	"Why not take the gamble?"""""	1	risk					7	0	7	0	0	16	16	14																															2545.814752	None	2547.836744	2549.357418	2549.340704	None	2550.878092	None	2	2552.866659	None	2552.866659	None	2552.866659	None	None	None	None	None	2554.270358	None	2554.270358	None	right	2554.270358	None	None	None	2555.323129	None	1.215622229	1.011911949													107	1	18	1	2019_Dec_06_1110	Test	3.2.4	59.84127461		Pictures/IA25_G5.bmp	Pictures/IA25_G5.bmp	Pictures/IA25.bmp	"Let's stay with the certain option."""""	0	safe					7	0	7	0	0	17	17	2																															2556.275649	None	2558.297642	2559.818332	2559.8016	None	2561.305573	None	1	2563.327558	None	2563.327558	None	2563.327558	None	2563.762034	None	2563.762034	2564.764672	2565.867582	None	2565.867582	None	left	2565.867582	None	2566.335494	2567.872864	None	None	0.306709548	0.42269084													107	1	18	1	2019_Dec_06_1110	Test	3.2.4	59.84127461		Pictures/IA75_G15.bmp	Pictures/IA75_G15.bmp	Pictures/IA75.bmp	"Take a chance!"""""	1	risk					7	0	7	0	0	18	18	0																															2567.889583	None	2569.91158	2571.432251	2571.415535	None	2572.952928	None	2	2574.941493	None	2574.941493	None	2574.941493	None	None	None	None	None	2575.710182	None	2575.710182	None	left	2575.710182	None	2576.378623	2577.715478	None	None	0.604791436	0.620093165													107	1	18	1	2019_Dec_06_1110	Test	3.2.4	59.84127461		Pictures/IA80_40_G95p.bmp	Pictures/IA80_40_G95p.bmp	Pictures/IA80.bmp	"Think of the payoff"	1	risk					7	0	7	0	0	19	19	17																															2577.732176	None	2579.754176	2581.274844	2581.258152	None	2582.762101	None	2	2584.784106	None	2584.784106	None	2584.784106	None	None	None	None	None	2585.469232	None	2585.469232	None	left	2585.469232	None	2586.271354	2587.474524	None	None	0.530176703	0.765038705													107	1	18	1	2019_Dec_06_1110	Test	3.2.4	59.84127461												7	0	7	0																																																																									2587.641624	None	return	4.776652722	2587.641624	None	107	1	18	1	2019_Dec_06_1110	Test	3.2.4	59.84127461		Pictures/IA50_L20.bmp	Pictures/IA50_L20.bmp	Pictures/IA50.bmp	"Certainty is boring"	1	risk					8	0	8	0	0	0	0	3													2592.571293	None	2592.571293	None	2592.571293	None	right	0.85497059	2592.571293	None	2592.571293	None	2592.571293	None	return	1.638852599	2592.571293	None	2594.259072	None	2596.281063	2597.801739	2597.785018	None	2599.305691	None	2	2601.294278	None	2601.294278	None	2601.294278	None	None	None	None	None	2602.079669	None	2602.079669	None	right	2602.079669	None	None	None	2602.263484	2604.068239	0.628001897	0.13860776													107	1	18	1	2019_Dec_06_1110	Test	3.2.4	59.84127461		Pictures/IA110_55_L95p.bmp	Pictures/IA110_55_L95p.bmp	Pictures/IA110.bmp	"Trust me"	1	risk					8	0	8	0	0	1	1	15																															2604.084975	None	2606.106953	2607.627629	2607.610913	None	2609.131594	None	2	2611.13688	None	2611.13688	None	2611.13688	None	None	None	None	None	2613.526497	None	2613.526497	None	right	2613.526497	None	None	None	2614.211633	2615.515075	2.225409384	0.643771651													107	1	18	1	2019_Dec_06_1110	Test	3.2.4	59.84127461		Pictures/IA75_G45.bmp	Pictures/IA75_G45.bmp	Pictures/IA75.bmp	"Don't gamble for this one."""""	0	safe					8	0	8	0	0	2	2	6																															2615.531775	None	2617.553771	2619.057744	2619.041026	None	2620.59512	None	2	2622.583705	None	2622.583705	None	2622.583705	None	None	None	None	None	2624.772806	None	2624.772806	None	left	2624.772806	None	2625.875703	None	None	None	2.018574114	1.069457886													107	1	18	1	2019_Dec_06_1110	Test	3.2.4	59.84127461		Pictures/IA100_L40.bmp	Pictures/IA100_L40.bmp	Pictures/IA100.bmp	"Think of the payoff"	1	risk					8	0	8	0	0	3	3	13																															2626.794786	None	2628.816786	2630.337455	2630.320761	None	2631.84142	None	2	2633.846708	None	2633.846708	None	2633.846708	None	None	None	None	None	2634.331315	None	2634.331315	None	right	2634.331315	None	None	None	2634.465008	2636.336605	0.275576311	0.09495236													107	1	18	1	2019_Dec_06_1110	Test	3.2.4	59.84127461		Pictures/IA75_G15.bmp	Pictures/IA75_G15.bmp	Pictures/IA75.bmp	"Take a chance!"""""	1	risk					8	0	8	0	0	4	4	8																															2636.353306	None	2638.375303	2639.895975	2639.879277	None	2641.383228	None	2	2643.405236	None	2643.405236	None	2643.405236	None	None	None	None	None	2643.906556	None	2643.906556	None	left	2643.906556	None	2644.875764	2645.911835	None	None	0.341042926	0.93571657													107	1	18	1	2019_Dec_06_1110	Test	3.2.4	59.84127461		Pictures/IA100_G60.bmp	Pictures/IA100_G60.bmp	Pictures/IA100.bmp	"Be cautious"	0	safe					8	0	8	0	0	5	5	1																															2645.928536	None	2647.950532	2649.454534	2649.437795	None	2650.991879	None	2	2652.980468	None	2652.980468	None	2652.980468	None	None	None	None	None	2653.431643	None	2653.431643	None	left	2653.431643	None	2654.066658	2655.436923	None	None	0.261814563	0.586616205													107	1	18	1	2019_Dec_06_1110	Test	3.2.4	59.84127461		Pictures/IA75_L45.bmp	Pictures/IA75_L45.bmp	Pictures/IA75.bmp	"Don't gamble for this one"	0	safe					8	0	8	0	0	6	6	14																															2655.453645	None	2657.475642	2658.996314	2658.979601	None	2660.516993	None	2	2662.505554	None	2662.505554	None	2662.505554	None	None	None	None	None	2662.990163	None	2662.990163	None	right	2662.990163	None	None	None	2663.090447	2664.99544	0.304732064	0.052111729													107	1	18	1	2019_Dec_06_1110	Test	3.2.4	59.84127461		Pictures/IA40_20_L95p.bmp	Pictures/IA40_20_L95p.bmp	Pictures/IA40.bmp	"Trust me"	1	risk					8	0	8	0	0	7	7	12																															2665.012164	None	2667.03416	2668.554836	2668.538114	None	2670.058796	None	2	2672.064082	None	2672.064082	None	2672.064082	None	None	None	None	None	2673.016584	None	2673.016584	None	right	2673.016584	None	None	None	2673.434346	2675.005166	0.786206353	0.37768334													107	1	18	1	2019_Dec_06_1110	Test	3.2.4	59.84127461		Pictures/IA25_G15.bmp	Pictures/IA25_G15.bmp	Pictures/IA25.bmp	"I think you should take a gamble."""""	1	risk					8	0	8	0	0	8	8	2																															2675.021865	None	2677.043858	2678.564534	2678.547835	None	2680.051785	None	2	2682.073796	None	2682.073796	None	2682.073796	None	None	None	None	None	2682.25761	None	2682.25761	None	left	2682.25761	None	2682.959445	2684.262886	None	None	0.016495824	0.656674039													107	1	18	1	2019_Dec_06_1110	Test	3.2.4	59.84127461		Pictures/IA25_G20.bmp	Pictures/IA25_G20.bmp	Pictures/IA25.bmp	"I wouldn't gamble for this one. """""	0	safe					8	0	8	0	0	9	9	17																															2684.279595	None	2686.301585	2687.822256	2687.805566	None	2689.326239	None	2	2691.331518	None	2691.331518	None	2691.331518	None	None	None	None	None	2691.598887	None	2691.598887	None	None	2691.598887	None	None	None	None	None	0.046758902														107	1	18	1	2019_Dec_06_1110	Test	3.2.4	59.84127461		Pictures/IA100_L20.bmp	Pictures/IA100_L20.bmp	Pictures/IA100.bmp	"Try to win as much money as you can"	1	risk					8	0	8	0	0	10	10	10																															2693.60417	None	2695.626167	2697.130115	2697.11342	None	2698.650803	None	2	2700.656108	None	2700.656108	None	2700.656108	None	None	None	None	None	2702.226885	None	2702.226885	None	right	2702.226885	None	None	None	2702.544382	2704.215451	1.354171562	0.271402057													107	1	18	1	2019_Dec_06_1110	Test	3.2.4	59.84127461		Pictures/IA75_L60.bmp	Pictures/IA75_L60.bmp	Pictures/IA75.bmp	"Why not take the gamble?"""""	1	risk					8	0	8	0	0	11	11	16																															2704.232172	None	2706.25417	2707.77484	2707.758123	None	2709.295516	None	1	2711.284082	None	2711.284082	None	2711.284082	None	2712.102904	None	2712.102904	2713.105541	2714.208452	None	2714.208452	None	right	2714.208452	None	None	None	2714.525951	2716.197021	0.718198226	0.281812104													107	1	18	1	2019_Dec_06_1110	Test	3.2.4	59.84127461		Pictures/IA50_G30.bmp	Pictures/IA50_G30.bmp	Pictures/IA50.bmp	"I think you should gamble."""""	1	risk					8	0	8	0	0	12	12	0																															2716.213743	None	2718.235743	2719.756413	2719.739695	None	2721.277087	None	2	2723.26565	None	2723.26565	None	2723.26565	None	None	None	None	None	2724.017647	None	2724.017647	None	left	2724.017647	None	2724.335142	2726.006211	None	None	0.488630629	0.280616957													107	1	18	1	2019_Dec_06_1110	Test	3.2.4	59.84127461		Pictures/IA25_L15.bmp	Pictures/IA25_L15.bmp	Pictures/IA25.bmp	"There's not much on the line here"	1	risk					8	0	8	0	0	13	13	11																															2726.022913	None	2728.04491	2729.56558	2729.548883	None	2731.052833	None	2	2733.07484	None	2733.07484	None	2733.07484	None	None	None	None	None	2733.626306	None	2733.626306	None	right	2733.626306	None	None	None	2733.793386	2735.631573	0.383439608	0.119966903													107	1	18	1	2019_Dec_06_1110	Test	3.2.4	59.84127461		Pictures/IA100_L60.bmp	Pictures/IA100_L60.bmp	Pictures/IA100.bmp	"You'd have a lot to lose"	0	safe					8	0	8	0	0	14	14	18																															2735.648273	None	2737.670269	2739.19094	2739.17425	None	2740.711619	None	2	2742.700203	None	2742.700203	None	2742.700203	None	None	None	None	None	2743.218232	None	2743.218232	None	right	2743.218232	None	None	None	2743.268363	2745.206803	0.350075667	0.008036719													107	1	18	1	2019_Dec_06_1110	Test	3.2.4	59.84127461		Pictures/IA75_L30.bmp	Pictures/IA75_L30.bmp	Pictures/IA75.bmp	"Hold back"	0	safe					8	0	8	0	0	15	15	5																															2745.223503	None	2747.245499	2748.766171	2748.749476	None	2750.286845	None	2	2752.275437	None	2752.275437	None	2752.275437	None	None	None	None	None	2753.261352	None	2753.261352	None	right	2753.261352	None	None	None	2753.612276	2755.249932	0.790844664	0.300919683													107	1	18	1	2019_Dec_06_1110	Test	3.2.4	59.84127461		Pictures/IA100_G20.bmp	Pictures/IA100_G20.bmp	Pictures/IA100.bmp	"Go ahead and gamble!"""""	1	risk					8	0	8	0	0	16	16	7																															2755.266632	None	2757.28863	2758.809302	2758.792602	None	2760.313267	None	2	2762.318551	None	2762.318551	None	2762.318551	None	None	None	None	None	2762.819877	None	2762.819877	None	left	2762.819877	None	2763.120669	2764.825151	None	None	0.347725538	0.254396438													107	1	18	1	2019_Dec_06_1110	Test	3.2.4	59.84127461		Pictures/IA25_G10.bmp	Pictures/IA25_G10.bmp	Pictures/IA25.bmp	"What's life without a little risk?"""""	1	risk					8	0	8	0	0	17	17	9																															2764.841872	None	2766.863866	2768.384539	2768.367822	None	2769.8885	None	2	2771.893792	None	2771.893792	None	2771.893792	None	None	None	None	None	2772.311561	None	2772.311561	None	left	2772.311561	None	2772.478651	2774.316841	None	None	0.236492268	0.130706252													107	1	18	1	2019_Dec_06_1110	Test	3.2.4	59.84127461		Pictures/IA50_G10.bmp	Pictures/IA50_G10.bmp	Pictures/IA50.bmp	"Go with the safe option here!"""""	0	safe					8	0	8	0	0	18	18	19																															2774.333539	None	2776.355534	2777.876205	2777.85951	None	2779.380169	None	1	2781.385461	None	2781.385461	None	2781.385461	None	2782.05386	None	2782.05386	2783.056531	2784.159447	None	2784.159447	None	None	2784.159447	None	None	None	None	None	0.552807816														107	1	18	1	2019_Dec_06_1110	Test	3.2.4	59.84127461		Pictures/IA110_55_G95p.bmp	Pictures/IA110_55_G95p.bmp	Pictures/IA110.bmp	"Take a chance!"""""	1	risk					8	0	8	0	0	19	19	4																															2786.164722	None	2788.186726	2789.70739	2789.690676	None	2791.228065	None	2	2793.216629	None	2793.216629	None	2793.216629	None	None	None	None	None	2793.885057	None	2793.885057	None	left	2793.885057	None	2794.436507	2795.873636	None	None	0.505651732	0.509217826													107	1	18	1	2019_Dec_06_1110	Test	3.2.4	59.84127461												8	0	8	0																																																																									2796.040736	None	return	7.729529134	2796.040736	None	107	1	18	1	2019_Dec_06_1110	Test	3.2.4	59.84127461		Pictures/IA75_L15.bmp	Pictures/IA75_L15.bmp	Pictures/IA75.bmp	"Trust me"	1	risk					9	0	9	0	0	0	0	4													2803.928189	None	2803.928189	None	2803.928189	None	right	1.498082029	2803.928189	None	2803.928189	None	2803.928189	None	return	1.929864448	2803.928189	None	2805.916771	None	2807.922039	2809.442713	2809.426017	None	2810.946687	None	2	2812.935253	None	2812.935253	None	2812.935253	None	None	None	None	None	2813.419878	None	2813.419878	None	right	2813.419878	None	None	None	2813.720651	2815.425152	0.331028027	0.254397528													107	1	18	1	2019_Dec_06_1110	Test	3.2.4	59.84127461		Pictures/IA75_L45.bmp	Pictures/IA75_L45.bmp	Pictures/IA75.bmp	"Don't gamble for this one"	0	safe					9	0	9	0	0	1	1	3																															2815.441852	None	2817.463849	2818.984522	2818.967823	None	2820.471774	None	2	2822.493781	None	2822.493781	None	2822.493781	None	None	None	None	None	2823.245767	None	2823.245767	None	right	2823.245767	None	None	None	2823.596683	2825.234324	0.580498811	0.316513728													107	1	18	1	2019_Dec_06_1110	Test	3.2.4	59.84127461		Pictures/IA100_L80.bmp	Pictures/IA100_L80.bmp	Pictures/IA100.bmp	"Go all in!"""""	1	risk					9	0	9	0	0	2	2	6																															2825.251041	None	2827.273041	2828.79371	2828.776995	None	2830.314387	None	1	2832.302958	None	2832.302958	None	2832.302958	None	2833.138486	None	2833.138486	2834.141121	2835.244035	None	2835.244035	None	right	2835.244035	None	None	None	2835.929172	2837.232612	0.747312151	0.646233943													107	1	18	1	2019_Dec_06_1110	Test	3.2.4	59.84127461		Pictures/IA25_L20.bmp	Pictures/IA25_L20.bmp	Pictures/IA25.bmp	"Don't be tempted to gamble."""""	0	safe					9	0	9	0	0	3	3	14																															2837.249313	None	2839.271308	2840.791982	2840.775284	None	2842.312655	None	1	2844.301241	None	2844.301241	None	2844.301241	None	2845.470988	None	2845.470988	2846.473627	2847.593215	None	2847.593215	None	left	2847.593215	None	2849.381289	None	None	None	1.04503644	1.745055401													107	1	18	1	2019_Dec_06_1110	Test	3.2.4	59.84127461		Pictures/IA25_G15.bmp	Pictures/IA25_G15.bmp	Pictures/IA25.bmp	"I think you should take a gamble."""""	1	risk					9	0	9	0	0	4	4	5																															2849.598519	None	2851.620511	2853.141185	2853.12449	None	2854.661877	None	2	2856.65045	None	2856.65045	None	2856.65045	None	None	None	None	None	2857.101644	None	2857.101644	None	right	2857.101644	None	None	None	2857.33557	2859.090216	0.27183958	0.188624796													107	1	18	1	2019_Dec_06_1110	Test	3.2.4	59.84127461		Pictures/IA20_10_G95p.bmp	Pictures/IA20_10_G95p.bmp	Pictures/IA20.bmp	"Take a leap"	1	risk					9	0	9	0	0	5	5	7																															2859.106903	None	2861.1289	2862.64957	2862.632873	None	2864.170246	None	2	2866.158833	None	2866.158833	None	2866.158833	None	None	None	None	None	2866.593302	None	2866.593302	None	left	2866.593302	None	2866.827256	2868.598577	None	None	0.267449737	0.192964832													107	1	18	1	2019_Dec_06_1110	Test	3.2.4	59.84127461		Pictures/IA100_G60.bmp	Pictures/IA100_G60.bmp	Pictures/IA100.bmp	"Be cautious"	0	safe					9	0	9	0	0	6	6	8																															2868.6153	None	2870.637297	2872.157967	2872.141252	None	2873.661932	None	2	2875.66722	None	2875.66722	None	2875.66722	None	None	None	None	None	2876.084992	None	2876.084992	None	left	2876.084992	None	2876.369064	2878.090277	None	None	0.247060507	0.237280839													107	1	18	1	2019_Dec_06_1110	Test	3.2.4	59.84127461		Pictures/IA25_L15.bmp	Pictures/IA25_L15.bmp	Pictures/IA25.bmp	"There's not much on the line here"	1	risk					9	0	9	0	0	7	7	15																															2878.10697	None	2880.128965	2881.649634	2881.63294	None	2883.170308	None	1	2885.158904	None	2885.158904	None	2885.158904	None	2886.295211	None	2886.295211	2887.297846	2888.400758	None	2888.400758	None	right	2888.400758	None	None	None	2889.119314	2890.389327	0.987381609	0.673515825													107	1	18	1	2019_Dec_06_1110	Test	3.2.4	59.84127461		Pictures/IA25_G5.bmp	Pictures/IA25_G5.bmp	Pictures/IA25.bmp	"Let's stay with the certain option."""""	0	safe					9	0	9	0	0	8	8	1																															2890.406048	None	2892.428049	2893.948716	2893.932002	None	2895.46939	None	2	2897.457955	None	2897.457955	None	2897.457955	None	None	None	None	None	2897.909143	None	2897.909143	None	left	2897.909143	None	2898.209944	2899.914423	None	None	0.272324351	0.261129812													107	1	18	1	2019_Dec_06_1110	Test	3.2.4	59.84127461		Pictures/IA25_G20.bmp	Pictures/IA25_G20.bmp	Pictures/IA25.bmp	"