Choice,Choice2,Amount,AdviceVar1,GambleAdviceNum,GambleAdviceType,practice.thisRepN,practice.thisTrialN,practice.thisN,practice.thisIndex,trials_2.thisRepN,trials_2.thisTrialN,trials_2.thisN,trials_2.thisIndex,trials.thisRepN,trials.thisTrialN,trials.thisN,trials.thisIndex,text.started,text.stopped,key_resp_4.keys,key_resp_4.rt,key_resp_4.started,key_resp_4.stopped,instructions.started,instructions.stopped,space.keys,space.rt,space.started,space.stopped,chooseInst.started,chooseInst.stopped,Ad1.started,Ad1.stopped,Ad2.started,Ad2.stopped,key_resp_3.keys,key_resp_3.rt,key_resp_3.started,key_resp_3.stopped,Ad1pic.started,Ad1pic.stopped,Ad2pic.started,Ad2pic.stopped,enter.keys,enter.rt,enter.started,enter.stopped,iSi.started,iSi.stopped,receiveMoneyPicture.started,receiveMoneyPicture.stopped,ISI2.started,ISI2.stopped,ChoicePic.started,ChoicePic.stopped,response.keys,response.started,response.stopped,yesNo.started,yesNo.stopped,ask.started,ask.stopped,getAdv.started,getAdv.stopped,textForCode.started,textForCode.stopped,blank.started,blank.stopped,ChoicePic2.started,ChoicePic2.stopped,resp.keys,resp.started,resp.stopped,checkL1.started,checkL1.stopped,checkR1.started,checkR1.stopped,response.rt,resp.rt,EndPrac.started,EndPrac.stopped,key_resp.keys,key_resp.rt,key_resp.started,key_resp.stopped,endText.started,endText.stopped,key_resp_2.keys,key_resp_2.rt,key_resp_2.started,key_resp_2.stopped,participant,session,age,gender (0=male, 1 = female, 2 = other),date,expName,psychopyVersion,frameRate,
,,,,,,,,,,,,,,,,,,229.27483030199983,None,space,434.19944394400045,229.27483030199983,None,,,,,,,,,,,,,,,,,,,,,,,,,,,,,,,,,,,,,,,,,,,,,,,,,,,,,,,,,,,,,,,,,,,,,107,001,18,1,2019_Dec_06_1110,Test,3.2.4,59.84127460989908,
,,,,,,,,,,,,,,,,,,,,,,,,663.5031624880012,None,space,3.275110863000009,663.5031624880012,None,,,,,,,,,,,,,,,,,,,,,,,,,,,,,,,,,,,,,,,,,,,,,,,,,,,,,,,,,,,,,,,107,001,18,1,2019_Dec_06_1110,Test,3.2.4,59.84127460989908,
,,,,,,,,,,,,,,,,,,,,,,,,,,,,,,667.4803439180014,None,667.4803439180014,None,667.4803439180014,None,left,19.793909382000493,667.4803439180014,None,,,,,,,,,,,,,,,,,,,,,,,,,,,,,,,,,,,,,,,,,,,,,,,,,,,,,107,001,18,1,2019_Dec_06_1110,Test,3.2.4,59.84127460989908,
,,,,,,,,,,,,,,,,,,,,,,,,,,,,,,,,,,,,,,,,667.4803439180014,None,667.4803439180014,None,return,22.07378601200071,667.4803439180014,None,,,,,,,,,,,,,,,,,,,,,,,,,,,,,,,,,,,,,,,,,,,,,107,001,18,1,2019_Dec_06_1110,Test,3.2.4,59.84127460989908,
Pictures/IA50_G10.bmp,Pictures/IA50_G10.bmp,Pictures/IA50.bmp,"

"Go with the safe option here!"",0,safe,0,0,0,0,,,,,,,,,,,,,,,,,,,,,,,,,,,,,,,,,,,,,,,689.6721773650006,None,691.660757263,693.1814318200013,693.1647346980008,None,694.6854073230006,None,None,696.7241258430004,None,696.7241258430004,None,696.7241258430004,None,None,None,None,None,699.7821789230002,None,699.7821789230002,None,None,699.7821789230002,None,None,None,None,None,,,,,,,,,,,,,,,107,001,18,1,2019_Dec_06_1110,Test,3.2.4,59.84127460989908,
Pictures/IA100_G40.bmp,Pictures/IA100_G40.bmp,Pictures/IA100.bmp,"

"Try your luck and gamble!"",1,risk,0,1,1,5,,,,,,,,,,,,,,,,,,,,,,,,,,,,,,,,,,,,,,,701.7874631049999,None,703.826180166001,705.3468672460003,705.3301457880007,None,706.8341112260005,None,None,708.8394015550002,None,708.8394015550002,None,708.8394015550002,None,None,None,None,None,711.9810311399997,None,711.9810311399997,None,None,711.9810311399997,None,None,None,None,None,,,,,,,,,,,,,,,107,001,18,1,2019_Dec_06_1110,Test,3.2.4,59.84127460989908,
Pictures/IA50_G40.bmp,Pictures/IA50_G40.bmp,Pictures/IA50.bmp,"

"It would probably be best to play it safe."",0,safe,0,2,2,3,,,,,,,,,,,,,,,,,,,,,,,,,,,,,,,,,,,,,,,713.9863148530003,None,716.0083182529997,717.5289933060012,717.5122786390002,None,719.0830984490003,None,1,721.0382413280004,None,721.0382413280004,None,721.0382413280004,None,723.0268230330003,None,723.0268230330003,724.029458467001,725.1323738840001,None,725.1323738840001,None,None,725.1323738840001,None,None,None,None,None,1.8440422549992945,,,,,,,,,,,,,,107,001,18,1,2019_Dec_06_1110,Test,3.2.4,59.84127460989908,
Pictures/IA50_G30.bmp,Pictures/IA50_G30.bmp,Pictures/IA50.bmp,"

"I think you should gamble."",1,risk,0,3,3,2,,,,,,,,,,,,,,,,,,,,,,,,,,,,,,,,,,,,,,,727.1376575600007,None,729.1596626460014,730.6803351300005,730.6636418720009,None,732.2010195729999,None,1,734.1896073560001,None,734.1896073560001,None,734.1896073560001,None,735.9944382030008,None,735.9944382030008,736.9969948720009,738.0999136629998,None,738.0999136629998,None,left,738.0999136629998,None,738.6680839230012,740.105194881,None,None,1.6926760320002359,0.5183556249994581,,,,,,,,,,,,,107,001,18,1,2019_Dec_06_1110,Test,3.2.4,59.84127460989908,
Pictures/IA50_G20.bmp,Pictures/IA50_G20.bmp,Pictures/IA50.bmp,"

"Let's venture and take a risk!"",1,risk,0,4,4,1,,,,,,,,,,,,,,,,,,,,,,,,,,,,,,,,,,,,,,,740.1219170960012,None,742.1439169860005,743.6645927589998,743.6478746720004,None,745.2186942400003,None,2,747.1738414530009,None,747.1738414530009,None,747.1738414530009,None,None,None,None,None,748.6945277600007,None,748.6945277600007,None,right,748.6945277600007,None,None,None,749.1958389730007,750.6998152470005,1.3564416839999467,0.4677449000009801,,,,,,,,,,,,,107,001,18,1,2019_Dec_06_1110,Test,3.2.4,59.84127460989908,
Pictures/IA100_G20.bmp,Pictures/IA100_G20.bmp,Pictures/IA100.bmp,"

"Go ahead and gamble!"",1,risk,0,5,5,4,,,,,,,,,,,,,,,,,,,,,,,,,,,,,,,,,,,,,,,750.7165158240005,None,752.7385223510009,754.2591925120014,754.2424958320007,None,755.7965967430009,None,1,757.7684539170004,None,757.7684539170004,None,757.7684539170004,None,759.7737410690006,None,759.7737410690006,760.7763810140004,761.8793010270001,None,761.8793010270001,None,left,761.8793010270001,None,763.3498469330007,None,None,None,1.9058232600000338,1.4349731000002066,,,,,,,,,,,,,107,001,18,1,2019_Dec_06_1110,Test,3.2.4,59.84127460989908,
,,,,,,,,,,,,,,,,,,,,,,,,,,,,,,,,,,,,,,,,,,,,,,,,,,,,,,,,,,,,,,,,,,,,,,,,,,,,,,,,763.9012911959999,None,space,16.876979621998544,763.9012911959999,None,,,,,,,107,001,18,1,2019_Dec_06_1110,Test,3.2.4,59.84127460989908,
Pictures/IA50_G30.bmp,Pictures/IA50_G30.bmp,Pictures/IA50.bmp,"

"I think you should gamble."",1,risk,,,,,0,0,0,0,0,0,0,5,,,,,,,,,,,,,780.9462614940003,None,780.9462614940003,None,780.9462614940003,None,left,4.640007985999546,780.9462614940003,None,780.9462614940003,None,780.9462614940003,None,return,5.927792898999542,780.9462614940003,None,786.9287050780003,None,788.9339824950002,790.4546660470005,790.437966939,None,791.9252183099998,None,2,793.9472094640005,None,793.9472094640005,None,793.9472094640005,None,None,None,None,None,795.0835404950012,None,795.0835404950012,None,left,795.0835404950012,None,795.9023674460004,797.072124106,None,None,0.975071864999336,0.7747349649998796,,,,,,,,,,,,,107,001,18,1,2019_Dec_06_1110,Test,3.2.4,59.84127460989908,
Pictures/IA25_G10.bmp,Pictures/IA25_G10.bmp,Pictures/IA25.bmp,"

"What's life without a little risk?"",1,risk,,,,,0,0,0,0,0,1,1,10,,,,,,,,,,,,,,,,,,,,,,,,,,,,,,,797.0888253539997,None,799.1442115750015,800.6649248410013,800.6482264610004,None,802.1688929950014,None,2,804.1407624490002,None,804.1407624490002,None,804.1407624490002,None,None,None,None,None,805.160117984,None,805.160117984,None,right,805.160117984,None,None,None,805.678147396,807.1486909920004,0.8375224770006753,0.4741550639992056,,,,,,,,,,,,,107,001,18,1,2019_Dec_06_1110,Test,3.2.4,59.84127460989908,
Pictures/IA50_G10.bmp,Pictures/IA50_G10.bmp,Pictures/IA50.bmp,"

"Go with the safe option here!"",0,safe,,,,,0,0,0,0,0,2,2,14,,,,,,,,,,,,,,,,,,,,,,,,,,,,,,,807.1654134740002,None,809.1874155980004,810.7080908349999,810.6913743660007,None,812.2287724810012,None,2,814.2173396800008,None,814.2173396800008,None,814.2173396800008,None,None,None,None,None,815.8550022580002,None,815.8550022580002,None,left,815.8550022580002,None,816.3396118630008,817.8602846140002,None,None,1.4649352249998628,0.4432768950009631,,,,,,,,,,,,,107,001,18,1,2019_Dec_06_1110,Test,3.2.4,59.84127460989908,
Pictures/IA100_G60.bmp,Pictures/IA100_G60.bmp,Pictures/IA100.bmp,"

"Be cautious, don't gamble for this one."",0,safe,,,,,0,0,0,0,0,3,3,16,,,,,,,,,,,,,,,,,,,,,,,,,,,,,,,817.8769892050004,None,819.8989883930008,821.4196659890004,821.4029692920012,None,822.9570542890015,None,2,824.9289257150012,None,824.9289257150012,None,824.9289257150012,None,None,None,None,None,825.9482810900008,None,825.9482810900008,None,left,825.9482810900008,None,826.366044886001,827.9535661650007,None,None,0.8413550860004761,0.3819822289988224,,,,,,,,,,,,,107,001,18,1,2019_Dec_06_1110,Test,3.2.4,59.84127460989908,
Pictures/IA50_L20.bmp,Pictures/IA50_L20.bmp,Pictures/IA50.bmp,"

"Certainty is boring, take a risk!"",1,risk,,,,,0,0,0,0,0,4,4,19,,,,,,,,,,,,,,,,,,,,,,,,,,,,,,,827.9703042590008,None,829.9922880850008,831.512964720001,831.4962479160004,None,833.0670665650014,None,2,835.0222172310005,None,835.0222172310005,None,835.0222172310005,None,None,None,None,None,836.626463726001,None,836.626463726001,None,left,836.626463726001,None,837.6123902870004,838.6317334169999,None,None,1.4360629399998288,0.951758046001487,,,,,,,,,,,,,107,001,18,1,2019_Dec_06_1110,Test,3.2.4,59.84127460989908,
Pictures/IA75_L45.bmp,Pictures/IA75_L45.bmp,Pictures/IA75.bmp,"

"Don't gamble for this one, play it safe."",0,safe,,,,,0,0,0,0,0,5,5,9,,,,,,,,,,,,,,,,,,,,,,,,,,,,,,,838.6484508100002,None,840.6871624510004,842.207841282001,842.1911249010009,None,843.7452247370002,None,1,845.7003892800003,None,845.7003892800003,None,845.7003892800003,None,847.2377636350011,None,847.2377636350011,848.2404051320009,849.3433200910004,None,849.3433200910004,None,None,849.3433200910004,None,None,None,None,None,1.3978906640004425,,,,,,,,,,,,,,107,001,18,1,2019_Dec_06_1110,Test,3.2.4,59.84127460989908,
Pictures/IA20_10_L95p.bmp,Pictures/IA20_10_L95p.bmp,Pictures/IA20.bmp,"

"Don't be tempted to gamble."",0,safe,,,,,0,0,0,0,0,6,6,17,,,,,,,,,,,,,,,,,,,,,,,,,,,,,,,851.3486032560013,None,853.3873181100007,854.9079921240009,854.8912986960004,None,856.4286836320007,None,1,858.4005531760013,None,858.4005531760013,None,858.4005531760013,None,859.369762448001,None,859.369762448001,860.3724033520011,861.4753186550006,None,861.4753186550006,None,right,861.4753186550006,None,None,None,862.6617784000009,None,0.8657263010009046,1.1429582010005106,,,,,,,,,,,,,107,001,18,1,2019_Dec_06_1110,Test,3.2.4,59.84127460989908,
Pictures/IA50_G40.bmp,Pictures/IA50_G40.bmp,Pictures/IA50.bmp,"

"It would probably be best to play it safe."",0,safe,,,,,0,0,0,0,0,7,7,1,,,,,,,,,,,,,,,,,,,,,,,,,,,,,,,863.4806150920012,None,865.502614907,867.0232918640013,867.0065732830008,None,868.5105497220011,None,1,870.5325402690014,None,870.5325402690014,None,870.5325402690014,None,871.0004396679997,None,871.0004396679997,872.0030785199997,873.1059954320008,None,873.1059954320008,None,left,873.1059954320008,None,873.5070588030012,875.1112892370002,None,None,0.34974683099972026,0.35228318400004355,,,,,,,,,,,,,107,001,18,1,2019_Dec_06_1110,Test,3.2.4,59.84127460989908,
Pictures/IA100_G40.bmp,Pictures/IA100_G40.bmp,Pictures/IA100.bmp,"

"Try your luck and gamble!"",1,risk,,,,,0,0,0,0,0,8,8,0,,,,,,,,,,,,,,,,,,,,,,,,,,,,,,,875.1279887740002,None,877.1499908920014,878.6706676800004,878.6539688280009,None,880.1579255630004,None,1,882.1799417760012,None,882.1799417760012,None,882.1799417760012,None,882.54756103,None,882.54756103,883.5502011330009,884.6531153000014,None,884.6531153000014,None,right,884.6531153000014,None,None,None,885.8562968120004,None,0.2543468460007716,1.1651588060012728,,,,,,,,,,,,,107,001,18,1,2019_Dec_06_1110,Test,3.2.4,59.84127460989908,
Pictures/IA80_40_L95p.bmp,Pictures/IA80_40_L95p.bmp,Pictures/IA80.bmp,"

"Let's stay with the certain option."",0,safe,,,,,0,0,0,0,0,9,9,4,,,,,,,,,,,,,,,,,,,,,,,,,,,,,,,886.6751109500001,None,888.7138275030011,890.2177977120009,890.2010814109999,None,891.7551849890006,None,1,893.727065862,None,893.727065862,None,893.727065862,None,894.2618015740009,None,894.2618015740009,895.2644418119999,896.3840673850009,None,896.3840673850009,None,right,896.3840673850009,None,None,None,897.5036828520006,None,0.4032144370012247,1.0742089159994066,,,,,,,,,,,,,107,001,18,1,2019_Dec_06_1110,Test,3.2.4,59.84127460989908,
Pictures/IA50_L10.bmp,Pictures/IA50_L10.bmp,Pictures/IA50.bmp,"

"Play it safe, don’t gamble!"",0,safe,,,,,0,0,0,0,0,10,10,7,,,,,,,,,,,,,,,,,,,,,,,,,,,,,,,898.3893568149997,None,900.411351359,901.9320287259998,901.9153102380005,None,903.4861299479999,None,1,905.4412800990012,None,905.4412800990012,None,905.4412800990012,None,905.7754606170001,None,905.7754606170001,906.7781311529998,907.9144663590014,None,907.9144663590014,None,left,907.9144663590014,None,909.0842269650002,None,None,None,0.21700197300015134,1.1198051720002695,,,,,,,,,,,,,107,001,18,1,2019_Dec_06_1110,Test,3.2.4,59.84127460989908,
Pictures/IA40_20_G95p.bmp,Pictures/IA40_20_G95p.bmp,Pictures/IA40.bmp,"

"Hold back, stay with the safe choice."",0,safe,,,,,0,0,0,0,0,11,11,15,,,,,,,,,,,,,,,,,,,,,,,,,,,,,,,909.9364730010002,None,911.991895485,913.495848695,913.4791529200011,None,915.0165406779997,None,1,916.9884095489997,None,916.9884095489997,None,916.9884095489997,None,919.4281765830001,None,919.4281765830001,920.4308155710005,921.5337299029998,None,921.5337299029998,None,left,921.5337299029998,None,922.2355666359999,923.5390146410009,None,None,2.309872826999708,0.668521857000087,,,,,,,,,,,,,107,001,18,1,2019_Dec_06_1110,Test,3.2.4,59.84127460989908,
Pictures/IA80_40_G95p.bmp,Pictures/IA80_40_G95p.bmp,Pictures/IA80.bmp,"

"Think of the payoff, gamble!"",1,risk,,,,,0,0,0,0,0,12,12,12,,,,,,,,,,,,,,,,,,,,,,,,,,,,,,,923.555719932001,None,925.5777149229998,927.0816919200006,927.0649778919997,None,928.6524933910005,None,1,930.6076614400008,None,930.6076614400008,None,930.6076614400008,None,931.5100325100011,None,931.5100325100011,932.5126692450012,933.6155840810006,None,933.6155840810006,None,left,933.6155840810006,None,934.701776494001,None,None,None,0.7946172850006405,1.0426913359988248,,,,,,,,,,,,,107,001,18,1,2019_Dec_06_1110,Test,3.2.4,59.84127460989908,
Pictures/IA100_L40.bmp,Pictures/IA100_L40.bmp,Pictures/IA100.bmp,"

"Think of the payoff, gamble!"",1,risk,,,,,0,0,0,0,0,13,13,6,,,,,,,,,,,,,,,,,,,,,,,,,,,,,,,935.6208675230009,None,937.6428682780006,939.1635431680006,939.1468477770013,None,940.700933219001,None,1,942.6728041170009,None,942.6728041170009,None,942.6728041170009,None,943.541768467001,None,943.541768467001,944.5444110480003,945.6473239980005,None,945.6473239980005,None,right,945.6473239980005,None,None,None,946.2656188680012,947.6358876680006,0.7934772009994049,0.5789415119998012,,,,,,,,,,,,,107,001,18,1,2019_Dec_06_1110,Test,3.2.4,59.84127460989908,
Pictures/IA25_G5.bmp,Pictures/IA25_G5.bmp,Pictures/IA25.bmp,"

"Let's stay with the certain option."",0,safe,,,,,0,0,0,0,0,14,14,18,,,,,,,,,,,,,,,,,,,,,,,,,,,,,,,947.6526083170011,None,949.6746120610005,951.1952852270006,951.178567979001,None,952.7326807050013,None,1,954.7045453040009,None,954.7045453040009,None,954.7045453040009,None,955.0554578640003,None,955.0554578640003,956.0581007640012,957.1610143899998,None,957.1610143899998,None,left,957.1610143899998,None,957.9965557920004,959.1662940280003,None,None,0.23374213999886706,0.8012562370004161,,,,,,,,,,,,,107,001,18,1,2019_Dec_06_1110,Test,3.2.4,59.84127460989908,
Pictures/IA100_L20.bmp,Pictures/IA100_L20.bmp,Pictures/IA100.bmp,"

"Try to win as much money as you can, gamble!"",1,risk,,,,,0,0,0,0,0,15,15,2,,,,,,,,,,,,,,,,,,,,,,,,,,,,,,,959.1830181290006,None,961.2050188740013,962.7256931730008,962.7089790040009,None,964.2797911890011,None,1,966.2349435520009,None,966.2349435520009,None,966.2349435520009,None,966.7863954189997,None,966.7863954189997,967.7890470540005,968.8919488270003,None,968.8919488270003,None,right,968.8919488270003,None,None,None,969.2428705029997,970.8805317660008,0.4153286549990298,0.30231838100007735,,,,,,,,,,,,,107,001,18,1,2019_Dec_06_1110,Test,3.2.4,59.84127460989908,
Pictures/IA75_L60.bmp,Pictures/IA75_L60.bmp,Pictures/IA75.bmp,"

"Why not take the gamble?"",1,risk,,,,,0,0,0,0,0,16,16,13,,,,,,,,,,,,,,,,,,,,,,,,,,,,,,,970.8972325610011,None,972.9192345200008,974.4399342470006,974.423212619,None,975.9773013570011,None,1,977.9491719260004,None,977.9491719260004,None,977.9491719260004,None,979.001947789,None,979.001947789,980.0045814390014,981.1074960950009,None,981.1074960950009,None,right,981.1074960950009,None,None,None,982.1769899170013,None,0.9491076300000714,1.0307694190014445,,,,,,,,,,,,,107,001,18,1,2019_Dec_06_1110,Test,3.2.4,59.84127460989908,
Pictures/IA75_G45.bmp,Pictures/IA75_G45.bmp,Pictures/IA75.bmp,"

"Don't gamble for this one."",0,safe,,,,,0,0,0,0,0,17,17,8,,,,,,,,,,,,,,,,,,,,,,,,,,,,,,,983.1295058510004,None,985.1514907609999,986.6721665189998,986.6554688140004,None,988.3432423650011,None,1,990.181424579001,None,990.181424579001,None,990.181424579001,None,990.783018039001,None,990.783018039001,991.7856596080001,992.9052833080004,None,992.9052833080004,None,left,992.9052833080004,None,993.673962416,994.9105654390005,None,None,0.49285841599885316,0.7209910469991883,,,,,,,,,,,,,107,001,18,1,2019_Dec_06_1110,Test,3.2.4,59.84127460989908,
Pictures/IA75_G30.bmp,Pictures/IA75_G30.bmp,Pictures/IA75.bmp,"

"Be bold, gamble!"",1,risk,,,,,0,0,0,0,0,18,18,3,,,,,,,,,,,,,,,,,,,,,,,,,,,,,,,994.9272679650003,None,996.9492662789999,998.4699451739998,998.4532464230015,None,1000.0240483910002,None,1,1001.979211834001,None,1001.979211834001,None,1001.979211834001,None,1002.6977621580008,None,1002.6977621580008,1003.7004033330013,1004.8033297520014,None,1004.8033297520014,None,left,1004.8033297520014,None,1005.8728073760012,None,None,None,0.623070423000172,1.0229438610003854,,,,,,,,,,,,,107,001,18,1,2019_Dec_06_1110,Test,3.2.4,59.84127460989908,
Pictures/IA100_G20.bmp,Pictures/IA100_G20.bmp,Pictures/IA100.bmp,"

"Go ahead and gamble!"",1,risk,,,,,0,0,0,0,0,19,19,11,,,,,,,,,,,,,,,,,,,,,,,,,,,,,,,1006.8253084930002,None,1008.8473067909999,1010.3679831370009,1010.3512907010008,None,1011.855240328001,None,1,1013.8772532889998,None,1013.8772532889998,None,1013.8772532889998,None,1014.3451499780003,None,1014.3451499780003,1015.3477900050002,1016.4507026320007,None,1016.4507026320007,None,left,1016.4507026320007,None,1017.169262423,1018.439264857001,None,None,0.3810180379987287,0.671572646999266,,,,,,,,,,,,,107,001,18,1,2019_Dec_06_1110,Test,3.2.4,59.84127460989908,
,,,,,,,,,,0,0,0,0,,,,,,,,,,,,,,,,,,,,,,,,,,,,,,,,,,,,,,,,,,,,,,,,,,,,,,,,,,,,,,,,,,,,,,,,,1018.6899400910006,None,return,9.856322325000292,1018.6899400910006,None,107,001,18,1,2019_Dec_06_1110,Test,3.2.4,59.84127460989908,
Pictures/IA25_G10.bmp,Pictures/IA25_G10.bmp,Pictures/IA25.bmp,"

"What's life without a little risk?"",1,risk,,,,,1,0,1,0,0,0,0,17,,,,,,,,,,,,,1028.699657743,None,1028.699657743,None,1028.699657743,None,right,1.6786149630006548,1028.699657743,None,1028.699657743,None,1028.699657743,None,return,2.718493329000921,1028.699657743,None,1031.4736340689997,None,1033.478932715001,1034.9996079400007,1034.982889027,None,1036.4701474960002,None,1,1038.4921543190012,None,1038.4921543190012,None,1038.4921543190012,None,1039.277546323001,None,1039.277546323001,1040.280185167001,1041.3831027060005,None,1041.3831027060005,None,left,1041.3831027060005,None,1042.0682338280003,1043.3716800260008,None,None,0.6621271539988811,0.6431746340003883,,,,,,,,,,,,,107,001,18,1,2019_Dec_06_1110,Test,3.2.4,59.84127460989908,
Pictures/IA40_20_G95p.bmp,Pictures/IA40_20_G95p.bmp,Pictures/IA40.bmp,"

"Hold back, stay with the safe choice."",0,safe,,,,,1,0,1,0,0,1,1,18,,,,,,,,,,,,,,,,,,,,,,,,,,,,,,,1043.3883876400014,None,1045.4103947920012,1046.9143630939998,1046.8976437190013,None,1048.4183269160003,None,1,1050.4403232980003,None,1050.4403232980003,None,1050.4403232980003,None,1051.108747452001,None,1051.108747452001,1052.1113887869997,1053.2310122710005,None,1053.2310122710005,None,left,1053.2310122710005,None,1053.5986331639997,1055.236294638,None,None,0.545953943999848,0.3312597010008176,,,,,,,,,,,,,107,001,18,1,2019_Dec_06_1110,Test,3.2.4,59.84127460989908,
Pictures/IA25_L10.bmp,Pictures/IA25_L10.bmp,Pictures/IA25.bmp,"

"Dont be afraid to take the risk!"",1,risk,,,,,1,0,1,0,0,2,2,7,,,,,,,,,,,,,,,,,,,,,,,,,,,,,,,1055.2529939510005,None,1057.274993897001,1058.795683155,1058.7789725760013,None,1060.33305732,None,2,1062.304924602,None,1062.304924602,None,1062.304924602,None,None,None,None,None,1062.990062109,None,1062.990062109,None,left,1062.990062109,None,1064.5775788850005,None,None,None,0.5133590049990744,1.5482115430004342,,,,,,,,,,,,,107,001,18,1,2019_Dec_06_1110,Test,3.2.4,59.84127460989908,
Pictures/IA25_G5.bmp,Pictures/IA25_G5.bmp,Pictures/IA25.bmp,"

"Let's stay with the certain option."",0,safe,,,,,1,0,1,0,0,3,3,16,,,,,,,,,,,,,,,,,,,,,,,,,,,,,,,1064.9953573870007,None,1067.017355588001,1068.5380271560007,1068.521312965,None,1070.0252857300002,None,1,1072.047273663,None,1072.047273663,None,1072.047273663,None,1073.3841446400002,None,1073.3841446400002,1074.3867805170012,1075.5064055380008,None,1075.5064055380008,None,None,1075.5064055380008,None,None,None,None,None,1.1950120589990547,,,,,,,,,,,,,,107,001,18,1,2019_Dec_06_1110,Test,3.2.4,59.84127460989908,
Pictures/IA20_10_L95p.bmp,Pictures/IA20_10_L95p.bmp,Pictures/IA20.bmp,"

"Don't be tempted to gamble."",0,safe,,,,,1,0,1,0,0,4,4,8,,,,,,,,,,,,,,,,,,,,,,,,,,,,,,,1077.5116953449997,None,1079.5336853010012,1081.0543583130002,1081.037640679,None,1082.5750361790015,None,1,1084.563604840001,None,1084.563604840001,None,1084.563604840001,None,1085.1986215350007,None,1085.1986215350007,1086.2012574950004,1087.3041737570002,None,1087.3041737570002,None,right,1087.3041737570002,None,None,None,1087.922464450001,1089.292731118001,0.5186693409996224,0.5700989629985997,,,,,,,,,,,,,107,001,18,1,2019_Dec_06_1110,Test,3.2.4,59.84127460989908,
Pictures/IA80_40_G95p.bmp,Pictures/IA80_40_G95p.bmp,Pictures/IA80.bmp,"

"Think of the payoff, gamble!"",1,risk,,,,,1,0,1,0,0,5,5,5,,,,,,,,,,,,,,,,,,,,,,,,,,,,,,,1089.30946536,None,1091.3314531819997,1092.852126226,1092.835408934001,None,1094.339381527001,None,2,1096.4449217970014,None,1096.4449217970014,None,1096.4449217970014,None,None,None,None,None,1098.7008692130003,None,1098.7008692130003,None,left,1098.7008692130003,None,1099.9374716580005,None,None,None,2.085358639000333,1.1894071040005656,,,,,,,,,,,,,107,001,18,1,2019_Dec_06_1110,Test,3.2.4,59.84127460989908,
Pictures/IA100_G60.bmp,Pictures/IA100_G60.bmp,Pictures/IA100.bmp,"

"Be cautious, don't gamble for this one."",0,safe,,,,,1,0,1,0,0,6,6,2,,,,,,,,,,,,,,,,,,,,,,,,,,,,,,,1100.722872884,None,1102.744870071001,1104.2655467590012,1104.2488279420013,None,1105.769508372001,None,2,1107.7747968210006,None,1107.7747968210006,None,1107.7747968210006,None,None,None,None,None,1108.3763800100005,None,1108.3763800100005,None,left,1108.3763800100005,None,1108.7774258480003,1110.381652637001,None,None,0.347520078999878,0.36188698499972816,,,,,,,,,,,,,107,001,18,1,2019_Dec_06_1110,Test,3.2.4,59.84127460989908,
Pictures/IA50_L40.bmp,Pictures/IA50_L40.bmp,Pictures/IA50.bmp,"

"That gamble doesn't sound too good, play it safe."",0,safe,,,,,1,0,1,0,0,7,7,1,,,,,,,,,,,,,,,,,,,,,,,,,,,,,,,1110.3983748910014,None,1112.4203722580005,1113.9410478340014,1113.9243277900005,None,1115.5118556200014,None,1,1117.4502995780003,None,1117.4502995780003,None,1117.4502995780003,None,1117.834630796,None,1117.834630796,1118.8372780940008,1119.9401860960006,None,1119.9401860960006,None,left,1119.9401860960006,None,1121.3438954040012,None,None,None,0.23198502400009602,1.366087761000017,,,,,,,,,,,,,107,001,18,1,2019_Dec_06_1110,Test,3.2.4,59.84127460989908,
Pictures/IA100_L20.bmp,Pictures/IA100_L20.bmp,Pictures/IA100.bmp,"

"Try to win as much money as you can, gamble!"",1,risk,,,,,1,0,1,0,0,8,8,15,,,,,,,,,,,,,,,,,,,,,,,,,,,,,,,1121.9621766300006,None,1123.9841802190003,1125.5048475120002,1125.4881500840002,None,1126.9921154870008,None,2,1129.0141156270001,None,1129.0141156270001,None,1129.0141156270001,None,None,None,None,None,1130.8355766599998,None,1130.8355766599998,None,right,1130.8355766599998,None,None,None,1132.1891431510012,None,1.6121643120004592,1.3186968100017111,,,,,,,,,,,,,107,001,18,1,2019_Dec_06_1110,Test,3.2.4,59.84127460989908,
Pictures/IA100_L60.bmp,Pictures/IA100_L60.bmp,Pictures/IA100.bmp,"

"You'd have a lot to lose, don't gamble."",0,safe,,,,,1,0,1,0,0,9,9,10,,,,,,,,,,,,,,,,,,,,,,,,,,,,,,,1132.840861396,None,1134.8628569720004,1136.3835488980003,1136.3668155310006,None,1137.9209204810013,None,1,1139.892791018001,None,1139.892791018001,None,1139.892791018001,None,1140.3272487100003,None,1140.3272487100003,1141.3298888120007,1142.43280169,None,1142.43280169,None,left,1142.43280169,None,1143.7028214910006,None,None,None,0.29349243999968166,1.233468439000717,,,,,,,,,,,,,107,001,18,1,2019_Dec_06_1110,Test,3.2.4,59.84127460989908,
Pictures/IA25_L5.bmp,Pictures/IA25_L5.bmp,Pictures/IA25.bmp,"

"It would be smarter to choose the safe option."",0,safe,,,,,1,0,1,0,0,10,10,14,,,,,,,,,,,,,,,,,,,,,,,,,,,,,,,1144.4547929290002,None,1146.476789268001,1147.9974635420003,1147.9807665500011,None,1149.551566293001,None,1,1151.5067258930012,None,1151.5067258930012,None,1151.5067258930012,None,1152.9271430040008,None,1152.9271430040008,1153.929774362001,1155.0326875280007,None,1155.0326875280007,None,left,1155.0326875280007,None,1156.1857262089998,None,None,None,1.271554744000241,1.113584656999592,,,,,,,,,,,,,107,001,18,1,2019_Dec_06_1110,Test,3.2.4,59.84127460989908,
Pictures/IA75_L15.bmp,Pictures/IA75_L15.bmp,Pictures/IA75.bmp,"

"Trust me, gamble!"",1,risk,,,,,1,0,1,0,0,11,11,6,,,,,,,,,,,,,,,,,,,,,,,,,,,,,,,1157.0379670029997,None,1159.059965792001,1160.5639181790011,1160.547218556001,None,1162.118025138001,None,2,1164.0898896090002,None,1164.0898896090002,None,1164.0898896090002,None,None,None,None,None,1165.4935886660005,None,1165.4935886660005,None,right,1165.4935886660005,None,None,None,1165.7943895950011,1167.4988719660014,1.2483924899988779,0.25268626199977007,,,,,,,,,,,,,107,001,18,1,2019_Dec_06_1110,Test,3.2.4,59.84127460989908,
Pictures/IA80_40_L95p.bmp,Pictures/IA80_40_L95p.bmp,Pictures/IA80.bmp,"

"Let's stay with the certain option."",0,safe,,,,,1,0,1,0,0,12,12,9,,,,,,,,,,,,,,,,,,,,,,,,,,,,,,,1167.5155695890007,None,1169.537567245001,1171.0582385440011,1171.0415439099997,None,1172.545494981001,None,1,1174.5675041850009,None,1174.5675041850009,None,1174.5675041850009,None,1175.06882925,None,1175.06882925,1176.0714617949998,1177.1743743240004,None,1177.1743743240004,None,right,1177.1743743240004,None,None,None,1177.9430507680008,1179.1796668160005,0.37878842699865345,0.7318962280005508,,,,,,,,,,,,,107,001,18,1,2019_Dec_06_1110,Test,3.2.4,59.84127460989908,
Pictures/IA110_55_G95p.bmp,Pictures/IA110_55_G95p.bmp,Pictures/IA110.bmp,"

"Take a chance!"",1,risk,,,,,1,0,1,0,0,13,13,0,,,,,,,,,,,,,,,,,,,,,,,,,,,,,,,1179.1963540470006,None,1181.2350676810001,1182.755741238001,1182.7390385870003,None,1184.2764221220004,None,2,1186.2482880019998,None,1186.2482880019998,None,1186.2482880019998,None,None,None,None,None,1187.7188284410004,None,1187.7188284410004,None,left,1187.7188284410004,None,1188.8718676429999,None,None,None,1.3059899090003455,1.1074479070011876,,,,,,,,,,,,,107,001,18,1,2019_Dec_06_1110,Test,3.2.4,59.84127460989908,
Pictures/IA50_G40.bmp,Pictures/IA50_G40.bmp,Pictures/IA50.bmp,"

"It would probably be best to play it safe."",0,safe,,,,,1,0,1,0,0,14,14,11,,,,,,,,,,,,,,,,,,,,,,,,,,,,,,,1189.7241116160003,None,1191.7461096059997,1193.2667803910008,1193.2500619580005,None,1194.7707458860004,None,2,1196.7760315800006,None,1196.7760315800006,None,1196.7760315800006,None,None,None,None,None,1197.828795536001,None,1197.828795536001,None,left,1197.828795536001,None,1198.112875031,1199.8173908440003,None,None,0.8582477510008175,0.23747695299971383,,,,,,,,,,,,,107,001,18,1,2019_Dec_06_1110,Test,3.2.4,59.84127460989908,
Pictures/IA50_L20.bmp,Pictures/IA50_L20.bmp,Pictures/IA50.bmp,"

"Certainty is boring, take a risk!"",1,risk,,,,,1,0,1,0,0,15,15,12,,,,,,,,,,,,,,,,,,,,,,,,,,,,,,,1199.834077693,None,1201.8560735970004,1203.376747526001,1203.3600628950007,None,1204.897423489001,None,2,1206.8860098510013,None,1206.8860098510013,None,1206.8860098510013,None,None,None,None,None,1208.54036637,None,1208.54036637,None,right,1208.54036637,None,None,None,1208.8578691090006,1210.5289369860002,1.484268072001214,0.27790032800112385,,,,,,,,,,,,,107,001,18,1,2019_Dec_06_1110,Test,3.2.4,59.84127460989908,
Pictures/IA110_55_L95p.bmp,Pictures/IA110_55_L95p.bmp,Pictures/IA110.bmp,"

"Trust me, gamble!"",1,risk,,,,,1,0,1,0,0,16,16,4,,,,,,,,,,,,,,,,,,,,,,,,,,,,,,,1210.5456400910007,None,1212.5676337280001,1214.0883125790006,1214.0716168360013,None,1215.625696014,None,1,1217.597568448,None,1217.597568448,None,1217.597568448,None,1218.4832322950006,None,1218.4832322950006,1219.485866377001,1220.588777922001,None,1220.588777922001,None,right,1220.588777922001,None,None,None,1220.9230004750007,1222.5940674410012,0.7727254800010996,0.28550830299900554,,,,,,,,,,,,,107,001,18,1,2019_Dec_06_1110,Test,3.2.4,59.84127460989908,
Pictures/IA100_L40.bmp,Pictures/IA100_L40.bmp,Pictures/IA100.bmp,"

"Think of the payoff, gamble!"",1,risk,,,,,1,0,1,0,0,17,17,19,,,,,,,,,,,,,,,,,,,,,,,,,,,,,,,1222.6107693680005,None,1224.6327655189998,1226.1534412130004,1226.1367433560008,None,1227.674116100001,None,2,1229.6627035630008,None,1229.6627035630008,None,1229.6627035630008,None,None,None,None,None,1230.3144054940003,None,1230.3144054940003,None,right,1230.3144054940003,None,None,None,1230.648629274001,1232.3196996920014,0.45957714799988025,0.29586304100121197,,,,,,,,,,,,,107,001,18,1,2019_Dec_06_1110,Test,3.2.4,59.84127460989908,
Pictures/IA75_L30.bmp,Pictures/IA75_L30.bmp,Pictures/IA75.bmp,"

"Hold back, stay with the safe choice."",0,safe,,,,,1,0,1,0,0,18,18,3,,,,,,,,,,,,,,,,,,,,,,,,,,,,,,,1232.3364020300014,None,1234.3584336370004,1235.8624034550012,1235.845686476001,None,1237.4331781540004,None,2,1239.3883333080012,None,1239.3883333080012,None,1239.3883333080012,None,None,None,None,None,1239.8896437149997,None,1239.8896437149997,None,right,1239.8896437149997,None,None,None,1240.1737227470003,1241.8782236759998,0.3259463840004173,0.24862113400013186,,,,,,,,,,,,,107,001,18,1,2019_Dec_06_1110,Test,3.2.4,59.84127460989908,
Pictures/IA25_L20.bmp,Pictures/IA25_L20.bmp,Pictures/IA25.bmp,"

"Don't be tempted to gamble."",0,safe,,,,,1,0,1,0,0,19,19,13,,,,,,,,,,,,,,,,,,,,,,,,,,,,,,,1241.894923502001,None,1243.9336332040002,1245.4543044390011,1245.4376093640003,None,1246.9749935090003,None,1,1248.9468593710008,None,1248.9468593710008,None,1248.9468593710008,None,1249.7656838040002,None,1249.7656838040002,1250.7683181600005,1251.8879438370004,None,1251.8879438370004,None,left,1251.8879438370004,None,1252.4393982450001,1253.8932479110008,None,None,0.7034128580016841,0.5143202350009233,,,,,,,,,,,,,107,001,18,1,2019_Dec_06_1110,Test,3.2.4,59.84127460989908,
,,,,,,,,,,1,0,1,0,,,,,,,,,,,,,,,,,,,,,,,,,,,,,,,,,,,,,,,,,,,,,,,,,,,,,,,,,,,,,,,,,,,,,,,,,1254.060332033001,None,return,7.997933479000494,1254.060332033001,None,107,001,18,1,2019_Dec_06_1110,Test,3.2.4,59.84127460989908,
Pictures/IA40_20_G95p.bmp,Pictures/IA40_20_G95p.bmp,Pictures/IA40.bmp,"

"Hold back, stay with the safe choice."",0,safe,,,,,2,0,2,0,0,0,0,12,,,,,,,,,,,,,1262.2485825800013,None,1262.2485825800013,None,1262.2485825800013,None,left,5.4736878059993614,1262.2485825800013,None,1262.2485825800013,None,1262.2485825800013,None,return,6.457472317000793,1262.2485825800013,None,1268.7657536389997,None,1270.7877385520005,1272.308411637001,1272.2917175069997,None,1273.8123781530012,None,1,1275.7842477720005,None,1275.7842477720005,None,1275.7842477720005,None,1276.4359689170014,None,1276.4359689170014,1277.4386073140013,1278.5415203330012,None,1278.5415203330012,None,left,1278.5415203330012,None,1278.8590181890013,1280.530088196001,None,None,0.5220386440014408,0.2687530949988286,,,,,,,,,,,,,107,001,18,1,2019_Dec_06_1110,Test,3.2.4,59.84127460989908,
Pictures/IA40_20_L95p.bmp,Pictures/IA40_20_L95p.bmp,Pictures/IA40.bmp,"

"Trust me, gamble!"",1,risk,,,,,2,0,2,0,0,1,1,1,,,,,,,,,,,,,,,,,,,,,,,,,,,,,,,1280.5467906510003,None,1282.568787489001,1284.0894722350004,1284.0727642600013,None,1285.626863173,None,1,1287.5987131830007,None,1287.5987131830007,None,1287.5987131830007,None,1288.0833215620005,None,1288.0833215620005,1289.0859860700002,1290.1888721579999,None,1290.1888721579999,None,right,1290.1888721579999,None,None,None,1290.5230945680014,1292.1941640220011,0.37956594900060736,0.29339566999988165,,,,,,,,,,,,,107,001,18,1,2019_Dec_06_1110,Test,3.2.4,59.84127460989908,
Pictures/IA20_10_G95p.bmp,Pictures/IA20_10_G95p.bmp,Pictures/IA20.bmp,"

"Take a leap, I think you should gamble."",1,risk,,,,,2,0,2,0,0,2,2,19,,,,,,,,,,,,,,,,,,,,,,,,,,,,,,,1292.2108639449998,None,1294.249571395001,1295.7535431920005,1295.7368282509997,None,1297.257509082001,None,2,1299.262796125,None,1299.262796125,None,1299.262796125,None,None,None,None,None,1300.399122158,None,1300.399122158,None,left,1300.399122158,None,1300.6664823930005,1302.4043947720002,None,None,0.947484088001147,0.22714546399947722,,,,,,,,,,,,,107,001,18,1,2019_Dec_06_1110,Test,3.2.4,59.84127460989908,
Pictures/IA20_10_L95p.bmp,Pictures/IA20_10_L95p.bmp,Pictures/IA20.bmp,"

"Don't be tempted to gamble."",0,safe,,,,,2,0,2,0,0,3,3,8,,,,,,,,,,,,,,,,,,,,,,,,,,,,,,,1302.421114836001,None,1304.4598469400007,1305.9638000960003,1305.9471044809998,None,1307.484496051,None,2,1309.473052239,None,1309.473052239,None,1309.473052239,None,None,None,None,None,1310.3754125960004,None,1310.3754125960004,None,right,1310.3754125960004,None,None,None,1310.9769903420001,1312.3806880030006,0.7132419379995554,0.5628707310006575,,,,,,,,,,,,,107,001,18,1,2019_Dec_06_1110,Test,3.2.4,59.84127460989908,
Pictures/IA50_L40.bmp,Pictures/IA50_L40.bmp,Pictures/IA50.bmp,"

"That gamble doesn't sound too good, play it safe."",0,safe,,,,,2,0,2,0,0,4,4,15,,,,,,,,,,,,,,,,,,,,,,,,,,,,,,,1312.397431808,None,1314.4361171150013,1315.9567905109998,1315.9400719679998,None,1317.477452559,None,1,1319.4493225389997,None,1319.4493225389997,None,1319.4493225389997,None,1320.468684593001,None,1320.468684593001,1321.4713196230005,1322.5909448600014,None,1322.5909448600014,None,left,1322.5909448600014,None,1323.67714032,None,None,None,0.8569547649985907,1.0433239610010787,,,,,,,,,,,,,107,001,18,1,2019_Dec_06_1110,Test,3.2.4,59.84127460989908,
Pictures/IA75_L60.bmp,Pictures/IA75_L60.bmp,Pictures/IA75.bmp,"

"Why not take the gamble?"",1,risk,,,,,2,0,2,0,0,5,5,17,,,,,,,,,,,,,,,,,,,,,,,,,,,,,,,1324.5962253140005,None,1326.6349341210007,1328.1556107730012,1328.1388885160013,None,1329.6762721750001,None,1,1331.6481363889998,None,1331.6481363889998,None,1331.6481363889998,None,1332.3499898219998,None,1332.3499898219998,1333.3526223600002,1334.4555355100001,None,1334.4555355100001,None,right,1334.4555355100001,None,None,None,1334.940142626001,1336.4441159310009,0.5701482860004035,0.4427413699995668,,,,,,,,,,,,,107,001,18,1,2019_Dec_06_1110,Test,3.2.4,59.84127460989908,
Pictures/IA100_L20.bmp,Pictures/IA100_L20.bmp,Pictures/IA100.bmp,"

"Try to win as much money as you can, gamble!"",1,risk,,,,,2,0,2,0,0,6,6,13,,,,,,,,,,,,,,,,,,,,,,,,,,,,,,,1336.4608161730011,None,1338.5162390580008,1340.0202078250004,1340.0034904460008,None,1341.5408746560006,None,2,1343.5127380930007,None,1343.5127380930007,None,1343.5127380930007,None,None,None,None,None,1344.0140722450014,None,1344.0140722450014,None,right,1344.0140722450014,None,None,None,1344.3148502760014,1346.0193508390003,0.3295531830008258,0.2601959409985284,,,,,,,,,,,,,107,001,18,1,2019_Dec_06_1110,Test,3.2.4,59.84127460989908,
Pictures/IA50_L20.bmp,Pictures/IA50_L20.bmp,Pictures/IA50.bmp,"

"Certainty is boring, take a risk!"",1,risk,,,,,2,0,2,0,0,7,7,5,,,,,,,,,,,,,,,,,,,,,,,,,,,,,,,1346.036052341,None,1348.0580464209997,1349.578722528,1349.5620251970013,None,1351.0994065800005,None,1,1353.0879998070013,None,1353.0879998070013,None,1353.0879998070013,None,1353.9736475490008,None,1353.9736475490008,1354.9762859350012,1356.095911585,None,1356.095911585,None,right,1356.095911585,None,None,None,1356.9815708920014,1358.1011975380006,0.762284639000427,0.842355087001124,,,,,,,,,,,,,107,001,18,1,2019_Dec_06_1110,Test,3.2.4,59.84127460989908,
Pictures/IA50_L30.bmp,Pictures/IA50_L30.bmp,Pictures/IA50.bmp,"

"Take a leap, I think you should gamble."",1,risk,,,,,2,0,2,0,0,8,8,2,,,,,,,,,,,,,,,,,,,,,,,,,,,,,,,1358.1179048720005,None,1360.1398997390006,1361.6605749170012,1361.6438569809998,None,1363.197964508001,None,1,1365.1698282720008,None,1365.1698282720008,None,1365.1698282720008,None,1366.8743379099997,None,1366.8743379099997,1367.8769468700011,1368.979859346,None,1368.979859346,None,right,1368.979859346,None,None,None,1370.7010578610007,None,1.5684504300006665,1.686413598999934,,,,,,,,,,,,,107,001,18,1,2019_Dec_06_1110,Test,3.2.4,59.84127460989908,
Pictures/IA110_55_G95p.bmp,Pictures/IA110_55_G95p.bmp,Pictures/IA110.bmp,"

"Take a chance!"",1,risk,,,,,2,0,2,0,0,9,9,0,,,,,,,,,,,,,,,,,,,,,,,,,,,,,,,1370.985153791,None,1373.0238635730002,1374.5445312520005,1374.5278193980012,None,1376.048486058,None,1,1378.0370800370001,None,1378.0370800370001,None,1378.0370800370001,None,1378.6720678769998,None,1378.6720678769998,1379.6747068200002,1380.7776203250014,None,1380.7776203250014,None,left,1380.7776203250014,None,1381.579746708001,1382.7829092210013,None,None,0.5571896360015671,0.7526435010004207,,,,,,,,,,,,,107,001,18,1,2019_Dec_06_1110,Test,3.2.4,59.84127460989908,
Pictures/IA80_40_G95p.bmp,Pictures/IA80_40_G95p.bmp,Pictures/IA80.bmp,"

"Think of the payoff, gamble!"",1,risk,,,,,2,0,2,0,0,10,10,18,,,,,,,,,,,,,,,,,,,,,,,,,,,,,,,1382.7996163839998,None,1384.838319427001,1386.3422919620007,1386.3255734880004,None,1387.8796788580003,None,2,1389.851543711,None,1389.851543711,None,1389.851543711,None,None,None,None,None,1390.8207667060015,None,1390.8207667060015,None,left,1390.8207667060015,None,1391.455759034001,1392.826052845001,None,None,0.8147349570008373,0.5895049610007845,,,,,,,,,,,,,107,001,18,1,2019_Dec_06_1110,Test,3.2.4,59.84127460989908,
Pictures/IA100_G20.bmp,Pictures/IA100_G20.bmp,Pictures/IA100.bmp,"

"Go ahead and gamble!"",1,risk,,,,,2,0,2,0,0,11,11,10,,,,,,,,,,,,,,,,,,,,,,,,,,,,,,,1392.8427469529997,None,1394.8647459969998,1396.3854177110006,1396.3687426329998,None,1397.9228041450006,None,1,1399.894671123,None,1399.894671123,None,1399.894671123,None,1400.4962532680001,None,1400.4962532680001,1401.4988944550005,1402.6018120019999,None,1402.6018120019999,None,right,1402.6018120019999,None,None,None,1403.5710345940006,1404.6070879220006,0.5076069699989603,0.9204573340011848,,,,,,,,,,,,,107,001,18,1,2019_Dec_06_1110,Test,3.2.4,59.84127460989908,
Pictures/IA25_L5.bmp,Pictures/IA25_L5.bmp,Pictures/IA25.bmp,"

"It would be smarter to choose the safe option."",0,safe,,,,,2,0,2,0,0,12,12,16,,,,,,,,,,,,,,,,,,,,,,,,,,,,,,,1404.623807729,None,1406.662516409,1408.1831913060014,1408.1665156800009,None,1409.687158199,None,2,1411.6757226210011,None,1411.6757226210011,None,1411.6757226210011,None,None,None,None,None,1412.2940169860012,None,1412.2940169860012,None,right,1412.2940169860012,None,None,None,1412.628244044001,1414.2993096500013,0.41455892299927655,0.28425823299949116,,,,,,,,,,,,,107,001,18,1,2019_Dec_06_1110,Test,3.2.4,59.84127460989908,
Pictures/IA75_G30.bmp,Pictures/IA75_G30.bmp,Pictures/IA75.bmp,"

"Be bold, gamble!"",1,risk,,,,,2,0,2,0,0,13,13,4,,,,,,,,,,,,,,,,,,,,,,,,,,,,,,,1414.3160077800003,None,1416.3547162560008,1417.8586888650007,1417.8419712249997,None,1419.4127880560009,None,2,1421.3679340730014,None,1421.3679340730014,None,1421.3679340730014,None,None,None,None,None,1422.6713675770006,None,1422.6713675770006,None,right,1422.6713675770006,None,None,None,1422.9721732830003,1424.676647276001,1.1463520670004073,0.2509013149992825,,,,,,,,,,,,,107,001,18,1,2019_Dec_06_1110,Test,3.2.4,59.84127460989908,
Pictures/IA100_L60.bmp,Pictures/IA100_L60.bmp,Pictures/IA100.bmp,"

"You'd have a lot to lose, don't gamble."",0,safe,,,,,2,0,2,0,0,14,14,14,,,,,,,,,,,,,,,,,,,,,,,,,,,,,,,1424.6933711410002,None,1426.71536853,1428.2360427170006,1428.219323405001,None,1429.773430016001,None,2,1431.7452941030006,None,1431.7452941030006,None,1431.7452941030006,None,None,None,None,None,1432.480565244001,None,1432.480565244001,None,right,1432.480565244001,None,None,None,1432.7813445459997,1434.4858449410003,0.5129792589996214,0.2577081409999664,,,,,,,,,,,,,107,001,18,1,2019_Dec_06_1110,Test,3.2.4,59.84127460989908,
Pictures/IA50_G10.bmp,Pictures/IA50_G10.bmp,Pictures/IA50.bmp,"

"Go with the safe option here!"",0,safe,,,,,2,0,2,0,0,15,15,11,,,,,,,,,,,,,,,,,,,,,,,,,,,,,,,1434.5025467410014,None,1436.5245438090005,1438.0452170940007,1438.028520576001,None,1439.5826041930013,None,1,1441.5544729360008,None,1441.5544729360008,None,1441.5544729360008,None,1442.1560646819999,None,1442.1560646819999,1443.158704372001,1444.2616158950004,None,1444.2616158950004,None,left,1444.2616158950004,None,1445.013595034001,1446.2501755400008,None,None,0.4878091640002822,0.7086603610005113,,,,,,,,,,,,,107,001,18,1,2019_Dec_06_1110,Test,3.2.4,59.84127460989908,
Pictures/IA75_L15.bmp,Pictures/IA75_L15.bmp,Pictures/IA75.bmp,"

"Trust me, gamble!"",1,risk,,,,,2,0,2,0,0,16,16,6,,,,,,,,,,,,,,,,,,,,,,,,,,,,,,,1446.266900961,None,1448.2888952829999,1449.8095687690002,1449.792849683001,None,1451.3302438749997,None,2,1453.318811479001,None,1453.318811479001,None,1453.318811479001,None,None,None,None,None,1453.820132543,None,1453.820132543,None,right,1453.820132543,None,None,None,1454.1042226040008,1455.8087166269997,0.3474676410005486,0.23814198400032183,,,,,,,,,,,,,107,001,18,1,2019_Dec_06_1110,Test,3.2.4,59.84127460989908,
Pictures/IA80_40_L95p.bmp,Pictures/IA80_40_L95p.bmp,Pictures/IA80.bmp,"

"Let's stay with the certain option."",0,safe,,,,,2,0,2,0,0,17,17,7,,,,,,,,,,,,,,,,,,,,,,,,,,,,,,,1455.8254120620004,None,1457.864121861001,1459.3847991310013,1459.3680987340013,None,1460.9054822020007,None,2,1462.877348768001,None,1462.877348768001,None,1462.877348768001,None,None,None,None,None,1463.6460322720013,None,1463.6460322720013,None,right,1463.6460322720013,None,None,None,1464.3645874049998,1465.634604099001,0.588935293000759,0.6842308229988703,,,,,,,,,,,,,107,001,18,1,2019_Dec_06_1110,Test,3.2.4,59.84127460989908,
Pictures/IA25_G20.bmp,Pictures/IA25_G20.bmp,Pictures/IA25.bmp,"

"I wouldn't gamble for this one. "",0,safe,,,,,2,0,2,0,0,18,18,9,,,,,,,,,,,,,,,,,,,,,,,,,,,,,,,1465.6513230769997,None,1467.6733234340008,1469.193991481001,1469.1772792350002,None,1470.7480910850009,None,2,1472.7032358819997,None,1472.7032358819997,None,1472.7032358819997,None,None,None,None,None,1473.2379406050004,None,1473.2379406050004,None,right,1473.2379406050004,None,None,None,1473.7225845459998,1475.2265607130012,0.3710471680005867,0.43633534600121493,,,,,,,,,,,,,107,001,18,1,2019_Dec_06_1110,Test,3.2.4,59.84127460989908,
Pictures/IA100_G40.bmp,Pictures/IA100_G40.bmp,Pictures/IA100.bmp,"

"Try your luck and gamble!"",1,risk,,,,,2,0,2,0,0,19,19,3,,,,,,,,,,,,,,,,,,,,,,,,,,,,,,,1475.2432608430008,None,1477.2652572820007,1478.785930004,1478.7692338329998,None,1480.3233167810013,None,1,1482.2951839880006,None,1482.2951839880006,None,1482.2951839880006,None,1482.729669702001,None,1482.729669702001,1483.7323103159997,1484.835219961,None,1484.835219961,None,left,1484.835219961,None,1485.5370569570005,1486.8405030960002,None,None,0.3310936699999729,0.6550535209989903,,,,,,,,,,,,,107,001,18,1,2019_Dec_06_1110,Test,3.2.4,59.84127460989908,
,,,,,,,,,,2,0,2,0,,,,,,,,,,,,,,,,,,,,,,,,,,,,,,,,,,,,,,,,,,,,,,,,,,,,,,,,,,,,,,,,,,,,,,,,,1487.0076042930014,None,return,10.34666416500113,1487.0076042930014,None,107,001,18,1,2019_Dec_06_1110,Test,3.2.4,59.84127460989908,
Pictures/IA50_G30.bmp,Pictures/IA50_G30.bmp,Pictures/IA50.bmp,"

"I think you should gamble."",1,risk,,,,,3,0,3,0,0,0,0,19,,,,,,,,,,,,,1497.5353614650012,None,1497.5353614650012,None,1497.5353614650012,None,right,7.506932086998859,1497.5353614650012,None,1497.5353614650012,None,1497.5353614650012,None,return,8.498839801999566,1497.5353614650012,None,1506.0912536240012,None,1508.096530535,1509.6171922250014,1509.6004955970002,None,1511.1378857199998,None,2,1513.1097514060002,None,1513.1097514060002,None,1513.1097514060002,None,None,None,None,None,1513.594357367001,None,1513.594357367001,None,right,1513.594357367001,None,None,None,1514.4298779870005,1515.5996370740013,0.3085402359993168,0.7999161160005315,,,,,,,,,,,,,107,001,18,1,2019_Dec_06_1110,Test,3.2.4,59.84127460989908,
Pictures/IA75_G45.bmp,Pictures/IA75_G45.bmp,Pictures/IA75.bmp,"

"Don't gamble for this one."",0,safe,,,,,3,0,3,0,0,1,1,7,,,,,,,,,,,,,,,,,,,,,,,,,,,,,,,1515.6163375230008,None,1517.6383354850004,1519.1590125359999,1519.1423135620007,None,1520.6964011689997,None,1,1522.66826889,None,1522.66826889,None,1522.66826889,None,1523.921568963,None,1523.921568963,1524.9242082030014,1526.0271168489999,None,1526.0271168489999,None,left,1526.0271168489999,None,1527.8653000520007,None,None,None,1.1420144570001867,1.7991619820004416,,,,,,,,,,,,,107,001,18,1,2019_Dec_06_1110,Test,3.2.4,59.84127460989908,
Pictures/IA100_G80.bmp,Pictures/IA100_G80.bmp,Pictures/IA100.bmp,"

"Why not gamble?"",1,risk,,,,,3,0,3,0,0,2,2,4,,,,,,,,,,,,,,,,,,,,,,,,,,,,,,,1528.049118668001,None,1530.0711174879998,1531.591791320001,1531.5750717390001,None,1533.1458916700012,None,2,1535.1010311790014,None,1535.1010311790014,None,1535.1010311790014,None,None,None,None,None,1535.7694579430008,None,1535.7694579430008,None,left,1535.7694579430008,None,1536.5047380800006,1537.7580411210001,None,None,0.5172591800001101,0.6888152930005162,,,,,,,,,,,,,107,001,18,1,2019_Dec_06_1110,Test,3.2.4,59.84127460989908,
Pictures/IA100_G60.bmp,Pictures/IA100_G60.bmp,Pictures/IA100.bmp,"

"Be cautious, don't gamble for this one."",0,safe,,,,,3,0,3,0,0,3,3,18,,,,,,,,,,,,,,,,,,,,,,,,,,,,,,,1537.774741221001,None,1539.7967432540008,1541.3174136920006,1541.3007156029998,None,1542.854799177001,None,2,1544.826666416,None,1544.826666416,None,1544.826666416,None,None,None,None,None,1545.3112767910006,None,1545.3112767910006,None,left,1545.3112767910006,None,1545.628776671001,1547.2998469169997,None,None,0.31161489299847744,0.28298754999923403,,,,,,,,,,,,,107,001,18,1,2019_Dec_06_1110,Test,3.2.4,59.84127460989908,
Pictures/IA100_L80.bmp,Pictures/IA100_L80.bmp,Pictures/IA100.bmp,"

"Go all in!"",1,risk,,,,,3,0,3,0,0,4,4,1,,,,,,,,,,,,,,,,,,,,,,,,,,,,,,,1547.3165708240012,None,1549.3385661379998,1550.859241098,1550.8425228750002,None,1552.4133374480007,None,1,1554.3684833940006,None,1554.3684833940006,None,1554.3684833940006,None,1554.752838968001,None,1554.752838968001,1555.755473688001,1556.858395886,None,1556.858395886,None,right,1556.858395886,None,None,None,1558.1284581210002,None,0.2977913399990939,1.231886472000042,,,,,,,,,,,,,107,001,18,1,2019_Dec_06_1110,Test,3.2.4,59.84127460989908,
Pictures/IA75_G60.bmp,Pictures/IA75_G60.bmp,Pictures/IA75.bmp,"

"Make it exciting, take a chance!"",1,risk,,,,,3,0,3,0,0,5,5,10,,,,,,,,,,,,,,,,,,,,,,,,,,,,,,,1558.863672816,None,1560.88566833,1562.4063409240007,1562.3896225410008,None,1563.9437330180008,None,2,1565.9155961779998,None,1565.9155961779998,None,1565.9155961779998,None,None,None,None,None,1566.9349493420013,None,1566.9349493420013,None,left,1566.9349493420013,None,1567.269149181,1568.923507566,None,None,0.8466790600014065,0.2993235529993399,,,,,,,,,,,,,107,001,18,1,2019_Dec_06_1110,Test,3.2.4,59.84127460989908,
Pictures/IA80_40_G95p.bmp,Pictures/IA80_40_G95p.bmp,Pictures/IA80.bmp,"

"Think of the payoff, gamble!"",1,risk,,,,,3,0,3,0,0,6,6,8,,,,,,,,,,,,,,,,,,,,,,,,,,,,,,,1568.9402300750007,None,1570.9622267610011,1572.4829010940011,1572.4661826990014,None,1573.9701597050007,None,1,1575.992144279,None,1575.992144279,None,1575.992144279,None,1576.3430757550013,None,1576.3430757550013,1577.3457084310012,1578.4486229640006,None,1578.4486229640006,None,left,1578.4486229640006,None,1580.0361369970014,None,None,None,0.25013438099995255,1.5456533699998545,,,,,,,,,,,,,107,001,18,1,2019_Dec_06_1110,Test,3.2.4,59.84127460989908,
Pictures/IA50_L40.bmp,Pictures/IA50_L40.bmp,Pictures/IA50.bmp,"

"That gamble doesn't sound too good, play it safe."",0,safe,,,,,3,0,3,0,0,7,7,14,,,,,,,,,,,,,,,,,,,,,,,,,,,,,,,1580.4539103070001,None,1582.4759067760006,1583.996580993,1583.9798631770009,None,1585.5172583420008,None,1,1587.505824228001,None,1587.505824228001,None,1587.505824228001,None,1588.8092662810013,None,1588.8092662810013,1589.8119016560013,1590.9148094459997,None,1590.9148094459997,None,left,1590.9148094459997,None,1592.819845584001,None,None,None,1.136448733999714,1.8554658720004227,,,,,,,,,,,,,107,001,18,1,2019_Dec_06_1110,Test,3.2.4,59.84127460989908,
Pictures/IA100_G20.bmp,Pictures/IA100_G20.bmp,Pictures/IA100.bmp,"

"Go ahead and gamble!"",1,risk,,,,,3,0,3,0,0,8,8,5,,,,,,,,,,,,,,,,,,,,,,,,,,,,,,,1592.9368120609997,None,1594.958808931,1596.479484245001,1596.4627661020004,None,1597.9834522740002,None,1,1599.9887396230006,None,1599.9887396230006,None,1599.9887396230006,None,1600.9078261680006,None,1600.9078261680006,1601.9104635390013,1603.0300886679997,None,1603.0300886679997,None,right,1603.0300886679997,None,None,None,1603.5146943060008,1605.0186466860014,0.8055410260003555,0.4441798839998228,,,,,,,,,,,,,107,001,18,1,2019_Dec_06_1110,Test,3.2.4,59.84127460989908,
Pictures/IA75_L45.bmp,Pictures/IA75_L45.bmp,Pictures/IA75.bmp,"

"Don't gamble for this one, play it safe."",0,safe,,,,,3,0,3,0,0,9,9,0,,,,,,,,,,,,,,,,,,,,,,,,,,,,,,,1605.035370507001,None,1607.0573664960011,1608.5780395520014,1608.561321700001,None,1610.1154276880006,None,1,1612.0873102269998,None,1612.0873102269998,None,1612.0873102269998,None,1613.7917827769998,None,1613.7917827769998,1614.794412927,1615.897325029,None,1615.897325029,None,right,1615.897325029,None,None,None,1617.1840471150008,None,1.5549614400006249,1.2489468940002553,,,,,,,,,,,,,107,001,18,1,2019_Dec_06_1110,Test,3.2.4,59.84127460989908,
Pictures/IA75_L60.bmp,Pictures/IA75_L60.bmp,Pictures/IA75.bmp,"

"Why not take the gamble?"",1,risk,,,,,3,0,3,0,0,10,10,6,,,,,,,,,,,,,,,,,,,,,,,,,,,,,,,1617.9026050360008,None,1619.9246097070009,1621.4452773680005,1621.4285968160002,None,1622.9325478760002,None,1,1624.9545428760011,None,1624.9545428760011,None,1624.9545428760011,None,1625.4057192569999,None,1625.4057192569999,1626.4083574720007,1627.5112718360015,None,1627.5112718360015,None,right,1627.5112718360015,None,None,None,1628.1295622140005,1629.499850829001,0.3277477640003781,0.5710025130010763,,,,,,,,,,,,,107,001,18,1,2019_Dec_06_1110,Test,3.2.4,59.84127460989908,
Pictures/IA50_G20.bmp,Pictures/IA50_G20.bmp,Pictures/IA50.bmp,"

"Let's venture and take a risk!"",1,risk,,,,,3,0,3,0,0,11,11,9,,,,,,,,,,,,,,,,,,,,,,,,,,,,,,,1629.516550982,None,1631.5385504670012,1633.0592219749997,1633.0425274600002,None,1634.613319053,None,2,1636.5684870679997,None,1636.5684870679997,None,1636.5684870679997,None,None,None,None,None,1637.0029604890005,None,1637.0029604890005,None,left,1637.0029604890005,None,1637.2870338730008,1638.9915358200014,None,None,0.2657931749999989,0.24730767999972159,,,,,,,,,,,,,107,001,18,1,2019_Dec_06_1110,Test,3.2.4,59.84127460989908,
Pictures/IA50_L20.bmp,Pictures/IA50_L20.bmp,Pictures/IA50.bmp,"

"Certainty is boring, take a risk!"",1,risk,,,,,3,0,3,0,0,12,12,15,,,,,,,,,,,,,,,,,,,,,,,,,,,,,,,1639.0082362060002,None,1641.0302334320004,1642.5509069500004,1642.5342103740004,None,1644.0715826110008,None,2,1646.0601714800014,None,1646.0601714800014,None,1646.0601714800014,None,None,None,None,None,1646.9625393610004,None,1646.9625393610004,None,right,1646.9625393610004,None,None,None,1647.3970245,1648.9511194060015,0.7261086970011092,0.39173205100087216,,,,,,,,,,,,,107,001,18,1,2019_Dec_06_1110,Test,3.2.4,59.84127460989908,
Pictures/IA25_G10.bmp,Pictures/IA25_G10.bmp,Pictures/IA25.bmp,"

"What's life without a little risk?"",1,risk,,,,,3,0,3,0,0,13,13,12,,,,,,,,,,,,,,,,,,,,,,,,,,,,,,,1648.967826438,None,1650.9898177880004,1652.5104953910013,1652.4937974550012,None,1654.0478788670007,None,1,1656.0197504030002,None,1656.0197504030002,None,1656.0197504030002,None,1657.0391103050006,None,1657.0391103050006,1658.0417479850003,1659.1446763559998,None,1659.1446763559998,None,right,1659.1446763559998,None,None,None,1659.8464953350012,1661.1332328010012,0.8865198109997436,0.6655922219997592,,,,,,,,,,,,,107,001,18,1,2019_Dec_06_1110,Test,3.2.4,59.84127460989908,
Pictures/IA110_55_L95p.bmp,Pictures/IA110_55_L95p.bmp,Pictures/IA110.bmp,"

"Trust me, gamble!"",1,risk,,,,,3,0,3,0,0,14,14,16,,,,,,,,,,,,,,,,,,,,,,,,,,,,,,,1661.1499311480002,None,1663.205345286,1664.7093215969999,1664.6926217420005,None,1666.1965656270004,None,2,1668.2018557280007,None,1668.2018557280007,None,1668.2018557280007,None,None,None,None,None,1668.8535826830012,None,1668.8535826830012,None,right,1668.8535826830012,None,None,None,1669.104250544,1670.8421533870005,0.4884366130008857,0.2046926410002925,,,,,,,,,,,,,107,001,18,1,2019_Dec_06_1110,Test,3.2.4,59.84127460989908,
Pictures/IA100_L40.bmp,Pictures/IA100_L40.bmp,Pictures/IA100.bmp,"

"Think of the payoff, gamble!"",1,risk,,,,,3,0,3,0,0,15,15,3,,,,,,,,,,,,,,,,,,,,,,,,,,,,,,,1670.8588559030013,None,1672.880851242,1674.401523841001,1674.3848323620005,None,1675.9389115579997,None,2,1677.9107850550008,None,1677.9107850550008,None,1677.9107850550008,None,None,None,None,None,1678.5290863310001,None,1678.5290863310001,None,right,1678.5290863310001,None,None,None,1678.763020798,1680.5343671980008,0.4514983469998697,0.18519781899885857,,,,,,,,,,,,,107,001,18,1,2019_Dec_06_1110,Test,3.2.4,59.84127460989908,
Pictures/IA25_L15.bmp,Pictures/IA25_L15.bmp,Pictures/IA25.bmp,"

"There's not much on the line here, gamble!"",1,risk,,,,,3,0,3,0,0,16,16,2,,,,,,,,,,,,,,,,,,,,,,,,,,,,,,,1680.5510674610014,None,1682.5730644070009,1684.0937588280012,1684.0770416340001,None,1685.6478375120005,None,1,1687.6030092769997,None,1687.6030092769997,None,1687.6030092769997,None,1688.4552468010006,None,1688.4552468010006,1689.4578924430007,1690.5775101030013,None,1690.5775101030013,None,right,1690.5775101030013,None,None,None,1690.9284312700001,1692.5660689220003,0.71127741500095,0.31277699199927156,,,,,,,,,,,,,107,001,18,1,2019_Dec_06_1110,Test,3.2.4,59.84127460989908,
Pictures/IA20_10_L95p.bmp,Pictures/IA20_10_L95p.bmp,Pictures/IA20.bmp,"

"Don't be tempted to gamble."",0,safe,,,,,3,0,3,0,0,17,17,11,,,,,,,,,,,,,,,,,,,,,,,,,,,,,,,1692.5827897840009,None,1694.6215195610002,1696.1254542429997,1696.1087601440013,None,1697.629434728,None,2,1699.6347062780005,None,1699.6347062780005,None,1699.6347062780005,None,None,None,None,None,1700.0859002570014,None,1700.0859002570014,None,right,1700.0859002570014,None,None,None,1700.3699732620007,1702.074475077001,0.27957213899935596,0.24436914900070406,,,,,,,,,,,,,107,001,18,1,2019_Dec_06_1110,Test,3.2.4,59.84127460989908,
Pictures/IA75_L30.bmp,Pictures/IA75_L30.bmp,Pictures/IA75.bmp,"

"Hold back, stay with the safe choice."",0,safe,,,,,3,0,3,0,0,18,18,13,,,,,,,,,,,,,,,,,,,,,,,,,,,,,,,1702.0911851550009,None,1704.1131712020015,1705.6338461590003,1705.6171493230013,None,1707.1545309700014,None,2,1709.1431126389998,None,1709.1431126389998,None,1709.1431126389998,None,None,None,None,None,1709.5608829600005,None,1709.5608829600005,None,right,1709.5608829600005,None,None,None,1709.8449579839998,1711.5494369059998,0.24316992099920753,0.24939984699994966,,,,,,,,,,,,,107,001,18,1,2019_Dec_06_1110,Test,3.2.4,59.84127460989908,
Pictures/IA80_40_L95p.bmp,Pictures/IA80_40_L95p.bmp,Pictures/IA80.bmp,"

"Let's stay with the certain option."",0,safe,,,,,3,0,3,0,0,19,19,17,,,,,,,,,,,,,,,,,,,,,,,,,,,,,,,1711.566159168,None,1713.588159455001,1715.1088360230005,1715.0921203409998,None,1716.596085340001,None,2,1718.6180791660008,None,1718.6180791660008,None,1718.6180791660008,None,None,None,None,None,1719.069262002,None,1719.069262002,None,right,1719.069262002,None,None,None,1719.3867641859997,1721.0578323669997,0.2722046839990071,0.2690094499994302,,,,,,,,,,,,,107,001,18,1,2019_Dec_06_1110,Test,3.2.4,59.84127460989908,
,,,,,,,,,,3,0,3,0,,,,,,,,,,,,,,,,,,,,,,,,,,,,,,,,,,,,,,,,,,,,,,,,,,,,,,,,,,,,,,,,,,,,,,,,,1721.2249565809998,None,return,10.993308364999393,1721.2249565809998,None,107,001,18,1,2019_Dec_06_1110,Test,3.2.4,59.84127460989908,
Pictures/IA100_G80.bmp,Pictures/IA100_G80.bmp,Pictures/IA100.bmp,"

"Why not gamble?"",1,risk,,,,,4,0,4,0,0,0,0,11,,,,,,,,,,,,,1732.4044108960006,None,1732.4044108960006,None,1732.4044108960006,None,right,6.589861893999114,1732.4044108960006,None,1732.4044108960006,None,1732.4044108960006,None,return,7.437641471999086,1732.4044108960006,None,1739.907532131001,None,1741.9128020919998,1743.4334777559998,1743.4167804790013,None,1744.9040366629997,None,2,1746.9260212190002,None,1746.9260212190002,None,1746.9260212190002,None,None,None,None,None,1747.4774831640007,None,1747.4774831640007,None,left,1747.4774831640007,None,1747.8116843549997,1749.4827537230012,None,None,0.3882661019997613,0.2927901130005921,,,,,,,,,,,,,107,001,18,1,2019_Dec_06_1110,Test,3.2.4,59.84127460989908,
Pictures/IA75_G15.bmp,Pictures/IA75_G15.bmp,Pictures/IA75.bmp,"

"Take a chance!"",1,risk,,,,,4,0,4,0,0,1,1,7,,,,,,,,,,,,,,,,,,,,,,,,,,,,,,,1749.4994767450007,None,1751.5214790690006,1753.042150796,1753.0254347270002,None,1754.579532863001,None,2,1756.5514005350014,None,1756.5514005350014,None,1756.5514005350014,None,None,None,None,None,1757.8882622630008,None,1757.8882622630008,None,right,1757.8882622630008,None,None,None,1758.1723409690003,1759.8768210489998,1.1788774309989094,0.2500102970006992,,,,,,,,,,,,,107,001,18,1,2019_Dec_06_1110,Test,3.2.4,59.84127460989908,
Pictures/IA100_L20.bmp,Pictures/IA100_L20.bmp,Pictures/IA100.bmp,"

"Try to win as much money as you can, gamble!"",1,risk,,,,,4,0,4,0,0,2,2,1,,,,,,,,,,,,,,,,,,,,,,,,,,,,,,,1759.893539144001,None,1761.9155377719999,1763.4194887390004,1763.4027926060007,None,1764.940175918,None,2,1766.9454638019997,None,1766.9454638019997,None,1766.9454638019997,None,None,None,None,None,1767.4133528050006,None,1767.4133528050006,None,right,1767.4133528050006,None,None,None,1767.7475729090002,1769.4186446780004,0.28882458599946403,0.29293032599889557,,,,,,,,,,,,,107,001,18,1,2019_Dec_06_1110,Test,3.2.4,59.84127460989908,
Pictures/IA20_10_L95p.bmp,Pictures/IA20_10_L95p.bmp,Pictures/IA20.bmp,"

"Don't be tempted to gamble."",0,safe,,,,,4,0,4,0,0,3,3,8,,,,,,,,,,,,,,,,,,,,,,,,,,,,,,,1769.4353460780003,None,1771.457342818001,1772.9780153480006,1772.9613196080008,None,1774.4652720860013,None,2,1776.4872794029998,None,1776.4872794029998,None,1776.4872794029998,None,None,None,None,None,1777.0554109950008,None,1777.0554109950008,None,right,1777.0554109950008,None,None,None,1777.3729442660006,1779.0607156580008,0.40300317400033236,0.27487667399873317,,,,,,,,,,,,,107,001,18,1,2019_Dec_06_1110,Test,3.2.4,59.84127460989908,
Pictures/IA110_55_L95p.bmp,Pictures/IA110_55_L95p.bmp,Pictures/IA110.bmp,"

"Trust me, gamble!"",1,risk,,,,,4,0,4,0,0,4,4,3,,,,,,,,,,,,,,,,,,,,,,,,,,,,,,,1779.0774356070015,None,1781.1161063170002,1782.636817859,1782.6201053210007,None,1784.1073605849997,None,2,1786.1293629850006,None,1786.1293629850006,None,1786.1293629850006,None,None,None,None,None,1786.6139666460003,None,1786.6139666460003,None,right,1786.6139666460003,None,None,None,1786.9481818130007,1788.6025426270007,0.3289217870005814,0.29230810399894835,,,,,,,,,,,,,107,001,18,1,2019_Dec_06_1110,Test,3.2.4,59.84127460989908,
Pictures/IA50_L20.bmp,Pictures/IA50_L20.bmp,Pictures/IA50.bmp,"

"Certainty is boring, take a risk!"",1,risk,,,,,4,0,4,0,0,5,5,13,,,,,,,,,,,,,,,,,,,,,,,,,,,,,,,1788.619241284001,None,1790.6412423399997,1792.161912947,1792.145219127,None,1793.6825886410006,None,1,1795.6711778830013,None,1795.6711778830013,None,1795.6711778830013,None,1796.389724564,None,1796.389724564,1797.3923644429997,1798.495280508001,None,1798.495280508001,None,right,1798.495280508001,None,None,None,1798.879619636,1800.4838471530002,0.5951032680004573,0.3389940570014005,,,,,,,,,,,,,107,001,18,1,2019_Dec_06_1110,Test,3.2.4,59.84127460989908,
Pictures/IA25_L10.bmp,Pictures/IA25_L10.bmp,Pictures/IA25.bmp,"

"Dont be afraid to take the risk!"",1,risk,,,,,4,0,4,0,0,6,6,6,,,,,,,,,,,,,,,,,,,,,,,,,,,,,,,1800.5005692209998,None,1802.522571556001,1804.043238966,1804.0265220279998,None,1805.5806279000008,None,2,1807.552492869001,None,1807.552492869001,None,1807.552492869001,None,None,None,None,None,1808.0705136960005,None,1808.0705136960005,None,right,1808.0705136960005,None,None,None,1808.3880151190006,1810.0590898299997,0.35379001000001153,0.2757586569987325,,,,,,,,,,,,,107,001,18,1,2019_Dec_06_1110,Test,3.2.4,59.84127460989908,
Pictures/IA75_L60.bmp,Pictures/IA75_L60.bmp,Pictures/IA75.bmp,"

"Why not take the gamble?"",1,risk,,,,,4,0,4,0,0,7,7,4,,,,,,,,,,,,,,,,,,,,,,,,,,,,,,,1810.0758057040002,None,1812.0978131620013,1813.6184768780004,1813.601760642001,None,1815.1224434720007,None,1,1817.1277328600008,None,1817.1277328600008,None,1817.1277328600008,None,1817.9131331610006,None,1817.9131331610006,1818.9157728970004,1820.0186847760015,None,1820.0186847760015,None,right,1820.0186847760015,None,None,None,1821.4056692890008,None,0.6825482750009542,1.35157951599831,,,,,,,,,,,,,107,001,18,1,2019_Dec_06_1110,Test,3.2.4,59.84127460989908,
Pictures/IA50_L30.bmp,Pictures/IA50_L30.bmp,Pictures/IA50.bmp,"

"Take a leap, I think you should gamble."",1,risk,,,,,4,0,4,0,0,8,8,9,,,,,,,,,,,,,,,,,,,,,,,,,,,,,,,1822.0239539440008,None,1824.0459521000012,1825.5499244250004,1825.5332083470003,None,1827.0705679809998,None,1,1829.0758798240004,None,1829.0758798240004,None,1829.0758798240004,None,1829.5772088940012,None,1829.5772088940012,1830.5798494150004,1831.682762941,None,1831.682762941,None,right,1831.682762941,None,None,None,1832.033682143001,1833.67132193,0.36639899500005413,0.30351006199998665,,,,,,,,,,,,,107,001,18,1,2019_Dec_06_1110,Test,3.2.4,59.84127460989908,
Pictures/IA20_10_G95p.bmp,Pictures/IA20_10_G95p.bmp,Pictures/IA20.bmp,"

"Take a leap, I think you should gamble."",1,risk,,,,,4,0,4,0,0,9,9,12,,,,,,,,,,,,,,,,,,,,,,,,,,,,,,,1833.6880415329997,None,1835.7100413850003,1837.2307148420005,1837.2139956629999,None,1838.7346834790005,None,2,1840.739969907001,None,1840.739969907001,None,1840.739969907001,None,None,None,None,None,1842.411024283001,None,1842.411024283001,None,left,1842.411024283001,None,1843.0961746440007,1844.3996066979998,None,None,1.52631438500066,0.6472460129989486,,,,,,,,,,,,,107,001,18,1,2019_Dec_06_1110,Test,3.2.4,59.84127460989908,
Pictures/IA50_G20.bmp,Pictures/IA50_G20.bmp,Pictures/IA50.bmp,"

"Let's venture and take a risk!"",1,risk,,,,,4,0,4,0,0,10,10,18,,,,,,,,,,,,,,,,,,,,,,,,,,,,,,,1844.4163082450013,None,1846.4383066130013,1847.9589779220005,1847.9422833850003,None,1849.4462337229998,None,2,1851.4682440010001,None,1851.4682440010001,None,1851.4682440010001,None,None,None,None,None,1851.9027266470002,None,1851.9027266470002,None,left,1851.9027266470002,None,1852.2034996900002,1853.908001052001,None,None,0.27004159100033576,0.25954424900010054,,,,,,,,,,,,,107,001,18,1,2019_Dec_06_1110,Test,3.2.4,59.84127460989908,
Pictures/IA75_G60.bmp,Pictures/IA75_G60.bmp,Pictures/IA75.bmp,"

"Make it exciting, take a chance!"",1,risk,,,,,4,0,4,0,0,11,11,14,,,,,,,,,,,,,,,,,,,,,,,,,,,,,,,1853.924703226001,None,1855.9467027339997,1857.4673735289998,1857.4506778699997,None,1858.954629961001,None,2,1860.9766376700009,None,1860.9766376700009,None,1860.9766376700009,None,None,None,None,None,1861.5949350650008,None,1861.5949350650008,None,left,1861.5949350650008,None,1861.9124334589997,1863.5835038580008,None,None,0.44963640500100155,0.2713378080006805,,,,,,,,,,,,,107,001,18,1,2019_Dec_06_1110,Test,3.2.4,59.84127460989908,
Pictures/IA110_55_G95p.bmp,Pictures/IA110_55_G95p.bmp,Pictures/IA110.bmp,"

"Take a chance!"",1,risk,,,,,4,0,4,0,0,12,12,16,,,,,,,,,,,,,,,,,,,,,,,,,,,,,,,1863.600208709,None,1865.6222015860003,1867.1428763580006,1867.1261798470005,None,1868.6468369120012,None,2,1870.6521290660003,None,1870.6521290660003,None,1870.6521290660003,None,None,None,None,None,1871.5210953360001,None,1871.5210953360001,None,left,1871.5210953360001,None,1871.7717541300008,1873.5096650960004,None,None,0.7341453379995073,0.2011772989990277,,,,,,,,,,,,,107,001,18,1,2019_Dec_06_1110,Test,3.2.4,59.84127460989908,
Pictures/IA100_L80.bmp,Pictures/IA100_L80.bmp,Pictures/IA100.bmp,"

"Go all in!"",1,risk,,,,,4,0,4,0,0,13,13,19,,,,,,,,,,,,,,,,,,,,,,,,,,,,,,,1873.5263709200008,None,1875.5483631100014,1877.0690379030002,1877.0523400270013,None,1878.606431659,None,1,1880.5782920380007,None,1880.5782920380007,None,1880.5782920380007,None,1880.9459254140002,None,1880.9459254140002,1881.9485647670008,1883.0514765900007,None,1883.0514765900007,None,right,1883.0514765900007,None,None,None,1883.3522764050012,1885.0567550750002,0.27997880800103303,0.2627964040002553,,,,,,,,,,,,,107,001,18,1,2019_Dec_06_1110,Test,3.2.4,59.84127460989908,
Pictures/IA25_L5.bmp,Pictures/IA25_L5.bmp,Pictures/IA25.bmp,"

"It would be smarter to choose the safe option."",0,safe,,,,,4,0,4,0,0,14,14,10,,,,,,,,,,,,,,,,,,,,,,,,,,,,,,,1885.073477801001,None,1887.0954944170007,1888.6161500070011,1888.5994313150004,None,1890.1201167030013,None,2,1892.1254080939998,None,1892.1254080939998,None,1892.1254080939998,None,None,None,None,None,1892.576580111001,None,1892.576580111001,None,right,1892.576580111001,None,None,None,1893.027767372001,1894.5651501990014,0.22087538200139534,0.4016973750003672,,,,,,,,,,,,,107,001,18,1,2019_Dec_06_1110,Test,3.2.4,59.84127460989908,
Pictures/IA100_G20.bmp,Pictures/IA100_G20.bmp,Pictures/IA100.bmp,"

"Go ahead and gamble!"",1,risk,,,,,4,0,4,0,0,15,15,15,,,,,,,,,,,,,,,,,,,,,,,,,,,,,,,1894.581873346,None,1896.6038741060001,1898.1245444710003,1898.1078301730013,None,1899.6452248900005,None,2,1901.6337861800002,None,1901.6337861800002,None,1901.6337861800002,None,None,None,None,None,1902.1518305000009,None,1902.1518305000009,None,left,1902.1518305000009,None,1902.435906611001,1904.1403926060011,None,None,0.35247972199977085,0.24244380199888838,,,,,,,,,,,,,107,001,18,1,2019_Dec_06_1110,Test,3.2.4,59.84127460989908,
Pictures/IA40_20_L95p.bmp,Pictures/IA40_20_L95p.bmp,Pictures/IA40.bmp,"

"Trust me, gamble!"",1,risk,,,,,4,0,4,0,0,16,16,2,,,,,,,,,,,,,,,,,,,,,,,,,,,,,,,1904.1571111900012,None,1906.179112058,1907.6997845389997,1907.6830610200013,None,1909.2037470120013,None,2,1911.2090359020003,None,1911.2090359020003,None,1911.2090359020003,None,None,None,None,None,1911.6936447690005,None,1911.6936447690005,None,right,1911.6936447690005,None,None,None,1911.9777239260002,1913.682202606,0.31324445300015213,0.23663137999938044,,,,,,,,,,,,,107,001,18,1,2019_Dec_06_1110,Test,3.2.4,59.84127460989908,
Pictures/IA75_L15.bmp,Pictures/IA75_L15.bmp,Pictures/IA75.bmp,"

"Trust me, gamble!"",1,risk,,,,,4,0,4,0,0,17,17,0,,,,,,,,,,,,,,,,,,,,,,,,,,,,,,,1913.6989266660003,None,1915.7209229810014,1917.2415956740006,1917.2248798930013,None,1918.7455649470012,None,2,1920.750856216,None,1920.750856216,None,1920.750856216,None,None,None,None,None,1921.1853255860005,None,1921.1853255860005,None,right,1921.1853255860005,None,None,None,1921.4359895350008,1923.1738990330014,0.3154309520014067,0.21694685600050434,,,,,,,,,,,,,107,001,18,1,2019_Dec_06_1110,Test,3.2.4,59.84127460989908,
Pictures/IA75_G30.bmp,Pictures/IA75_G30.bmp,Pictures/IA75.bmp,"

"Be bold, gamble!"",1,risk,,,,,4,0,4,0,0,18,18,17,,,,,,,,,,,,,,,,,,,,,,,,,,,,,,,1923.1905989810002,None,1925.212599153001,1926.7332690060011,1926.7165772959997,None,1928.237236021001,None,2,1930.2425245760005,None,1930.2425245760005,None,1930.2425245760005,None,None,None,None,None,1930.8441108650004,None,1930.8441108650004,None,left,1930.8441108650004,None,1931.0112250000002,1932.849388382001,None,None,0.4477525149995927,0.11817357399922912,,,,,,,,,,,,,107,001,18,1,2019_Dec_06_1110,Test,3.2.4,59.84127460989908,
Pictures/IA25_G15.bmp,Pictures/IA25_G15.bmp,Pictures/IA25.bmp,"

"I think you should take a gamble."",1,risk,,,,,4,0,4,0,0,19,19,5,,,,,,,,,,,,,,,,,,,,,,,,,,,,,,,1932.8661112170012,None,1934.8881063320005,1936.4087815290004,1936.3920635980012,None,1937.9628803220003,None,None,1939.9180237580003,None,1939.9180237580003,None,1939.9180237580003,None,None,None,None,None,1943.0429368860005,None,1943.0429368860005,None,left,1943.0429368860005,None,1944.8811020720004,None,None,None,,1.7993356740007584,,,,,,,,,,,,,107,001,18,1,2019_Dec_06_1110,Test,3.2.4,59.84127460989908,
,,,,,,,,,,4,0,4,0,,,,,,,,,,,,,,,,,,,,,,,,,,,,,,,,,,,,,,,,,,,,,,,,,,,,,,,,,,,,,,,,,,,,,,,,,1945.2153209320004,None,return,9.314943759000016,1945.2153209320004,None,107,001,18,1,2019_Dec_06_1110,Test,3.2.4,59.84127460989908,
Pictures/IA50_L10.bmp,Pictures/IA50_L10.bmp,Pictures/IA50.bmp,"

"Play it safe, don’t gamble!"",0,safe,,,,,5,0,5,0,0,0,0,2,,,,,,,,,,,,,1954.6903005130007,None,1954.6903005130007,None,1954.6903005130007,None,right,1.1599702090006758,1954.6903005130007,None,1954.6903005130007,None,1954.6903005130007,None,return,1.9758430749989202,1954.6903005130007,None,1956.729005665,None,1958.734281612,1960.2549546070004,1960.238256722001,None,1961.7756474270009,None,None,1963.747508165001,None,1963.747508165001,None,1963.747508165001,None,None,None,None,None,1966.8556881180011,None,1966.8556881180011,None,right,1966.8556881180011,None,None,None,1967.707903857001,1968.844268750001,,0.802581026999178,,,,,,,,,,,,,107,001,18,1,2019_Dec_06_1110,Test,3.2.4,59.84127460989908,
Pictures/IA80_40_G95p.bmp,Pictures/IA80_40_G95p.bmp,Pictures/IA80.bmp,"

"Think of the payoff, gamble!"",1,risk,,,,,5,0,5,0,0,1,1,9,,,,,,,,,,,,,,,,,,,,,,,,,,,,,,,1968.8609686810014,None,1970.8829675750003,1972.4036403790014,1972.3869439950013,None,1973.9243176649998,None,2,1975.912903669001,None,1975.912903669001,None,1975.912903669001,None,None,None,None,None,1976.4142118380005,None,1976.4142118380005,None,left,1976.4142118380005,None,1976.731713954001,1978.4027943199999,None,None,0.329375618000995,0.276046104998386,,,,,,,,,,,,,107,001,18,1,2019_Dec_06_1110,Test,3.2.4,59.84127460989908,
Pictures/IA20_10_L95p.bmp,Pictures/IA20_10_L95p.bmp,Pictures/IA20.bmp,"

"Don't be tempted to gamble."",0,safe,,,,,5,0,5,0,0,2,2,1,,,,,,,,,,,,,,,,,,,,,,,,,,,,,,,1978.4194943790008,None,1980.4414931310002,1981.962166538,1981.9454691730007,None,1983.449420977,None,2,1985.47142937,None,1985.47142937,None,1985.47142937,None,None,None,None,None,1985.9560387010006,None,1985.9560387010006,None,right,1985.9560387010006,None,None,None,1986.2568182600007,1987.9613208500014,0.3068555220015696,0.26223241400111874,,,,,,,,,,,,,107,001,18,1,2019_Dec_06_1110,Test,3.2.4,59.84127460989908,
Pictures/IA25_L5.bmp,Pictures/IA25_L5.bmp,Pictures/IA25.bmp,"

"It would be smarter to choose the safe option."",0,safe,,,,,5,0,5,0,0,3,3,15,,,,,,,,,,,,,,,,,,,,,,,,,,,,,,,1987.9780213490012,None,1990.0000173830012,1991.5206919020002,1991.503994734001,None,1993.0079463260008,None,2,1995.029954986001,None,1995.029954986001,None,1995.029954986001,None,None,None,None,None,1995.6315296210014,None,1995.6315296210014,None,right,1995.6315296210014,None,None,None,1995.9657509919998,1997.6368227830008,0.4203259580008307,0.29873483200026385,,,,,,,,,,,,,107,001,18,1,2019_Dec_06_1110,Test,3.2.4,59.84127460989908,
Pictures/IA40_20_L95p.bmp,Pictures/IA40_20_L95p.bmp,Pictures/IA40.bmp,"

"Trust me, gamble!"",1,risk,,,,,5,0,5,0,0,4,4,7,,,,,,,,,,,,,,,,,,,,,,,,,,,,,,,1997.6535294860005,None,1999.675518756001,2001.1961929980007,2001.179495841001,None,2002.6834464040003,None,2,2004.7054576950013,None,2004.7054576950013,None,2004.7054576950013,None,None,None,None,None,2005.1232130120006,None,2005.1232130120006,None,right,2005.1232130120006,None,None,None,2005.3738689270012,2007.1117958160012,0.26481816100022115,0.2150597009986086,,,,,,,,,,,,,107,001,18,1,2019_Dec_06_1110,Test,3.2.4,59.84127460989908,
Pictures/IA80_40_L95p.bmp,Pictures/IA80_40_L95p.bmp,Pictures/IA80.bmp,"

"Let's stay with the certain option."",0,safe,,,,,5,0,5,0,0,5,5,4,,,,,,,,,,,,,,,,,,,,,,,,,,,,,,,2007.1285063240011,None,2009.1505022990004,2010.6711741030012,2010.6544569200014,None,2012.1918553230007,None,2,2014.1804166930015,None,2014.1804166930015,None,2014.1804166930015,None,None,None,None,None,2014.715170845,None,2014.715170845,None,right,2014.715170845,None,None,None,2015.1162262760008,2016.7204393299999,0.35786225000083505,0.35108749299979536,,,,,,,,,,,,,107,001,18,1,2019_Dec_06_1110,Test,3.2.4,59.84127460989908,
Pictures/IA75_G15.bmp,Pictures/IA75_G15.bmp,Pictures/IA75.bmp,"

"Take a chance!"",1,risk,,,,,5,0,5,0,0,6,6,12,,,,,,,,,,,,,,,,,,,,,,,,,,,,,,,2016.737167358,None,2018.7591621270003,2020.279833976001,2020.2631144660008,None,2021.7670878850004,None,2,2023.7890776700006,None,2023.7890776700006,None,2023.7890776700006,None,None,None,None,None,2024.6914518140002,None,2024.6914518140002,None,left,2024.6914518140002,None,2025.142638401001,2026.6800209430003,None,None,0.7412007530001574,0.41482314099994255,,,,,,,,,,,,,107,001,18,1,2019_Dec_06_1110,Test,3.2.4,59.84127460989908,
Pictures/IA100_G60.bmp,Pictures/IA100_G60.bmp,Pictures/IA100.bmp,"

"Be cautious, don't gamble for this one."",0,safe,,,,,5,0,5,0,0,7,7,8,,,,,,,,,,,,,,,,,,,,,,,,,,,,,,,2026.6967462680004,None,2028.735475591,2030.2394156580012,2030.2226960360003,None,2031.7433816869998,None,2,2033.7486685069998,None,2033.7486685069998,None,2033.7486685069998,None,None,None,None,None,2034.3001183430006,None,2034.3001183430006,None,left,2034.3001183430006,None,2034.6008984609998,2036.3054031020001,None,None,0.37361864100057574,0.2621661810007936,,,,,,,,,,,,,107,001,18,1,2019_Dec_06_1110,Test,3.2.4,59.84127460989908,
Pictures/IA20_10_G95p.bmp,Pictures/IA20_10_G95p.bmp,Pictures/IA20.bmp,"

"Take a leap, I think you should gamble."",1,risk,,,,,5,0,5,0,0,8,8,0,,,,,,,,,,,,,,,,,,,,,,,,,,,,,,,2036.3221021490008,None,2038.3441014740001,2039.8647721029993,2039.8480742680003,None,2041.352026384,None,2,2043.3740412830011,None,2043.3740412830011,None,2043.3740412830011,None,None,None,None,None,2043.8085076470015,None,2043.8085076470015,None,left,2043.8085076470015,None,2044.126002871999,2045.7970724740007,None,None,0.2602461239985132,0.27376387199910823,,,,,,,,,,,,,107,001,18,1,2019_Dec_06_1110,Test,3.2.4,59.84127460989908,
Pictures/IA100_G40.bmp,Pictures/IA100_G40.bmp,Pictures/IA100.bmp,"

"Try your luck and gamble!"",1,risk,,,,,5,0,5,0,0,9,9,16,,,,,,,,,,,,,,,,,,,,,,,,,,,,,,,2045.8138011709998,None,2047.8357941729992,2049.3564674080008,2049.3397466610004,None,2050.8771419879995,None,2,2052.865706577002,None,2052.865706577002,None,2052.865706577002,None,None,None,None,None,2053.433870287001,None,2053.433870287001,None,left,2053.433870287001,None,2053.7179490730014,2055.4224498430012,None,None,0.40857403300105943,0.2483951869980956,,,,,,,,,,,,,107,001,18,1,2019_Dec_06_1110,Test,3.2.4,59.84127460989908,
Pictures/IA75_L45.bmp,Pictures/IA75_L45.bmp,Pictures/IA75.bmp,"

"Don't gamble for this one, play it safe."",0,safe,,,,,5,0,5,0,0,10,10,5,,,,,,,,,,,,,,,,,,,,,,,,,,,,,,,2055.4391530850007,None,2057.4611503720007,2058.9818230810015,2058.965125461,None,2060.502500480001,None,2,2062.491085023001,None,2062.491085023001,None,2062.491085023001,None,None,None,None,None,2063.376741520002,None,2063.376741520002,None,right,2063.376741520002,None,None,None,2063.644121207999,2065.382033886999,0.6952073069987819,0.2335308410001744,,,,,,,,,,,,,107,001,18,1,2019_Dec_06_1110,Test,3.2.4,59.84127460989908,
Pictures/IA100_L20.bmp,Pictures/IA100_L20.bmp,Pictures/IA100.bmp,"

"Try to win as much money as you can, gamble!"",1,risk,,,,,5,0,5,0,0,11,11,18,,,,,,,,,,,,,,,,,,,,,,,,,,,,,,,2065.398733574002,None,2067.4207319300003,2068.941402905002,2068.924708868002,None,2070.4453680040024,None,2,2072.4506577009997,None,2072.4506577009997,None,2072.4506577009997,None,None,None,None,None,2072.901856708002,None,2072.901856708002,None,right,2072.901856708002,None,None,None,2073.2026339629992,2074.907136878999,0.2636333400005242,0.2604152799976873,,,,,,,,,,,,,107,001,18,1,2019_Dec_06_1110,Test,3.2.4,59.84127460989908,
Pictures/IA25_G20.bmp,Pictures/IA25_G20.bmp,Pictures/IA25.bmp,"

"I wouldn't gamble for this one. "",0,safe,,,,,5,0,5,0,0,12,12,10,,,,,,,,,,,,,,,,,,,,,,,,,,,,,,,2074.9238387100013,None,2076.945837233001,2078.466506779001,2078.4498100050005,None,2079.9704739690023,None,2,2081.975760559002,None,2081.975760559002,None,2081.975760559002,None,None,None,None,None,2082.660904594002,None,2082.660904594002,None,right,2082.660904594002,None,None,None,2082.794591924001,2084.6661907960006,0.5145194130018353,0.09338003800075967,,,,,,,,,,,,,107,001,18,1,2019_Dec_06_1110,Test,3.2.4,59.84127460989908,
Pictures/IA75_G30.bmp,Pictures/IA75_G30.bmp,Pictures/IA75.bmp,"

"Be bold, gamble!"",1,risk,,,,,5,0,5,0,0,13,13,13,,,,,,,,,,,,,,,,,,,,,,,,,,,,,,,2084.6828940080013,None,2086.704892034002,2088.225560168001,2088.2088642470007,None,2089.7128146159994,None,2,2091.734824231,None,2091.734824231,None,2091.734824231,None,None,None,None,None,2092.219422115999,None,2092.219422115999,None,left,2092.219422115999,None,2092.43666399,2094.208004428001,None,None,0.33144770999933826,0.17485127399777411,,,,,,,,,,,,,107,001,18,1,2019_Dec_06_1110,Test,3.2.4,59.84127460989908,
Pictures/IA50_L20.bmp,Pictures/IA50_L20.bmp,Pictures/IA50.bmp,"

"Certainty is boring, take a risk!"",1,risk,,,,,5,0,5,0,0,14,14,3,,,,,,,,,,,,,,,,,,,,,,,,,,,,,,,2094.224702560001,None,2096.246701196,2097.7506640950014,2097.7339679180004,None,2099.271349873001,None,2,2101.2766382560003,None,2101.2766382560003,None,2101.2766382560003,None,None,None,None,None,2101.911637219,None,2101.911637219,None,right,2101.911637219,None,None,None,2102.162295719001,2103.9002035720005,0.46164121699985117,0.21062822100066114,,,,,,,,,,,,,107,001,18,1,2019_Dec_06_1110,Test,3.2.4,59.84127460989908,
Pictures/IA50_G30.bmp,Pictures/IA50_G30.bmp,Pictures/IA50.bmp,"

"I think you should gamble."",1,risk,,,,,5,0,5,0,0,15,15,6,,,,,,,,,,,,,,,,,,,,,,,,,,,,,,,2103.916924224999,None,2105.938921502002,2107.4595988030014,2107.442877674999,None,2108.980273093999,None,2,2110.9688409910013,None,2110.9688409910013,None,2110.9688409910013,None,None,None,None,None,2111.603855927002,None,2111.603855927002,None,left,2111.603855927002,None,2112.1887265709993,2113.592424675,None,None,0.46543566300169914,0.5504229130019667,,,,,,,,,,,,,107,001,18,1,2019_Dec_06_1110,Test,3.2.4,59.84127460989908,
Pictures/IA25_L20.bmp,Pictures/IA25_L20.bmp,Pictures/IA25.bmp,"

"Don't be tempted to gamble."",0,safe,,,,,5,0,5,0,0,16,16,11,,,,,,,,,,,,,,,,,,,,,,,,,,,,,,,2113.6091242270013,None,2115.631123498002,2117.1517930560003,2117.1350986690013,None,2118.672470081001,None,None,2120.661059688002,None,2120.661059688002,None,2120.661059688002,None,None,None,None,None,2123.752527531,None,2123.752527531,None,left,2123.752527531,None,2124.153590449001,2125.7578179560005,None,None,,0.35374986399983754,,,,,,,,,,,,,107,001,18,1,2019_Dec_06_1110,Test,3.2.4,59.84127460989908,
Pictures/IA100_L40.bmp,Pictures/IA100_L40.bmp,Pictures/IA100.bmp,"

"Think of the payoff, gamble!"",1,risk,,,,,5,0,5,0,0,17,17,14,,,,,,,,,,,,,,,,,,,,,,,,,,,,,,,2125.7745192820003,None,2127.7965161210013,2129.3171913100014,2129.3004950270006,None,2130.837866422,None,2,2132.826451822999,None,2132.826451822999,None,2132.826451822999,None,None,None,None,None,2133.8290814870015,None,2133.8290814870015,None,right,2133.8290814870015,None,None,None,2134.3805378899997,2135.817664735001,0.8238419400004204,0.5171833750027872,,,,,,,,,,,,,107,001,18,1,2019_Dec_06_1110,Test,3.2.4,59.84127460989908,
Pictures/IA25_L15.bmp,Pictures/IA25_L15.bmp,Pictures/IA25.bmp,"

"There's not much on the line here, gamble!"",1,risk,,,,,5,0,5,0,0,18,18,19,,,,,,,,,,,,,,,,,,,,,,,,,,,,,,,2135.8343709830006,None,2137.856362235001,2139.3770335650006,2139.360337381,None,2140.897712296999,None,2,2142.886298838999,None,2142.886298838999,None,2142.886298838999,None,None,None,None,None,2143.8053865990005,None,2143.8053865990005,None,right,2143.8053865990005,None,None,None,2144.507221865999,2145.8106678469994,0.7479776270010916,0.652883271999599,,,,,,,,,,,,,107,001,18,1,2019_Dec_06_1110,Test,3.2.4,59.84127460989908,
Pictures/IA75_L15.bmp,Pictures/IA75_L15.bmp,Pictures/IA75.bmp,"

"Trust me, gamble!"",1,risk,,,,,5,0,5,0,0,19,19,17,,,,,,,,,,,,,,,,,,,,,,,,,,,,,,,2145.8273679070007,None,2147.8493645240014,2149.370036323002,2149.3533433600023,None,2150.8740017050004,None,2,2152.8792897560015,None,2152.8792897560015,None,2152.8792897560015,None,None,None,None,None,2155.553006743001,None,2155.553006743001,None,right,2155.553006743001,None,None,None,2156.304981289002,2157.5415820790004,2.5069970069998817,0.7052692310026032,,,,,,,,,,,,,107,001,18,1,2019_Dec_06_1110,Test,3.2.4,59.84127460989908,
,,,,,,,,,,5,0,5,0,,,,,,,,,,,,,,,,,,,,,,,,,,,,,,,,,,,,,,,,,,,,,,,,,,,,,,,,,,,,,,,,,,,,,,,,,2157.708650921999,None,return,8.653597710999748,2157.708650921999,None,107,001,18,1,2019_Dec_06_1110,Test,3.2.4,59.84127460989908,
Pictures/IA25_L5.bmp,Pictures/IA25_L5.bmp,Pictures/IA25.bmp,"

"It would be smarter to choose the safe option."",0,safe,,,,,6,0,6,0,0,0,0,18,,,,,,,,,,,,,2166.5152298430003,None,2166.5152298430003,None,2166.5152298430003,None,right,1.5670353610003076,2166.5152298430003,None,2166.5152298430003,None,2166.5152298430003,None,return,2.2868144839994784,2166.5152298430003,None,2168.8547208870004,None,2170.8600154369997,2172.3806886540006,2172.36397536,None,2173.884644419999,None,None,2175.8732346399993,None,2175.8732346399993,None,2175.8732346399993,None,None,None,None,None,2179.014832470999,None,2179.014832470999,None,right,2179.014832470999,None,None,None,2179.699967599001,2181.0034121770004,,0.6434398189994681,,,,,,,,,,,,,107,001,18,1,2019_Dec_06_1110,Test,3.2.4,59.84127460989908,
Pictures/IA80_40_L95p.bmp,Pictures/IA80_40_L95p.bmp,Pictures/IA80.bmp,"

"Let's stay with the certain option."",0,safe,,,,,6,0,6,0,0,1,1,4,,,,,,,,,,,,,,,,,,,,,,,,,,,,,,,2181.020112800001,None,2183.0421177339995,2184.5627827530006,2184.5460882869993,None,2186.0834603600015,None,2,2188.07204716,None,2188.07204716,None,2188.07204716,None,None,None,None,None,2188.7070426550017,None,2188.7070426550017,None,right,2188.7070426550017,None,None,None,2188.8240146550015,2190.6956104870005,0.4662187330031884,0.07124075100000482,,,,,,,,,,,,,107,001,18,1,2019_Dec_06_1110,Test,3.2.4,59.84127460989908,
Pictures/IA40_20_G95p.bmp,Pictures/IA40_20_G95p.bmp,Pictures/IA40.bmp,"

"Hold back, stay with the safe choice."",0,safe,,,,,6,0,6,0,0,2,2,13,,,,,,,,,,,,,,,,,,,,,,,,,,,,,,,2190.7123318449994,None,2192.734333545999,2194.2550016269997,2194.238285440999,None,2195.7756806530015,None,2,2197.7642459320014,None,2197.7642459320014,None,2197.7642459320014,None,None,None,None,None,2198.8504449970023,None,2198.8504449970023,None,left,2198.8504449970023,None,2199.1512399230014,2200.855721799002,None,None,0.9100357190000068,0.25583459400149877,,,,,,,,,,,,,107,001,18,1,2019_Dec_06_1110,Test,3.2.4,59.84127460989908,
Pictures/IA75_G60.bmp,Pictures/IA75_G60.bmp,Pictures/IA75.bmp,"

"Make it exciting, take a chance!"",1,risk,,,,,6,0,6,0,0,3,3,7,,,,,,,,,,,,,,,,,,,,,,,,,,,,,,,2200.8724410569994,None,2202.894440614,2204.4151115470013,2204.398393347001,None,2205.9357874410016,None,2,2207.924349830002,None,2207.924349830002,None,2207.924349830002,None,None,None,None,None,2208.4423842040014,None,2208.4423842040014,None,left,2208.4423842040014,None,2208.6596210179996,2210.4309658170023,None,None,0.3499285409998265,0.17588783299652277,,,,,,,,,,,,,107,001,18,1,2019_Dec_06_1110,Test,3.2.4,59.84127460989908,
Pictures/IA100_L80.bmp,Pictures/IA100_L80.bmp,Pictures/IA100.bmp,"

"Go all in!"",1,risk,,,,,6,0,6,0,0,4,4,12,,,,,,,,,,,,,,,,,,,,,,,,,,,,,,,2210.4476654030004,None,2212.4696653190003,2213.990333607002,2213.9736390280013,None,2215.5110109689995,None,2,2217.4996027859997,None,2217.4996027859997,None,2217.4996027859997,None,None,None,None,None,2218.9701286109994,None,2218.9701286109994,None,right,2218.9701286109994,None,None,None,2219.788966782002,2220.9587072450013,1.3266761300001235,0.784140120002121,,,,,,,,,,,,,107,001,18,1,2019_Dec_06_1110,Test,3.2.4,59.84127460989908,
Pictures/IA25_L10.bmp,Pictures/IA25_L10.bmp,Pictures/IA25.bmp,"

"Dont be afraid to take the risk!"",1,risk,,,,,6,0,6,0,0,5,5,5,,,,,,,,,,,,,,,,,,,,,,,,,,,,,,,2220.9754088459995,None,2222.9974064519993,2224.5180783329997,2224.5013823160007,None,2226.022007017,None,2,2228.027331960002,None,2228.027331960002,None,2228.027331960002,None,None,None,None,None,2228.9130130640006,None,2228.9130130640006,None,right,2228.9130130640006,None,None,None,2229.7652508930005,2230.901577163,0.6869521549997444,0.8092632480002067,,,,,,,,,,,,,107,001,18,1,2019_Dec_06_1110,Test,3.2.4,59.84127460989908,
Pictures/IA100_L20.bmp,Pictures/IA100_L20.bmp,Pictures/IA100.bmp,"

"Try to win as much money as you can, gamble!"",1,risk,,,,,6,0,6,0,0,6,6,2,,,,,,,,,,,,,,,,,,,,,,,,,,,,,,,2230.918279534002,None,2232.9402733220013,2234.460947366002,2234.444251975001,None,2235.9482046970006,None,2,2237.970211601001,None,2237.970211601001,None,2237.970211601001,None,None,None,None,None,2238.471519134,None,2238.471519134,None,right,2238.471519134,None,None,None,2238.8057434660004,2240.476809705,0.32006879300024593,0.29076570400138735,,,,,,,,,,,,,107,001,18,1,2019_Dec_06_1110,Test,3.2.4,59.84127460989908,
Pictures/IA50_L30.bmp,Pictures/IA50_L30.bmp,Pictures/IA50.bmp,"

"Take a leap, I think you should gamble."",1,risk,,,,,6,0,6,0,0,7,7,10,,,,,,,,,,,,,,,,,,,,,,,,,,,,,,,2240.4935124700023,None,2242.515508585002,2244.0361818970014,2244.0194845840015,None,2245.5401522659995,None,1,2247.545437314002,None,2247.545437314002,None,2247.545437314002,None,2248.6316334990006,None,2248.6316334990006,2249.6342659250004,2250.7371774390012,None,2250.7371774390012,None,right,2250.7371774390012,None,None,None,2251.0546782290003,2252.7257459760003,0.9448428139985481,0.2731054159994528,,,,,,,,,,,,,107,001,18,1,2019_Dec_06_1110,Test,3.2.4,59.84127460989908,
Pictures/IA75_L15.bmp,Pictures/IA75_L15.bmp,Pictures/IA75.bmp,"

"Trust me, gamble!"",1,risk,,,,,6,0,6,0,0,8,8,3,,,,,,,,,,,,,,,,,,,,,,,,,,,,,,,2252.7424722880023,None,2254.764465766002,2256.285141733002,2256.2684210020016,None,2257.8058169020005,None,2,2259.7943790179997,None,2259.7943790179997,None,2259.7943790179997,None,None,None,None,None,2260.5129408700013,None,2260.5129408700013,None,right,2260.5129408700013,None,None,None,2260.6466389100024,2262.5182298180007,0.5359128800009785,0.0973288360000879,,,,,,,,,,,,,107,001,18,1,2019_Dec_06_1110,Test,3.2.4,59.84127460989908,
Pictures/IA110_55_L95p.bmp,Pictures/IA110_55_L95p.bmp,Pictures/IA110.bmp,"

"Trust me, gamble!"",1,risk,,,,,6,0,6,0,0,9,9,0,,,,,,,,,,,,,,,,,,,,,,,,,,,,,,,2262.5349308799996,None,2264.5569253050016,2266.0776001580016,2266.060913321002,None,2267.598278895999,None,2,2269.586863495002,None,2269.586863495002,None,2269.586863495002,None,None,None,None,None,2270.4056760540007,None,2270.4056760540007,None,right,2270.4056760540007,None,None,None,2270.6563386570015,2272.3943342029997,0.6954113110004982,0.20460026699947775,,,,,,,,,,,,,107,001,18,1,2019_Dec_06_1110,Test,3.2.4,59.84127460989908,
Pictures/IA50_G10.bmp,Pictures/IA50_G10.bmp,Pictures/IA50.bmp,"

"Go with the safe option here!"",0,safe,,,,,6,0,6,0,0,10,10,1,,,,,,,,,,,,,,,,,,,,,,,,,,,,,,,2272.411064898999,None,2274.432984037001,2275.953635168,2275.9369239119987,None,2277.4576046280017,None,1,2279.479617552999,None,2279.479617552999,None,2279.479617552999,None,2280.4320977259995,None,2280.4320977259995,2281.4347357490005,2282.55435717,None,2282.55435717,None,left,2282.55435717,None,2283.323073986001,2284.5596362409997,None,None,0.8426701169992157,0.7278911190005601,,,,,,,,,,,,,107,001,18,1,2019_Dec_06_1110,Test,3.2.4,59.84127460989908,
Pictures/IA25_G5.bmp,Pictures/IA25_G5.bmp,Pictures/IA25.bmp,"

"Let's stay with the certain option."",0,safe,,,,,6,0,6,0,0,11,11,16,,,,,,,,,,,,,,,,,,,,,,,,,,,,,,,2284.5763585620007,None,2286.5983564470007,2288.119030771999,2288.1023223129996,None,2289.656414836001,None,2,2291.6282809229997,None,2291.6282809229997,None,2291.6282809229997,None,None,None,None,None,2292.4136837020014,None,2292.4136837020014,None,left,2292.4136837020014,None,2292.6476186670006,2294.4189617619995,None,None,0.6139994010009104,0.1886000639970007,,,,,,,,,,,,,107,001,18,1,2019_Dec_06_1110,Test,3.2.4,59.84127460989908,
Pictures/IA110_55_G95p.bmp,Pictures/IA110_55_G95p.bmp,Pictures/IA110.bmp,"

"Take a chance!"",1,risk,,,,,6,0,6,0,0,12,12,17,,,,,,,,,,,,,,,,,,,,,,,,,,,,,,,2294.435660850999,None,2296.457659126001,2297.9783316979992,2297.9616356900005,None,2299.4990105020006,None,2,2301.4875957700024,None,2301.4875957700024,None,2301.4875957700024,None,None,None,None,None,2302.105881083,None,2302.105881083,None,left,2302.105881083,None,2302.37325909,2304.1111877910007,None,None,0.4586876969988225,0.22438942199732992,,,,,,,,,,,,,107,001,18,1,2019_Dec_06_1110,Test,3.2.4,59.84127460989908,
Pictures/IA100_G20.bmp,Pictures/IA100_G20.bmp,Pictures/IA100.bmp,"

"Go ahead and gamble!"",1,risk,,,,,6,0,6,0,0,13,13,8,,,,,,,,,,,,,,,,,,,,,,,,,,,,,,,2304.1278717780006,None,2306.149867701999,2307.670538966002,2307.6538434510003,None,2309.174505881001,None,1,2311.179791964001,None,2311.179791964001,None,2311.179791964001,None,2312.516651963,None,2312.516651963,2313.519288364001,2314.6221977310015,None,2314.6221977310015,None,right,2314.6221977310015,None,None,None,2315.073381643,2316.6107671360005,1.2464985890001117,0.4040743689984083,,,,,,,,,,,,,107,001,18,1,2019_Dec_06_1110,Test,3.2.4,59.84127460989908,
Pictures/IA50_G30.bmp,Pictures/IA50_G30.bmp,Pictures/IA50.bmp,"

"I think you should gamble."",1,risk,,,,,6,0,6,0,0,14,14,14,,,,,,,,,,,,,,,,,,,,,,,,,,,,,,,2316.6274872329996,None,2318.6494830480005,2320.170159450001,2320.1534403820006,None,2321.6574107960005,None,2,2323.679401859001,None,2323.679401859001,None,2323.679401859001,None,None,None,None,None,2324.297705776,None,2324.297705776,None,right,2324.297705776,None,None,None,2324.5316411130007,2326.3029894070023,0.45887794100053725,0.20057176100090146,,,,,,,,,,,,,107,001,18,1,2019_Dec_06_1110,Test,3.2.4,59.84127460989908,
Pictures/IA80_40_G95p.bmp,Pictures/IA80_40_G95p.bmp,Pictures/IA80.bmp,"

"Think of the payoff, gamble!"",1,risk,,,,,6,0,6,0,0,15,15,6,,,,,,,,,,,,,,,,,,,,,,,,,,,,,,,2326.3196824080005,None,2328.3416813500007,2329.862353884,2329.8456563170002,None,2331.3663192679996,None,2,2333.3716053730022,None,2333.3716053730022,None,2333.3716053730022,None,None,None,None,None,2333.705818623999,None,2333.705818623999,None,left,2333.705818623999,None,2333.9564755989995,2335.694387121999,None,None,0.18266734200005885,0.2084577370005718,,,,,,,,,,,,,107,001,18,1,2019_Dec_06_1110,Test,3.2.4,59.84127460989908,
Pictures/IA50_L10.bmp,Pictures/IA50_L10.bmp,Pictures/IA50.bmp,"

"Play it safe, don’t gamble!"",0,safe,,,,,6,0,6,0,0,16,16,15,,,,,,,,,,,,,,,,,,,,,,,,,,,,,,,2335.7111104799988,None,2337.733107352,2339.2370873969994,2339.2203600489993,None,2340.7577478839994,None,2,2342.7630369710023,None,2342.7630369710023,None,2342.7630369710023,None,None,None,None,None,2343.498306452002,None,2343.498306452002,None,right,2343.498306452002,None,None,None,2343.765669528999,2345.5035790850015,0.5592433700003312,0.22396329699768103,,,,,,,,,,,,,107,001,18,1,2019_Dec_06_1110,Test,3.2.4,59.84127460989908,
Pictures/IA100_G40.bmp,Pictures/IA100_G40.bmp,Pictures/IA100.bmp,"

"Try your luck and gamble!"",1,risk,,,,,6,0,6,0,0,17,17,11,,,,,,,,,,,,,,,,,,,,,,,,,,,,,,,2345.520281133002,None,2347.5422776490013,2349.062950907999,2349.0462535320003,None,2350.550206191001,None,2,2352.5722132209994,None,2352.5722132209994,None,2352.5722132209994,None,None,None,None,None,2353.056814607,None,2353.056814607,None,left,2353.056814607,None,2353.173783710001,2355.045381066,None,None,0.2860705439998128,0.0814567019988317,,,,,,,,,,,,,107,001,18,1,2019_Dec_06_1110,Test,3.2.4,59.84127460989908,
Pictures/IA50_L20.bmp,Pictures/IA50_L20.bmp,Pictures/IA50.bmp,"

"Certainty is boring, take a risk!"",1,risk,,,,,6,0,6,0,0,18,18,9,,,,,,,,,,,,,,,,,,,,,,,,,,,,,,,2355.062103761,None,2357.0841000830005,2358.604772524999,2358.5880549230023,None,2360.0920389679995,None,2,2362.1140143619996,None,2362.1140143619996,None,2362.1140143619996,None,None,None,None,None,2362.5819217790013,None,2362.5819217790013,None,right,2362.5819217790013,None,None,None,2363.567849633,None,0.2962642530001176,0.9403522499997052,,,,,,,,,,,,,107,001,18,1,2019_Dec_06_1110,Test,3.2.4,59.84127460989908,
Pictures/IA20_10_G95p.bmp,Pictures/IA20_10_G95p.bmp,Pictures/IA20.bmp,"

"Take a leap, I think you should gamble."",1,risk,,,,,6,0,6,0,0,19,19,19,,,,,,,,,,,,,,,,,,,,,,,,,,,,,,,2364.587193206,None,2366.609188347,2368.129919301002,2368.1131674060016,None,2369.6171203350023,None,2,2371.6391282760014,None,2371.6391282760014,None,2371.6391282760014,None,None,None,None,None,2372.909126701001,None,2372.909126701001,None,left,2372.909126701001,None,2373.176504359002,2374.914417639,None,None,1.0991445959989505,0.2291431330013438,,,,,,,,,,,,,107,001,18,1,2019_Dec_06_1110,Test,3.2.4,59.84127460989908,
,,,,,,,,,,6,0,6,0,,,,,,,,,,,,,,,,,,,,,,,,,,,,,,,,,,,,,,,,,,,,,,,,,,,,,,,,,,,,,,,,,,,,,,,,,2375.0815196149997,None,return,5.888739236001129,2375.0815196149997,None,107,001,18,1,2019_Dec_06_1110,Test,3.2.4,59.84127460989908,
Pictures/IA25_G20.bmp,Pictures/IA25_G20.bmp,Pictures/IA25.bmp,"

"I wouldn't gamble for this one. "",0,safe,,,,,7,0,7,0,0,0,0,3,,,,,,,,,,,,,2381.130791235999,None,2381.130791235999,None,2381.130791235999,None,left,2.847470128999703,2381.130791235999,None,2381.130791235999,None,2381.130791235999,None,return,3.6632610310007294,2381.130791235999,None,2384.857285156999,None,2386.8625572700003,2388.383232354001,2388.3665377290017,None,2389.887208125001,None,2,2391.875774919001,None,2391.875774919001,None,2391.875774919001,None,None,None,None,None,2392.477356145002,None,2392.477356145002,None,right,2392.477356145002,None,None,None,2392.828278727,2394.465939447,0.4065069330026745,0.31691088899970055,,,,,,,,,,,,,107,001,18,1,2019_Dec_06_1110,Test,3.2.4,59.84127460989908,
Pictures/IA50_G30.bmp,Pictures/IA50_G30.bmp,Pictures/IA50.bmp,"

"I think you should gamble."",1,risk,,,,,7,0,7,0,0,1,1,10,,,,,,,,,,,,,,,,,,,,,,,,,,,,,,,2394.4826388869988,None,2396.504635633999,2398.025310240002,2398.0086100180015,None,2399.5125664730003,None,2,2401.5345695739998,None,2401.5345695739998,None,2401.5345695739998,None,None,None,None,None,2402.1027304689997,None,2402.1027304689997,None,left,2402.1027304689997,None,2402.386801515,2404.091313277,None,None,0.38770863299941993,0.23553710999840405,,,,,,,,,,,,,107,001,18,1,2019_Dec_06_1110,Test,3.2.4,59.84127460989908,
Pictures/IA25_G15.bmp,Pictures/IA25_G15.bmp,Pictures/IA25.bmp,"

"I think you should take a gamble."",1,risk,,,,,7,0,7,0,0,2,2,18,,,,,,,,,,,,,,,,,,,,,,,,,,,,,,,2404.108003311001,None,2406.1299977980016,2407.650670586001,2407.633979063001,None,2409.154602421,None,1,2411.159924784999,None,2411.159924784999,None,2411.159924784999,None,2413.0315191500013,None,2413.0315191500013,2414.0341554730003,2415.1370719840015,None,2415.1370719840015,None,right,2415.1370719840015,None,None,None,2415.4879937590013,2417.1256500050004,1.7543472619981912,0.3052002980002726,,,,,,,,,,,,,107,001,18,1,2019_Dec_06_1110,Test,3.2.4,59.84127460989908,
Pictures/IA100_G80.bmp,Pictures/IA100_G80.bmp,Pictures/IA100.bmp,"

"Why not gamble?"",1,risk,,,,,7,0,7,0,0,3,3,12,,,,,,,,,,,,,,,,,,,,,,,,,,,,,,,2417.142349198999,None,2419.1643446460002,2420.68501628,2420.6683231550014,None,2422.2056960400005,None,2,2424.194280210002,None,2424.194280210002,None,2424.194280210002,None,None,None,None,None,2424.7123012150005,None,2424.7123012150005,None,left,2424.7123012150005,None,2425.3807364120003,2426.717589388001,None,None,0.3599998569989111,0.6339702750010474,,,,,,,,,,,,,107,001,18,1,2019_Dec_06_1110,Test,3.2.4,59.84127460989908,
Pictures/IA25_L20.bmp,Pictures/IA25_L20.bmp,Pictures/IA25.bmp,"

"Don't be tempted to gamble."",0,safe,,,,,7,0,7,0,0,4,4,4,,,,,,,,,,,,,,,,,,,,,,,,,,,,,,,2426.734290253,None,2428.756285882002,2430.276961980002,2430.260264468001,None,2431.797639564,None,2,2433.786224863001,None,2433.786224863001,None,2433.786224863001,None,None,None,None,None,2435.273460110002,None,2435.273460110002,None,left,2435.273460110002,None,2436.0087440220013,2437.2787533070004,None,None,1.336057205000543,0.6888156390014046,,,,,,,,,,,,,107,001,18,1,2019_Dec_06_1110,Test,3.2.4,59.84127460989908,
Pictures/IA50_G20.bmp,Pictures/IA50_G20.bmp,Pictures/IA50.bmp,"

"Let's venture and take a risk!"",1,risk,,,,,7,0,7,0,0,5,5,11,,,,,,,,,,,,,,,,,,,,,,,,,,,,,,,2437.2954526110007,None,2439.3174551949996,2440.8381224000004,2440.821437497001,None,2442.358798231002,None,1,2444.3473857630015,None,2444.3473857630015,None,2444.3473857630015,None,2444.531164363001,None,2444.531164363001,2445.533839199001,2446.6367512140023,None,2446.6367512140023,None,left,2446.6367512140023,None,2448.2409634350006,None,None,None,0.07090710000193212,1.557521512000676,,,,,,,,,,,,,107,001,18,1,2019_Dec_06_1110,Test,3.2.4,59.84127460989908,
Pictures/IA20_10_G95p.bmp,Pictures/IA20_10_G95p.bmp,Pictures/IA20.bmp,"

"Take a leap, I think you should gamble."",1,risk,,,,,7,0,7,0,0,6,6,9,,,,,,,,,,,,,,,,,,,,,,,,,,,,,,,2448.658745495999,None,2450.6807365120003,2452.201408724999,2452.184690766,None,2453.688663547,None,2,2455.710654679002,None,2455.710654679002,None,2455.710654679002,None,None,None,None,None,2456.1618342620022,None,2456.1618342620022,None,left,2456.1618342620022,None,2456.445916855999,2458.167156929001,None,None,0.28362458199990215,0.2404438410012517,,,,,,,,,,,,,107,001,18,1,2019_Dec_06_1110,Test,3.2.4,59.84127460989908,
Pictures/IA25_L10.bmp,Pictures/IA25_L10.bmp,Pictures/IA25.bmp,"

"Dont be afraid to take the risk!"",1,risk,,,,,7,0,7,0,0,7,7,8,,,,,,,,,,,,,,,,,,,,,,,,,,,,,,,2458.183841784001,None,2460.2058524999993,2461.7265085940016,2461.7097931960016,None,2463.2137655709994,None,2,2465.2357508530004,None,2465.2357508530004,None,2465.2357508530004,None,None,None,None,None,2465.653515948001,None,2465.653515948001,None,right,2465.653515948001,None,None,None,2466.3386524220005,2467.642095995001,0.23853075000079116,0.6367590549998567,,,,,,,,,,,,,107,001,18,1,2019_Dec_06_1110,Test,3.2.4,59.84127460989908,
Pictures/IA50_L10.bmp,Pictures/IA50_L10.bmp,Pictures/IA50.bmp,"

"Play it safe, don’t gamble!"",0,safe,,,,,7,0,7,0,0,8,8,19,,,,,,,,,,,,,,,,,,,,,,,,,,,,,,,2467.658796530999,None,2469.680794224001,2471.201463909001,2471.184767347,None,2472.6887188110013,None,2,2474.7107268850013,None,2474.7107268850013,None,2474.7107268850013,None,None,None,None,None,2475.3123113990005,None,2475.3123113990005,None,right,2475.3123113990005,None,None,None,2475.6130907510014,2477.317592044001,0.4435525830012921,0.25796034799714107,,,,,,,,,,,,,107,001,18,1,2019_Dec_06_1110,Test,3.2.4,59.84127460989908,
Pictures/IA75_G30.bmp,Pictures/IA75_G30.bmp,Pictures/IA75.bmp,"

"Be bold, gamble!"",1,risk,,,,,7,0,7,0,0,9,9,13,,,,,,,,,,,,,,,,,,,,,,,,,,,,,,,2477.3342917030022,None,2479.356289501,2480.876962057002,2480.860263565999,None,2482.397639586001,None,2,2484.3862222370008,None,2484.3862222370008,None,2484.3862222370008,None,None,None,None,None,2485.071349891001,None,2485.071349891001,None,left,2485.071349891001,None,2485.338728187002,2487.076639097002,None,None,0.5280700700022862,0.21892511899932288,,,,,,,,,,,,,107,001,18,1,2019_Dec_06_1110,Test,3.2.4,59.84127460989908,
Pictures/IA75_L15.bmp,Pictures/IA75_L15.bmp,Pictures/IA75.bmp,"

"Trust me, gamble!"",1,risk,,,,,7,0,7,0,0,10,10,16,,,,,,,,,,,,,,,,,,,,,,,,,,,,,,,2487.0933523099993,None,2489.1153381840013,2490.636009329999,2490.619313129002,None,2492.1232646440003,None,2,2494.1452740509994,None,2494.1452740509994,None,2494.1452740509994,None,None,None,None,None,2494.7134339920012,None,2494.7134339920012,None,right,2494.7134339920012,None,None,None,2494.913948401001,2496.718703434999,0.4170045390019368,0.1528464469993196,,,,,,,,,,,,,107,001,18,1,2019_Dec_06_1110,Test,3.2.4,59.84127460989908,
Pictures/IA25_L5.bmp,Pictures/IA25_L5.bmp,Pictures/IA25.bmp,"

