Choice	Choice2	Amount	AdviceVar1	GambleAdviceNum	GambleAdviceType	practice.thisRepN	practice.thisTrialN	practice.thisN	practice.thisIndex	trials_2.thisRepN	trials_2.thisTrialN	trials_2.thisN	trials_2.thisIndex	trials.thisRepN	trials.thisTrialN	trials.thisN	trials.thisIndex	text.started	text.stopped	key_resp_4.keys	key_resp_4.rt	key_resp_4.started	key_resp_4.stopped	instructions.started	instructions.stopped	space.keys	space.rt	space.started	space.stopped	chooseInst.started	chooseInst.stopped	Ad1.started	Ad1.stopped	Ad2.started	Ad2.stopped	key_resp_3.keys	key_resp_3.rt	key_resp_3.started	key_resp_3.stopped	Ad1pic.started	Ad1pic.stopped	Ad2pic.started	Ad2pic.stopped	enter.keys	enter.rt	enter.started	enter.stopped	iSi.started	iSi.stopped	receiveMoneyPicture.started	receiveMoneyPicture.stopped	ISI2.started	ISI2.stopped	ChoicePic.started	ChoicePic.stopped	response.keys	response.started	response.stopped	yesNo.started	yesNo.stopped	ask.started	ask.stopped	getAdv.started	getAdv.stopped	textForCode.started	textForCode.stopped	blank.started	blank.stopped	ChoicePic2.started	ChoicePic2.stopped	resp.keys	resp.started	resp.stopped	checkL1.started	checkL1.stopped	checkR1.started	checkR1.stopped	response.rt	resp.rt	EndPrac.started	EndPrac.stopped	key_resp.keys	key_resp.rt	key_resp.started	key_resp.stopped	endText.started	endText.stopped	key_resp_2.keys	key_resp_2.rt	key_resp_2.started	key_resp_2.stopped	participant	session	age	gender (0=male	 1 = female	 2 = other)	date	expName	psychopyVersion	frameRate																		441.1185094	None	space	216.3502915	441.1185094	None																																																																					109	1	18	1	2019_Dec_06_1209	Test	3.2.4	59.84121696																										657.4877542	None	space	3.28507137	657.4877542	None																																																															109	1	18	1	2019_Dec_06_1209	Test	3.2.4	59.84121696																																661.3980664	None	661.3980664	None	661.3980664	None	left	8.078739976	661.3980664	None																																																					109	1	18	1	2019_Dec_06_1209	Test	3.2.4	59.84121696																																										661.3980664	None	661.3980664	None	return	10.71059521	661.3980664	None																																													109	1	18	1	2019_Dec_06_1209	Test	3.2.4	59.84121696		Pictures/IA100_G20.bmp	Pictures/IA100_G20.bmp	Pictures/IA100.bmp	"Go ahead and gamble!"""""	1	risk	0	0	0	4																																							672.1597387	None	674.1817364	675.7024053	675.6857072	None	677.1896674	None	None	679.2784991	None	679.2784991	None	679.2784991	None	None	None	None	None	682.3866955	None	682.3866955	None	None	682.3866955	None	None	None	None	None															109	1	18	1	2019_Dec_06_1209	Test	3.2.4	59.84121696		Pictures/IA50_G20.bmp	Pictures/IA50_G20.bmp	Pictures/IA50.bmp	"Let's venture and take a risk!"""""	1	risk	0	1	1	1																																							684.3919721	None	686.4473902	687.9513382	687.9346454	None	689.5054445	None	1	691.4438868	None	691.4438868	None	691.4438868	None	692.4465169	None	692.4465169	693.4491548	694.5520675	None	694.5520675	None	right	694.5520675	None	None	None	696.3568351	None	0.896926022	1.75674072													109	1	18	1	2019_Dec_06_1209	Test	3.2.4	59.84121696		Pictures/IA50_G40.bmp	Pictures/IA50_G40.bmp	Pictures/IA50.bmp	"It would probably be best to play it safe."""""	0	safe	0	2	2	3																																							696.5740577	None	698.5960498	700.116752	700.1000694	None	701.670816	None	2	703.62598	None	703.62598	None	703.62598	None	None	None	None	None	705.5643745	None	705.5643745	None	None	705.5643745	None	None	None	None	None	1.75482794														109	1	18	1	2019_Dec_06_1209	Test	3.2.4	59.84121696		Pictures/IA50_G30.bmp	Pictures/IA50_G30.bmp	Pictures/IA50.bmp	"I think you should gamble."""""	1	risk	0	3	3	2																																							707.5696877	None	709.5916825	711.1123526	711.0956569	None	712.6497371	None	2	714.6216033	None	714.6216033	None	714.6216033	None	None	None	None	None	716.1589905	None	716.1589905	None	left	716.1589905	None	716.6770156	718.1475533	None	None	1.383212241	0.469817804													109	1	18	1	2019_Dec_06_1209	Test	3.2.4	59.84121696		Pictures/IA50_G10.bmp	Pictures/IA50_G10.bmp	Pictures/IA50.bmp	"Go with the safe option here!"""""	0	safe	0	4	4	0																																							718.1642786	None	720.186274	721.7069428	721.6902282	None	723.2443269	None	1	725.2162025	None	725.2162025	None	725.2162025	None	726.4694814	None	726.4694814	727.4721158	728.5917389	None	728.5917389	None	left	728.5917389	None	729.7113711	None	None	None	1.124605584	1.085061347													109	1	18	1	2019_Dec_06_1209	Test	3.2.4	59.84121696		Pictures/IA100_G40.bmp	Pictures/IA100_G40.bmp	Pictures/IA100.bmp	"Try your luck and gamble!"""""	1	risk	0	5	5	5																																							730.5970279	None	732.6190223	734.1229734	734.1062766	None	735.6770795	None	1	737.6489605	None	737.6489605	None	737.6489605	None	738.6348714	None	738.6348714	739.6375098	740.7738482	None	740.7738482	None	right	740.7738482	None	None	None	741.8098901	None	0.875853409	0.990956844													109	1	18	1	2019_Dec_06_1209	Test	3.2.4	59.84121696																																																																																		742.795825	None	space	13.76098081	742.795825	None							109	1	18	1	2019_Dec_06_1209	Test	3.2.4	59.84121696		Pictures/IA25_G15.bmp	Pictures/IA25_G15.bmp	Pictures/IA25.bmp	"I think you should take a gamble."""""	1	risk					0	0	0	0	0	0	0	19													756.715839	None	756.715839	None	756.715839	None	left	6.048958402	756.715839	None	756.715839	None	756.715839	None	return	7.136841529	756.715839	None	763.9181341	None	765.9401359	767.4608088	767.4440911	None	768.9647758	None	1	770.9366363	None	770.9366363	None	770.9366363	None	772.3570353	None	772.3570353	773.3596709	774.462582	None	774.462582	None	right	774.462582	None	None	None	775.0140333	776.4511609	1.292179436	0.502224322													109	1	18	1	2019_Dec_06_1209	Test	3.2.4	59.84121696		Pictures/IA75_G30.bmp	Pictures/IA75_G30.bmp	Pictures/IA75.bmp	"Be bold"	1	risk					0	0	0	0	0	1	1	0																															776.4678582	None	778.5232806	780.0439487	780.0272546	None	781.5646215	None	2	783.5197865	None	783.5197865	None	783.5197865	None	None	None	None	None	785.0905894	None	785.0905894	None	left	785.0905894	None	786.1936234	None	None	None	1.413041377	1.066217746													109	1	18	1	2019_Dec_06_1209	Test	3.2.4	59.84121696		Pictures/IA40_20_L95p.bmp	Pictures/IA40_20_L95p.bmp	Pictures/IA40.bmp	"Trust me"	1	risk					0	0	0	0	0	2	2	17																															787.1125696	None	789.1679865	790.6886568	790.6719591	None	792.2093321	None	1	794.1645002	None	794.1645002	None	794.1645002	None	794.7827772	None	794.7827772	795.7854152	796.9050367	None	796.9050367	None	right	796.9050367	None	None	None	797.8909649	None	0.520314807	0.947768303													109	1	18	1	2019_Dec_06_1209	Test	3.2.4	59.84121696		Pictures/IA100_G20.bmp	Pictures/IA100_G20.bmp	Pictures/IA100.bmp	"Go ahead and gamble!"""""	1	risk					0	0	0	0	0	3	3	16																															798.9103256	None	800.9323203	802.452993	802.4362776	None	803.9402454	None	1	805.9622317	None	805.9622317	None	805.9622317	None	806.5805408	None	806.5805408	807.5831727	808.6860906	None	808.6860906	None	left	808.6860906	None	809.6887121	None	None	None	0.522595595	0.966709199													109	1	18	1	2019_Dec_06_1209	Test	3.2.4	59.84121696		Pictures/IA20_10_L95p.bmp	Pictures/IA20_10_L95p.bmp	Pictures/IA20.bmp	"Don't be tempted to gamble."""""	0	safe					0	0	0	0	0	4	4	18																															810.7080741	None	812.7634918	814.2674448	814.2507474	None	815.8550294	None	1	817.7600149	None	817.7600149	None	817.7600149	None	818.5453891	None	818.5453891	819.5480267	820.6509345	None	820.6509345	None	left	820.6509345	None	822.0212016	None	None	None	0.684758094	1.329880942													109	1	18	1	2019_Dec_06_1209	Test	3.2.4	59.84121696		Pictures/IA40_20_G95p.bmp	Pictures/IA40_20_G95p.bmp	Pictures/IA40.bmp	"Hold back"	0	safe					0	0	0	0	0	5	5	9																															822.6729168	None	824.6949122	826.215583	826.1988913	None	827.7696777	None	1	829.7248437	None	829.7248437	None	829.7248437	None	830.6105088	None	830.6105088	831.6131471	832.7160581	None	832.7160581	None	left	832.7160581	None	833.2507845	834.7213369	None	None	0.735976758	0.488761153													109	1	18	1	2019_Dec_06_1209	Test	3.2.4	59.84121696		Pictures/IA75_L45.bmp	Pictures/IA75_L45.bmp	Pictures/IA75.bmp	"Don't gamble for this one"	0	safe					0	0	0	0	0	6	6	11																															834.738034	None	836.7600292	838.2807003	838.2640083	None	839.8347976	None	1	841.7899619	None	841.7899619	None	841.7899619	None	842.7926044	None	842.7926044	843.7952639	844.9315699	None	844.9315699	None	left	844.9315699	None	846.2684223	None	None	None	0.878863165	1.297246955													109	1	18	1	2019_Dec_06_1209	Test	3.2.4	59.84121696		Pictures/IA50_L10.bmp	Pictures/IA50_L10.bmp	Pictures/IA50.bmp	"Play it safe"	0	safe					0	0	0	0	0	7	7	8																															846.9368443	None	848.9755518	850.4795163	850.462798	None	852.0168684	None	1	853.9887728	None	853.9887728	None	853.9887728	None	855.4927245	None	855.4927245	856.4953616	857.6149842	None	857.6149842	None	None	857.6149842	None	None	None	None	None	1.376023018														109	1	18	1	2019_Dec_06_1209	Test	3.2.4	59.84121696		Pictures/IA75_L15.bmp	Pictures/IA75_L15.bmp	Pictures/IA75.bmp	"Trust me"	1	risk					0	0	0	0	0	8	8	1																															859.6202619	None	861.6422559	863.162931	863.1462117	None	864.7003137	None	2	866.6721771	None	866.6721771	None	866.6721771	None	None	None	None	None	867.7750823	None	867.7750823	None	right	867.7750823	None	None	None	868.4936413	869.7636509	0.940637418	0.677723331													109	1	18	1	2019_Dec_06_1209	Test	3.2.4	59.84121696		Pictures/IA100_L20.bmp	Pictures/IA100_L20.bmp	Pictures/IA100.bmp	"Try to win as much money as you can"	1	risk					0	0	0	0	0	9	9	10																															869.7803504	None	871.8357719	873.3564388	873.3397466	None	874.8771128	None	1	876.832279	None	876.832279	None	876.832279	None	877.4505727	None	877.4505727	878.4532097	879.5561253	None	879.5561253	None	right	879.5561253	None	None	None	880.508625	881.5446758	0.476535647	0.904681479													109	1	18	1	2019_Dec_06_1209	Test	3.2.4	59.84121696		Pictures/IA50_L30.bmp	Pictures/IA50_L30.bmp	Pictures/IA50.bmp	"Take a leap"	1	risk					0	0	0	0	0	10	10	6																															881.5613974	None	883.5834029	885.1040686	885.087348	None	886.6414496	None	2	888.6133203	None	888.6133203	None	888.6133203	None	None	None	None	None	890.3177907	None	890.3177907	None	left	890.3177907	None	890.7188595	892.3230827	None	None	1.527497404	0.359016359													109	1	18	1	2019_Dec_06_1209	Test	3.2.4	59.84121696		Pictures/IA100_L40.bmp	Pictures/IA100_L40.bmp	Pictures/IA100.bmp	"Think of the payoff"	1	risk					0	0	0	0	0	11	11	3																															892.3397827	None	894.3617774	895.8824492	895.8657573	None	897.4387747	None	1	899.3917078	None	899.3917078	None	899.3917078	None	900.5781646	None	900.5781646	901.5808185	902.7171383	None	902.7171383	None	right	902.7171383	None	None	None	903.9871426	None	1.077110724	1.223669837													109	1	18	1	2019_Dec_06_1209	Test	3.2.4	59.84121696		Pictures/IA100_G40.bmp	Pictures/IA100_G40.bmp	Pictures/IA100.bmp	"Try your luck and gamble!"""""	1	risk					0	0	0	0	0	12	12	15																															904.7224154	None	906.7444099	908.2650815	908.2483645	None	909.8024679	None	1	911.7743306	None	911.7743306	None	911.7743306	None	912.3090606	None	912.3090606	913.3116972	914.414609	None	914.414609	None	left	914.414609	None	915.5676554	None	None	None	0.430486716	1.110199655													109	1	18	1	2019_Dec_06_1209	Test	3.2.4	59.84121696		Pictures/IA100_G60.bmp	Pictures/IA100_G60.bmp	Pictures/IA100.bmp	"Be cautious"	0	safe					0	0	0	0	0	13	13	12																															916.4198863	None	918.4419097	919.9458525	919.929138	None	921.4999372	None	1	923.4718388	None	923.4718388	None	923.4718388	None	924.6080997	None	924.6080997	925.6108096	926.7304032	None	926.7304032	None	left	926.7304032	None	927.8332896	None	None	None	1.012997621	1.058407227													109	1	18	1	2019_Dec_06_1209	Test	3.2.4	59.84121696		Pictures/IA100_L60.bmp	Pictures/IA100_L60.bmp	Pictures/IA100.bmp	"You'd have a lot to lose"	0	safe					0	0	0	0	0	14	14	7																															928.752385	None	930.7743709	932.2950436	932.2783469	None	933.832427	None	1	935.8042919	None	935.8042919	None	935.8042919	None	937.1578688	None	937.1578688	938.1605049	939.2634211	None	939.2634211	None	left	939.2634211	None	941.0013252	None	None	None	1.224533552	1.701382289													109	1	18	1	2019_Dec_06_1209	Test	3.2.4	59.84121696		Pictures/IA80_40_L95p.bmp	Pictures/IA80_40_L95p.bmp	Pictures/IA80.bmp	"Let's stay with the certain option."""""	0	safe					0	0	0	0	0	15	15	14																															941.2854039	None	943.3408482	944.8447704	944.8280746	None	946.3320358	None	1	948.3373249	None	948.3373249	None	948.3373249	None	950.0752306	None	950.0752306	951.0778676	952.1807784	None	952.1807784	None	left	952.1807784	None	952.8491957	954.1860451	None	None	1.619482709	0.632028725													109	1	18	1	2019_Dec_06_1209	Test	3.2.4	59.84121696		Pictures/IA50_L20.bmp	Pictures/IA50_L20.bmp	Pictures/IA50.bmp	"Certainty is boring"	0	0	0	0	0	16	16	4																															954.2027714	None	956.2247643	957.7454335	957.7287179	None	959.2995298	None	1	961.2546768	None	961.2546768	None	961.2546768	None	962.6750808	None	962.6750808	963.6777172	964.7806281	None	964.7806281	None	right	964.7806281	None	None	None	966.6020942	None	1.318135464	1.784176816													109	1	18	1	2019_Dec_06_1209	Test	3.2.4	59.84121696								Pictures/IA50_G40.bmp	Pictures/IA50_G40.bmp	Pictures/IA50.bmp	"It would probably be best to play it safe."""""	0	safe					0	0	0	0	0	17	17	5																															966.7859099	None	968.807902	970.3285736	970.3118761	None	971.8826691	None	1	973.8378341	None	973.8378341	None	973.8378341	None	975.0242929	None	975.0242929	976.026931	977.129841	None	977.129841	None	left	977.129841	None	978.4332595	None	None	None	1.046978058	1.266961599													109	1	18	1	2019_Dec_06_1209	Test	3.2.4	59.84121696		Pictures/IA80_40_G95p.bmp	Pictures/IA80_40_G95p.bmp	Pictures/IA80.bmp	"Think of the payoff"	1	risk					0	0	0	0	0	18	18	13																															979.1518178	None	981.173811	982.6944901	982.6777867	None	984.2485824	None	1	986.203745	None	986.203745	None	986.203745	None	989.0278364	None	989.0278364	990.0304749	991.133388	None	991.133388	None	left	991.133388	None	992.3532631	None	None	None	2.697083719	1.183415795													109	1	18	1	2019_Dec_06_1209	Test	3.2.4	59.84121696		Pictures/IA110_55_G95p.bmp	Pictures/IA110_55_G95p.bmp	Pictures/IA110.bmp	"Take a chance!"""""	1	risk					0	0	0	0	0	19	19	2																															993.1386645	None	995.1940801	996.7147557	996.698057	None	998.2354301	None	2	1000.190591	None	1000.190591	None	1000.190591	None	None	None	None	None	1001.026115	None	1001.026115	None	left	1001.026115	None	1001.878359	1003.014684	None	None	0.68622383	0.802698612													109	1	18	1	2019_Dec_06_1209	Test	3.2.4	59.84121696		Pictures/IA50_L10.bmp	Pictures/IA50_L10.bmp	Pictures/IA50.bmp	"Play it safe"	0	safe					1	0	1	0	0	0	0	5													1020.861718	None	1020.861718	None	1020.861718	None	left	2.327097647	1020.861718	None	1020.861718	None	1020.861718	None	return	3.23098222	1020.861718	None	1024.153706	None	1026.159007	1027.679674	1027.662955	None	1029.183625	None	1	1031.172209	None	1031.172209	None	1031.172209	None	1032.408791	None	1032.408791	1033.411427	1034.514338	None	1034.514338	None	right	1034.514338	None	None	None	1036.436091	None	1.120612363	1.874483205													109	1	18	1	2019_Dec_06_1209	Test	3.2.4	59.84121696		Pictures/IA25_G5.bmp	Pictures/IA25_G5.bmp	Pictures/IA25.bmp	"Let's stay with the certain option."""""	0	safe					1	0	1	0	0	1	1	0																															1036.519627	None	1038.591754	1040.112426	1040.095707	None	1041.599668	None	2	1043.571532	None	1043.571532	None	1043.571532	None	None	None	None	None	1045.426433	None	1045.426433	None	left	1045.426433	None	1046.011298	1047.414996	None	None	1.665282187	0.546368098													109	1	18	1	2019_Dec_06_1209	Test	3.2.4	59.84121696		Pictures/IA20_10_L95p.bmp	Pictures/IA20_10_L95p.bmp	Pictures/IA20.bmp	"Don't be tempted to gamble."""""	0	safe					1	0	1	0	0	2	2	1																															1047.431698	None	1049.487113	1051.007787	1050.991103	None	1052.495036	None	2	1054.483624	None	1054.483624	None	1054.483624	None	None	None	None	None	1056.221536	None	1056.221536	None	right	1056.221536	None	None	None	1057.976159	None	1.585189602	1.719268197													109	1	18	1	2019_Dec_06_1209	Test	3.2.4	59.84121696		Pictures/IA25_L10.bmp	Pictures/IA25_L10.bmp	Pictures/IA25.bmp	"Dont be afraid to take the risk!"""""	1	risk					1	0	1	0	0	3	3	2																															1058.226813	None	1060.248806	1061.769481	1061.752763	None	1063.323575	None	1	1065.278718	None	1065.278718	None	1065.278718	None	1066.097541	None	1066.097541	1067.100177	1068.203089	None	1068.203089	None	None	1068.203089	None	None	None	None	None	0.718106889														109	1	18	1	2019_Dec_06_1209	Test	3.2.4	59.84121696		Pictures/IA40_20_L95p.bmp	Pictures/IA40_20_L95p.bmp	Pictures/IA40.bmp	"Trust me"	1	risk					1	0	1	0	0	4	4	12																															1070.20837	None	1072.230374	1073.751033	1073.734341	None	1075.30513	None	1	1077.260293	None	1077.260293	None	1077.260293	None	1078.780952	None	1078.780952	1079.783609	1080.90322	None	1080.90322	None	right	1080.90322	None	None	None	1081.521506	1082.891791	1.432519377	0.57358501													109	1	18	1	2019_Dec_06_1209	Test	3.2.4	59.84121696		Pictures/IA110_55_L95p.bmp	Pictures/IA110_55_L95p.bmp	Pictures/IA110.bmp	"Trust me"	1	risk					1	0	1	0	0	5	5	8																															1082.908498	None	1084.930492	1086.451161	1086.434468	None	1087.988548	None	1	1089.960407	None	1089.960407	None	1089.960407	None	1090.662256	None	1090.662256	1091.664892	1092.801222	None	1092.801222	None	right	1092.801222	None	None	None	1093.202288	1094.806514	0.636400485	0.355586296													109	1	18	1	2019_Dec_06_1209	Test	3.2.4	59.84121696		Pictures/IA100_L80.bmp	Pictures/IA100_L80.bmp	Pictures/IA100.bmp	"Go all in!"""""	1	risk					1	0	1	0	0	6	6	3																															1094.823215	None	1096.845209	1098.432723	1098.416028	None	1099.919974	None	1	1101.875141	None	1101.875141	None	1101.875141	None	1102.961332	None	1102.961332	1103.963976	1105.066882	None	1105.066882	None	left	1105.066882	None	1105.584911	1107.055449	None	None	1.009673082	0.473937689													109	1	18	1	2019_Dec_06_1209	Test	3.2.4	59.84121696		Pictures/IA80_40_L95p.bmp	Pictures/IA80_40_L95p.bmp	Pictures/IA80.bmp	"Let's stay with the certain option."""""	0	safe					1	0	1	0	0	7	7	14																															1107.07215	None	1109.094144	1110.614817	1110.59812	None	1112.102069	None	2	1114.124076	None	1114.124076	None	1114.124076	None	None	None	None	None	1114.876056	None	1114.876056	None	right	1114.876056	None	None	None	1115.61134	1116.881324	0.584730862	0.696745555													109	1	18	1	2019_Dec_06_1209	Test	3.2.4	59.84121696		Pictures/IA25_G15.bmp	Pictures/IA25_G15.bmp	Pictures/IA25.bmp	"I think you should take a gamble."""""	1	risk					1	0	1	0	0	8	8	9																															1116.898046	None	1118.920004	1120.440713	1120.423995	None	1121.994822	None	1	1123.94995	None	1123.94995	None	1123.94995	None	1124.701946	None	1124.701946	1125.704583	1126.807493	None	1126.807493	None	right	1126.807493	None	None	None	1128.61223	None	0.62287138	1.765303792													109	1	18	1	2019_Dec_06_1209	Test	3.2.4	59.84121696		Pictures/IA80_40_G95p.bmp	Pictures/IA80_40_G95p.bmp	Pictures/IA80.bmp	"Think of the payoff"	1	risk					1	0	1	0	0	9	9	13																															1128.829479	None	1130.851473	1132.372145	1132.355428	None	1133.859402	None	2	1135.881384	None	1135.881384	None	1135.881384	None	None	None	None	None	1137.435491	None	1137.435491	None	left	1137.435491	None	1138.05379	1139.424043	None	None	1.387434269	0.577318739													109	1	18	1	2019_Dec_06_1209	Test	3.2.4	59.84121696		Pictures/IA100_L20.bmp	Pictures/IA100_L20.bmp	Pictures/IA100.bmp	"Try to win as much money as you can"	1	risk					1	0	1	0	0	10	10	11																															1139.440767	None	1141.462761	1142.983448	1142.966717	None	1144.470688	None	1	1146.492673	None	1146.492673	None	1146.492673	None	1148.096897	None	1148.096897	1149.099533	1150.202446	None	1150.202446	None	right	1150.202446	None	None	None	1151.271965	None	1.472141791	1.026360578													109	1	18	1	2019_Dec_06_1209	Test	3.2.4	59.84121696		Pictures/IA75_L60.bmp	Pictures/IA75_L60.bmp	Pictures/IA75.bmp	"Why not take the gamble?"""""	1	risk					1	0	1	0	0	11	11	4																															1152.224433	None	1154.246428	1155.767099	1155.750405	None	1157.304485	None	2	1159.276349	None	1159.276349	None	1159.276349	None	None	None	None	None	1159.877932	None	1159.877932	None	left	1159.877932	None	1160.780319	1161.883211	None	None	0.448457248	0.854878416													109	1	18	1	2019_Dec_06_1209	Test	3.2.4	59.84121696		Pictures/IA75_L30.bmp	Pictures/IA75_L30.bmp	Pictures/IA75.bmp	"Hold back"	0	safe					1	0	1	0	0	12	12	15																															1161.899934	None	1163.92193	1165.442601	1165.425886	None	1166.980002	None	1	1168.951857	None	1168.951857	None	1168.951857	None	1169.737252	None	1169.737252	1170.739892	1171.8428	None	1171.8428	None	left	1171.8428	None	1172.561355	1173.831367	None	None	0.636963422	0.682004266													109	1	18	1	2019_Dec_06_1209	Test	3.2.4	59.84121696		Pictures/IA110_55_G95p.bmp	Pictures/IA110_55_G95p.bmp	Pictures/IA110.bmp	"Take a chance!"""""	1	risk					1	0	1	0	0	13	13	16																															1173.84807	None	1175.870066	1177.390734	1177.374037	None	1178.877992	None	2	1180.899994	None	1180.899994	None	1180.899994	None	None	None	None	None	1181.735532	None	1181.735532	None	left	1181.735532	None	1182.704733	1183.74082	None	None	0.672818921	0.925277247													109	1	18	1	2019_Dec_06_1209	Test	3.2.4	59.84121696		Pictures/IA50_G30.bmp	Pictures/IA50_G30.bmp	Pictures/IA50.bmp	"I think you should gamble."""""	1	risk					1	0	1	0	0	14	14	6																															1183.757507	None	1185.7795	1187.300172	1187.283476	None	1188.837557	None	1	1190.809423	None	1190.809423	None	1190.809423	None	1191.527984	None	1191.527984	1192.53062	1193.63353	None	1193.63353	None	left	1193.63353	None	1194.936969	None	None	None	0.603384547	1.26727548													109	1	18	1	2019_Dec_06_1209	Test	3.2.4	59.84121696		Pictures/IA75_G30.bmp	Pictures/IA75_G30.bmp	Pictures/IA75.bmp	"Be bold"	1	risk					1	0	1	0	0	15	15	10																															1195.65553	None	1197.677523	1199.198196	1199.181476	None	1200.735579	None	1	1202.707446	None	1202.707446	None	1202.707446	None	1203.292306	None	1203.292306	1204.294943	1205.397855	None	1205.397855	None	left	1205.397855	None	1206.53419	None	None	None	0.497368558	1.086946091													109	1	18	1	2019_Dec_06_1209	Test	3.2.4	59.84121696		Pictures/IA25_L5.bmp	Pictures/IA25_L5.bmp	Pictures/IA25.bmp	"It would be smarter to choose the safe option."""""	0	safe					1	0	1	0	0	16	16	19																															1207.419844	None	1209.441858	1210.96251	1210.945815	None	1212.499899	None	1	1214.471758	None	1214.471758	None	1214.471758	None	1215.925601	None	1215.925601	1216.928236	1218.031147	None	1218.031147	None	right	1218.031147	None	None	None	1218.766408	1220.036415	1.301053198	0.693663939													109	1	18	1	2019_Dec_06_1209	Test	3.2.4	59.84121696		Pictures/IA100_G60.bmp	Pictures/IA100_G60.bmp	Pictures/IA100.bmp	"Be cautious"	0	safe					1	0	1	0	0	17	17	17																															1220.053134	None	1222.075129	1223.595806	1223.579084	None	1225.099767	None	1	1227.10507	None	1227.10507	None	1227.10507	None	1228.107692	None	1228.107692	1229.110329	1230.213241	None	1230.213241	None	left	1230.213241	None	1230.814809	1232.218507	None	None	0.883749888	0.567562921													109	1	18	1	2019_Dec_06_1209	Test	3.2.4	59.84121696		Pictures/IA50_L30.bmp	Pictures/IA50_L30.bmp	Pictures/IA50.bmp	"Take a leap"	1	risk					1	0	1	0	0	18	18	7																															1232.235231	None	1234.257224	1235.777899	1235.761179	None	1237.281877	None	1	1239.287145	None	1239.287145	None	1239.287145	None	1239.755033	None	1239.755033	1240.757668	1241.860582	None	1241.860582	None	left	1241.860582	None	1243.79903	None	None	None	0.317661204	1.904217262													109	1	18	1	2019_Dec_06_1209	Test	3.2.4	59.84121696		Pictures/IA40_20_G95p.bmp	Pictures/IA40_20_G95p.bmp	Pictures/IA40.bmp	"Hold back"	0	safe					1	0	1	0	0	19	19	18																															1243.882572	None	1245.904567	1247.425235	1247.408538	None	1248.929199	None	2	1250.934486	None	1250.934486	None	1250.934486	None	None	None	None	None	1252.622262	None	1252.622262	None	left	1252.622262	None	1253.474505	1254.610799	None	None	1.518326207	0.80654568													109	1	18	1	2019_Dec_06_1209	Test	3.2.4	59.84121696		Pictures/IA100_L40.bmp	Pictures/IA100_L40.bmp	Pictures/IA100.bmp	"Think of the payoff"	1	risk					2	0	2	0	0	0	0	19													1269.483363	None	1269.483363	None	1269.483363	None	right	1.449443066	1269.483363	None	1269.483363	None	1269.483363	None	return	2.649230733	1269.483363	None	1272.173783	None	1274.179053	1275.699731	1275.683027	None	1277.237112	None	1	1279.208975	None	1279.208975	None	1279.208975	None	1280.211614	None	1280.211614	1281.214252	1282.317163	None	1282.317163	None	left	1282.317163	None	1283.83783	None	None	None	0.883831298	1.479655601													109	1	18	1	2019_Dec_06_1209	Test	3.2.4	59.84121696		Pictures/IA75_G60.bmp	Pictures/IA75_G60.bmp	Pictures/IA75.bmp	"Make it exciting"	1	risk					2	0	2	0	0	1	1	18																															1284.322452	None	1286.344445	1287.865117	1287.848398	None	1289.402502	None	1	1291.37437	None	1291.37437	None	1291.37437	None	1292.076213	None	1292.076213	1293.078855	1294.181765	None	1294.181765	None	right	1294.181765	None	None	None	1295.117547	1296.187028	0.582434916	0.895051684													109	1	18	1	2019_Dec_06_1209	Test	3.2.4	59.84121696		Pictures/IA20_10_G95p.bmp	Pictures/IA20_10_G95p.bmp	Pictures/IA20.bmp	"Take a leap"	1	risk					2	0	2	0	0	2	2	4																															1296.203751	None	1298.225751	1299.746418	1299.729706	None	1301.283801	None	2	1303.255667	None	1303.255667	None	1303.255667	None	None	None	None	None	1305.478189	None	1305.478189	None	left	1305.478189	None	1307.032283	None	None	None	2.05313957	1.5106256													109	1	18	1	2019_Dec_06_1209	Test	3.2.4	59.84121696		Pictures/IA25_G20.bmp	Pictures/IA25_G20.bmp	Pictures/IA25.bmp	"I wouldn't gamble for this one. """""	0	safe					2	0	2	0	0	3	3	9																															1307.483466	None	1309.505468	1311.026137	1311.009417	None	1312.563522	None	2	1314.535383	None	1314.535383	None	1314.535383	None	None	None	None	None	1316.306707	None	1316.306707	None	right	1316.306707	None	None	None	1316.941719	1318.311982	1.589422083	0.58610669													109	1	18	1	2019_Dec_06_1209	Test	3.2.4	59.84121696		Pictures/IA110_55_L95p.bmp	Pictures/IA110_55_L95p.bmp	Pictures/IA110.bmp	"Trust me"	1	risk					2	0	2	0	0	4	4	16																															1318.328705	None	1320.350698	1321.87137	1321.854653	None	1323.358624	None	1	1325.380608	None	1325.380608	None	1325.380608	None	1326.767595	None	1326.767595	1327.770233	1328.889856	None	1328.889856	None	right	1328.889856	None	None	None	1329.207355	1330.878423	1.272215147	0.282942631													109	1	18	1	2019_Dec_06_1209	Test	3.2.4	59.84121696		Pictures/IA75_L30.bmp	Pictures/IA75_L30.bmp	Pictures/IA75.bmp	"Hold back"	0	safe					2	0	2	0	0	5	5	12																															1330.895144	None	1332.917139	1334.437808	1334.421093	None	1335.925064	None	1	1337.947048	None	1337.947048	None	1337.947048	None	1338.682319	None	1338.682319	1339.684956	1340.804576	None	1340.804576	None	left	1340.804576	None	1341.205643	1342.809864	None	None	0.569769376	0.360229951													109	1	18	1	2019_Dec_06_1209	Test	3.2.4	59.84121696		Pictures/IA50_G40.bmp	Pictures/IA50_G40.bmp	Pictures/IA50.bmp	"It would probably be best to play it safe."""""	0	safe					2	0	2	0	0	6	6	7																															1342.826566	None	1344.848565	1346.369233	1346.352543	None	1347.889907	None	1	1349.878494	None	1349.878494	None	1349.878494	None	1350.329683	None	1350.329683	1351.332315	1352.451939	None	1352.451939	None	left	1352.451939	None	1353.655096	None	None	None	0.310318144	1.168857864													109	1	18	1	2019_Dec_06_1209	Test	3.2.4	59.84121696		Pictures/IA80_40_G95p.bmp	Pictures/IA80_40_G95p.bmp	Pictures/IA80.bmp	"Think of the payoff"	1	risk					2	0	2	0	0	7	7	14																															1354.473927	None	1356.495924	1358.016593	1357.999879	None	1359.520558	None	1	1361.525843	None	1361.525843	None	1361.525843	None	1362.361379	None	1362.361379	1363.364013	1364.483638	None	1364.483638	None	left	1364.483638	None	1366.054427	None	None	None	0.702979068	1.521169456													109	1	18	1	2019_Dec_06_1209	Test	3.2.4	59.84121696		Pictures/IA25_G15.bmp	Pictures/IA25_G15.bmp	Pictures/IA25.bmp	"I think you should take a gamble."""""	1	risk					2	0	2	0	0	8	8	1																															1366.505614	None	1368.527608	1370.048281	1370.031586	None	1371.535535	None	1	1373.557541	None	1373.557541	None	1373.557541	None	1374.727288	None	1374.727288	1375.729923	1376.832836	None	1376.832836	None	right	1376.832836	None	None	None	1377.935732	None	1.039275278	1.06796014													109	1	18	1	2019_Dec_06_1209	Test	3.2.4	59.84121696		Pictures/IA25_G5.bmp	Pictures/IA25_G5.bmp	Pictures/IA25.bmp	"Let's stay with the certain option."""""	0	safe					2	0	2	0	0	9	9	3																															1378.854813	None	1380.876808	1382.397481	1382.380786	None	1383.901444	None	1	1385.906732	None	1385.906732	None	1385.906732	None	1388.547028	None	1388.547028	1389.549668	1390.652576	None	1390.652576	None	left	1390.652576	None	1391.605083	1392.641131	None	None	2.506073751	0.904230791													109	1	18	1	2019_Dec_06_1209	Test	3.2.4	59.84121696		Pictures/IA50_L10.bmp	Pictures/IA50_L10.bmp	Pictures/IA50.bmp	"Play it safe"	0	safe					2	0	2	0	0	10	10	11																															1392.657854	None	1394.679848	1396.200521	1396.183803	None	1397.721196	None	2	1399.70976	None	1399.70976	None	1399.70976	None	None	None	None	None	1401.313984	None	1401.313984	None	right	1401.313984	None	None	None	1401.631484	1403.302552	1.44706051	0.2748266													109	1	18	1	2019_Dec_06_1209	Test	3.2.4	59.84121696		Pictures/IA100_L20.bmp	Pictures/IA100_L20.bmp	Pictures/IA100.bmp	"Try to win as much money as you can"	1	risk					2	0	2	0	0	11	11	2																															1403.319274	None	1405.341272	1406.861943	1406.845224	None	1408.365905	None	1	1410.37119	None	1410.37119	None	1410.37119	None	1411.10645	None	1411.10645	1412.109085	1413.211996	None	1413.211996	None	right	1413.211996	None	None	None	1414.281488	None	0.58561974	1.024807089													109	1	18	1	2019_Dec_06_1209	Test	3.2.4	59.84121696		Pictures/IA100_G60.bmp	Pictures/IA100_G60.bmp	Pictures/IA100.bmp	"Be cautious"	0	safe					2	0	2	0	0	12	12	8																															1415.233993	None	1417.255981	1418.776653	1418.759956	None	1420.263905	None	1	1422.285912	None	1422.285912	None	1422.285912	None	1423.956979	None	1423.956979	1424.959617	1426.062549	None	1426.062549	None	left	1426.062549	None	1426.597257	1428.067794	None	None	1.550892951	0.486248909													109	1	18	1	2019_Dec_06_1209	Test	3.2.4	59.84121696		Pictures/IA110_55_G95p.bmp	Pictures/IA110_55_G95p.bmp	Pictures/IA110.bmp	"Take a chance!"""""	1	risk					2	0	2	0	0	13	13	10																															1428.084515	None	1430.106512	1431.627183	1431.610468	None	1433.131147	None	1	1435.136434	None	1435.136434	None	1435.136434	None	1435.971965	None	1435.971965	1436.974605	1438.077516	None	1438.077516	None	left	1438.077516	None	1438.461858	1440.066083	None	None	0.740380938	0.335282396													109	1	18	1	2019_Dec_06_1209	Test	3.2.4	59.84121696		Pictures/IA50_G20.bmp	Pictures/IA50_G20.bmp	Pictures/IA50.bmp	"Let's venture and take a risk!"""""	1	risk					2	0	2	0	0	14	14	0																															1440.082782	None	1442.104778	1443.625449	1443.608753	None	1445.162836	None	1	1447.134699	None	1447.134699	None	1447.134699	None	1447.752992	None	1447.752992	1448.755628	1449.87525	None	1449.87525	None	left	1449.87525	None	1451.061706	None	None	None	0.510113411	1.137567321													109	1	18	1	2019_Dec_06_1209	Test	3.2.4	59.84121696		Pictures/IA40_20_G95p.bmp	Pictures/IA40_20_G95p.bmp	Pictures/IA40.bmp	"Hold back"	0	safe					2	0	2	0	0	15	15	17																															1451.880541	None	1453.90254	1455.423205	1455.406494	None	1456.910464	None	1	1458.932447	None	1458.932447	None	1458.932447	None	1459.81811	None	1459.81811	1460.820745	1461.923661	None	1461.923661	None	left	1461.923661	None	1462.241196	1463.912224	None	None	0.744367909	0.281145346													109	1	18	1	2019_Dec_06_1209	Test	3.2.4	59.84121696		Pictures/IA100_G80.bmp	Pictures/IA100_G80.bmp	Pictures/IA100.bmp	"Why not gamble?"""""	1	risk					2	0	2	0	0	16	16	6																															1463.928947	None	1465.950944	1467.471616	1467.454897	None	1469.009003	None	1	1470.980874	None	1470.980874	None	1470.980874	None	1471.699422	None	1471.699422	1472.702059	1473.80497	None	1473.80497	None	right	1473.80497	None	None	None	1474.089048	1475.81025	0.615933511	0.239851636													109	1	18	1	2019_Dec_06_1209	Test	3.2.4	59.84121696		Pictures/IA20_10_L95p.bmp	Pictures/IA20_10_L95p.bmp	Pictures/IA20.bmp	"Don't be tempted to gamble."""""	0	safe					2	0	2	0	0	17	17	5																															1475.826948	None	1477.848943	1479.369615	1479.352923	None	1480.873577	None	2	1482.878864	None	1482.878864	None	1482.878864	None	None	None	None	None	1484.132176	None	1484.132176	None	right	1484.132176	None	None	None	1484.399534	1486.120744	1.061952643	0.232629953													109	1	18	1	2019_Dec_06_1209	Test	3.2.4	59.84121696		Pictures/IA75_G45.bmp	Pictures/IA75_G45.bmp	Pictures/IA75.bmp	"Don't gamble for this one."""""	0	safe					2	0	2	0	0	18	18	13																															1486.137444	None	1488.15944	1489.680114	1489.663416	None	1491.217497	None	1	1493.189362	None	1493.189362	None	1493.189362	None	1493.907919	None	1493.907919	1494.910555	1496.030178	None	1496.030178	None	left	1496.030178	None	1496.832344	1498.018728	None	None	0.607453204	0.76661913													109	1	18	1	2019_Dec_06_1209	Test	3.2.4	59.84121696		Pictures/IA50_G30.bmp	Pictures/IA50_G30.bmp	Pictures/IA50.bmp	"I think you should gamble."""""	1	risk					2	0	2	0	0	19	19	15																															1498.035453	None	1500.124321	1501.628244	1501.611543	None	1503.115503	None	2	1505.087366	None	1505.087366	None	1505.087366	None	None	None	None	None	1506.290545	None	1506.290545	None	None	1506.290545	None	None	None	None	None	1.04544674														109	1	18	1	2019_Dec_06_1209	Test	3.2.4	59.84121696		Pictures/IA75_G60.bmp	Pictures/IA75_G60.bmp	Pictures/IA75.bmp	"Make it exciting"	1	risk					3	0	3	0	0	0	0	10													1517.386445	None	1517.386445	None	1517.386445	None	right	1.106362198	1517.386445	None	1517.386445	None	1517.386445	None	return	2.250258926	1517.386445	None	1519.675805	None	1521.714502	1523.218459	1523.185034	None	1524.722436	None	1	1526.711001	None	1526.711001	None	1526.711001	None	1527.312582	None	1527.312582	1528.315211	1529.418121	None	1529.418121	None	right	1529.418121	None	None	None	1530.721564	None	0.477813998	1.258696505													109	1	18	1	2019_Dec_06_1209	Test	3.2.4	59.84121696		Pictures/IA100_G80.bmp	Pictures/IA100_G80.bmp	Pictures/IA100.bmp	"Why not gamble?"""""	1	risk					3	0	3	0	0	1	1	6																															1531.423421	None	1533.462139	1534.966201	1534.949368	None	1536.486752	None	1	1538.475336	None	1538.475336	None	1538.475336	None	1539.327569	None	1539.327569	1540.330205	1541.433108	None	1541.433108	None	right	1541.433108	None	None	None	1541.800758	1543.438403	0.761464949	0.331700246													109	1	18	1	2019_Dec_06_1209	Test	3.2.4	59.84121696		Pictures/IA25_G20.bmp	Pictures/IA25_G20.bmp	Pictures/IA25.bmp	"I wouldn't gamble for this one. """""	0	safe					3	0	3	0	0	2	2	14																															1543.455122	None	1545.493829	1546.997773	1546.981054	None	1548.501727	None	2	1550.507033	None	1550.507033	None	1550.507033	None	None	None	None	None	1551.827158	None	1551.827158	None	right	1551.827158	None	None	None	1552.061133	1553.815735	1.121796807	0.193653771													109	1	18	1	2019_Dec_06_1209	Test	3.2.4	59.84121696		Pictures/IA25_G5.bmp	Pictures/IA25_G5.bmp	Pictures/IA25.bmp	"Let's stay with the certain option."""""	0	safe					3	0	3	0	0	3	3	15																															1553.832455	None	1555.854445	1557.358428	1557.341693	None	1558.912532	None	1	1560.884368	None	1560.884368	None	1560.884368	None	1561.469258	None	1561.469258	1562.471894	1563.591541	None	1563.591541	None	left	1563.591541	None	1563.97588	1565.580063	None	None	0.456455261	0.349252517													109	1	18	1	2019_Dec_06_1209	Test	3.2.4	59.84121696		Pictures/IA40_20_G95p.bmp	Pictures/IA40_20_G95p.bmp	Pictures/IA40.bmp	"Hold back"	0	safe					3	0	3	0	0	4	4	3																															1565.596788	None	1567.635485	1569.156156	1569.139459	None	1570.66013	None	2	1572.648703	None	1572.648703	None	1572.648703	None	None	None	None	None	1574.102531	None	1574.102531	None	left	1574.102531	None	1574.386605	1576.091133	None	None	1.244107783	0.246287687													109	1	18	1	2019_Dec_06_1209	Test	3.2.4	59.84121696		Pictures/IA100_L40.bmp	Pictures/IA100_L40.bmp	Pictures/IA100.bmp	"Think of the payoff"	1	risk					3	0	3	0	0	5	5	8																															1576.107807	None	1578.146507	1579.650491	1579.633765	None	1581.187876	None	1	1583.159747	None	1583.159747	None	1583.159747	None	1584.847512	None	1584.847512	1585.850188	1586.969785	None	1586.969785	None	None	1586.969785	None	None	None	None	None	1.557058659														109	1	18	1	2019_Dec_06_1209	Test	3.2.4	59.84121696		Pictures/IA50_G30.bmp	Pictures/IA50_G30.bmp	Pictures/IA50.bmp	"I think you should gamble."""""	1	risk					3	0	3	0	0	6	6	4																															1588.975033	None	1591.013739	1592.534411	1592.517718	None	1594.038389	None	1	1596.02695	None	1596.02695	None	1596.02695	None	1596.461427	None	1596.461427	1597.464061	1598.566975	None	1598.566975	None	right	1598.566975	None	None	None	1600.137786	None	0.305868406	1.533824004													109	1	18	1	2019_Dec_06_1209	Test	3.2.4	59.84121696		Pictures/IA25_L10.bmp	Pictures/IA25_L10.bmp	Pictures/IA25.bmp	"Dont be afraid to take the risk!"""""	1	risk					3	0	3	0	0	7	7	18																															1600.588977	None	1602.61097	1604.131641	1604.114924	None	1605.669027	None	1	1607.640891	None	1607.640891	None	1607.640891	None	1608.209055	None	1608.209055	1609.21169	1610.314601	None	1610.314601	None	left	1610.314601	None	1611.434217	None	None	None	0.435924099	1.082202582													109	1	18	1	2019_Dec_06_1209	Test	3.2.4	59.84121696		Pictures/IA75_L15.bmp	Pictures/IA75_L15.bmp	Pictures/IA75.bmp	"Trust me"	1	risk					3	0	3	0	0	8	8	7																															1612.319885	None	1614.358574	1615.879245	1615.86255	None	1617.399933	None	2	1619.371795	None	1619.371795	None	1619.371795	None	None	None	None	None	1619.923241	None	1619.923241	None	right	1619.923241	None	None	None	1620.357724	1621.928515	0.385023939	0.385577474													109	1	18	1	2019_Dec_06_1209	Test	3.2.4	59.84121696		Pictures/IA50_G20.bmp	Pictures/IA50_G20.bmp	Pictures/IA50.bmp	"Let's venture and take a risk!"""""	1	risk					3	0	3	0	0	9	9	11																															1621.945237	None	1623.967234	1625.487903	1625.471188	None	1627.008578	None	1	1628.997143	None	1628.997143	None	1628.997143	None	1629.348067	None	1629.348067	1630.350705	1631.453613	None	1631.453613	None	right	1631.453613	None	None	None	1633.291797	None	0.247669649	1.791192227													109	1	18	1	2019_Dec_06_1209	Test	3.2.4	59.84121696		Pictures/IA50_G40.bmp	Pictures/IA50_G40.bmp	Pictures/IA50.bmp	"It would probably be best to play it safe."""""	0	safe					3	0	3	0	0	10	10	16																															1633.475619	None	1635.497613	1637.018283	1637.001562	None	1638.538955	None	1	1640.527518	None	1640.527518	None	1640.527518	None	1641.262787	None	1641.262787	1642.265423	1643.368336	None	1643.368336	None	right	1643.368336	None	None	None	1644.020051	1645.35692	0.573297809	0.612468844													109	1	18	1	2019_Dec_06_1209	Test	3.2.4	59.84121696		Pictures/IA100_G40.bmp	Pictures/IA100_G40.bmp	Pictures/IA100.bmp	"Try your luck and gamble!"""""	1	risk					3	0	3	0	0	11	11	13																															1645.373614	None	1647.395609	1648.916282	1648.899585	None	1650.45367	None	1	1652.42553	None	1652.42553	None	1652.42553	None	1652.976984	None	1652.976984	1653.97962	1655.099242	None	1655.099242	None	left	1655.099242	None	1656.101891	None	None	None	0.43528885	0.96156332													109	1	18	1	2019_Dec_06_1209	Test	3.2.4	59.84121696		Pictures/IA75_G15.bmp	Pictures/IA75_G15.bmp	Pictures/IA75.bmp	"Take a chance!"""""	1	risk					3	0	3	0	0	12	12	17																															1657.121231	None	1659.143224	1660.663897	1660.647201	None	1662.201286	None	1	1664.173148	None	1664.173148	None	1664.173148	None	1664.741309	None	1664.741309	1665.743946	1666.846863	None	1666.846863	None	left	1666.846863	None	1668.18373	None	None	None	0.4796679	1.301938194													109	1	18	1	2019_Dec_06_1209	Test	3.2.4	59.84121696		Pictures/IA20_10_G95p.bmp	Pictures/IA20_10_G95p.bmp	Pictures/IA20.bmp	"Take a leap"	1	risk					3	0	3	0	0	13	13	12																															1668.868847	None	1670.907552	1672.428224	1672.411528	None	1673.948912	None	1	1675.920774	None	1675.920774	None	1675.920774	None	1678.009608	None	1678.009608	1679.012246	1680.115159	None	1680.115159	None	left	1680.115159	None	1681.886477	None	None	None	1.948037126	1.721649259													109	1	18	1	2019_Dec_06_1209	Test	3.2.4	59.84121696		Pictures/IA50_L40.bmp	Pictures/IA50_L40.bmp	Pictures/IA50.bmp	"That gamble doesn't sound too good"	0	safe					3	0	3	0	0	14	14	1																															1682.137135	None	1684.159134	1685.679803	1685.663106	None	1687.217191	None	1	1689.189052	None	1689.189052	None	1689.189052	None	1690.943683	None	1690.943683	1691.946322	1693.065942	None	1693.065942	None	left	1693.065942	None	1694.586573	None	None	None	1.599765428	1.474869072													109	1	18	1	2019_Dec_06_1209	Test	3.2.4	59.84121696		Pictures/IA25_G15.bmp	Pictures/IA25_G15.bmp	Pictures/IA25.bmp	"I think you should take a gamble."""""	1	risk					3	0	3	0	0	15	15	5																															1695.07121	None	1697.093206	1698.613878	1698.597182	None	1700.151263	None	1	1702.123127	None	1702.123127	None	1702.123127	None	1703.526824	None	1703.526824	1704.52946	1705.632373	None	1705.632373	None	right	1705.632373	None	None	None	1706.033435	1707.637663	1.273692738	0.356431413													109	1	18	1	2019_Dec_06_1209	Test	3.2.4	59.84121696		Pictures/IA25_L5.bmp	Pictures/IA25_L5.bmp	Pictures/IA25.bmp	"It would be smarter to choose the safe option."""""	0	safe					3	0	3	0	0	16	16	0																															1707.654365	None	1709.676356	1711.197031	1711.180341	None	1712.734413	None	2	1714.706283	None	1714.706283	None	1714.706283	None	None	None	None	None	1715.424849	None	1715.424849	None	right	1715.424849	None	None	None	1715.742348	1717.413414	0.530544823	0.283958452													109	1	18	1	2019_Dec_06_1209	Test	3.2.4	59.84121696		Pictures/IA50_L30.bmp	Pictures/IA50_L30.bmp	Pictures/IA50.bmp	"Take a leap"	1	risk					3	0	3	0	0	17	17	19																															1717.430115	None	1719.452115	1720.972782	1720.956089	None	1722.510172	None	2	1724.482035	None	1724.482035	None	1724.482035	None	None	None	None	None	1726.871695	None	1726.871695	None	left	1726.871695	None	1728.776675	None	None	None	2.202770889	1.869109818													109	1	18	1	2019_Dec_06_1209	Test	3.2.4	59.84121696		Pictures/IA110_55_L95p.bmp	Pictures/IA110_55_L95p.bmp	Pictures/IA110.bmp	"Trust me"	1	risk					3	0	3	0	0	18	18	9																															1728.893649	None	1730.932355	1732.453027	1732.43633	None	1733.973714	None	1	1735.945588	None	1735.945588	None	1735.945588	None	1738.051113	None	1738.051113	1739.05375	1740.156661	None	1740.156661	None	right	1740.156661	None	None	None	1741.259573	None	2.003218665	1.064145732													109	1	18	1	2019_Dec_06_1209	Test	3.2.4	59.84121696		Pictures/IA110_55_G95p.bmp	Pictures/IA110_55_G95p.bmp	Pictures/IA110.bmp	"Take a chance!"""""	1	risk					3	0	3	0	0	19	19	2																															1742.178679	None	1744.200658	1745.704607	1745.687911	None	1747.258714	None	1	1749.230579	None	1749.230579	None	1749.230579	None	1750.417026	None	1750.417026	1751.419674	1752.522585	None	1752.522585	None	left	1752.522585	None	1753.49179	1754.527862	None	None	1.102234964	0.930219635													109	1	18	1	2019_Dec_06_1209	Test	3.2.4	59.84121696		Pictures/IA25_G5.bmp	Pictures/IA25_G5.bmp	Pictures/IA25.bmp	"Let's stay with the certain option."""""	0	safe					4	0	4	0	0	0	0	18													1760.15937	None	1760.15937	None	1760.15937	None	left	1.213435087	1760.15937	None	1760.15937	None	1760.15937	None	return	1.981220532	1760.15937	None	1762.181368	None	1764.203356	1765.724026	1765.70731	None	1767.211271	None	1	1769.216554	None	1769.216554	None	1769.216554	None	1770.001957	None	1770.001957	1771.004592	1772.124214	None	1772.124214	None	left	1772.124214	None	1772.425013	1774.129491	None	None	0.644259088	0.264589425													109	1	18	1	2019_Dec_06_1209	Test	3.2.4	59.84121696		Pictures/IA25_L5.bmp	Pictures/IA25_L5.bmp	Pictures/IA25.bmp	"It would be smarter to choose the safe option."""""	0	safe					4	0	4	0	0	1	1	19																															1774.146214	None	1776.168212	1777.688881	1777.672164	None	1779.176282	None	2	1781.198121	None	1781.198121	None	1781.198121	None	None	None	None	None	1782.284314	None	1782.284314	None	right	1782.284314	None	None	None	1782.518272	1784.289593	0.902696881	0.200499519													109	1	18	1	2019_Dec_06_1209	Test	3.2.4	59.84121696		Pictures/IA50_G20.bmp	Pictures/IA50_G20.bmp	Pictures/IA50.bmp	"Let's venture and take a risk!"""""	1	risk					4	0	4	0	0	2	2	3																															1784.306316	None	1786.328309	1787.848985	1787.832266	None	1789.352949	None	1	1791.358246	None	1791.358246	None	1791.358246	None	1792.243897	None	1792.243897	1793.246535	1794.349446	None	1794.349446	None	left	1794.349446	None	1795.970383	None	None	None	0.774562037	1.575360004													109	1	18	1	2019_Dec_06_1209	Test	3.2.4	59.84121696		Pictures/IA100_L20.bmp	Pictures/IA100_L20.bmp	Pictures/IA100.bmp	"Try to win as much money as you can"	1	risk					4	0	4	0	0	3	3	1																															1796.354725	None	1798.376725	1799.880688	1799.86393	None	1801.434772	None	1	1803.406632	None	1803.406632	None	1803.406632	None	1803.790974	None	1803.790974	1804.793612	1805.896524	None	1805.896524	None	right	1805.896524	None	None	None	1806.197339	1807.901803	0.238183687	0.252278439													109	1	18	1	2019_Dec_06_1209	Test	3.2.4	59.84121696		Pictures/IA100_G20.bmp	Pictures/IA100_G20.bmp	Pictures/IA100.bmp	"Go ahead and gamble!"""""	1	risk					4	0	4	0	0	4	4	2																															1807.918524	None	1809.94052	1811.461179	1811.444487	None	1812.998569	None	1	1814.970434	None	1814.970434	None	1814.970434	None	1817.243082	None	1817.243082	1818.24572	1819.348631	None	1819.348631	None	left	1819.348631	None	1820.601932	None	None	None	2.178380021	1.216168067													109	1	18	1	2019_Dec_06_1209	Test	3.2.4	59.84121696		Pictures/IA75_L30.bmp	Pictures/IA75_L30.bmp	Pictures/IA75.bmp	"Hold back"	0	safe					4	0	4	0	0	5	5	9																															1821.35392	None	1823.375921	1824.896585	1824.879874	None	1826.433977	None	1	1828.405861	None	1828.405861	None	1828.405861	None	1829.30823	None	1829.30823	1830.310838	1831.430462	None	1831.430462	None	left	1831.430462	None	1832.032052	1833.435748	None	None	0.766933314	0.566342913													109	1	18	1	2019_Dec_06_1209	Test	3.2.4	59.84121696		Pictures/IA25_L20.bmp	Pictures/IA25_L20.bmp	Pictures/IA25.bmp	"Don't be tempted to gamble."""""	0	safe					4	0	4	0	0	6	6	7																															1833.452449	None	1835.474445	1836.995117	1836.978428	None	1838.532506	None	1	1840.504366	None	1840.504366	None	1840.504366	None	1841.222926	None	1841.222926	1842.225562	1843.345185	None	1843.345185	None	left	1843.345185	None	1844.966118	None	None	None	0.604448856	1.579620564													109	1	18	1	2019_Dec_06_1209	Test	3.2.4	59.84121696		Pictures/IA25_G10.bmp	Pictures/IA25_G10.bmp	Pictures/IA25.bmp	"What's life without a little risk?"""""	1	risk					4	0	4	0	0	7	7	6																															1845.350467	None	1847.372456	1848.89313	1848.876433	None	1850.430515	None	1	1852.402383	None	1852.402383	None	1852.402383	None	1852.569492	None	1852.569492	1853.572122	1854.675034	None	1854.675034	None	None	1854.675034	None	None	None	None	None	0.034414866														109	1	18	1	2019_Dec_06_1209	Test	3.2.4	59.84121696		Pictures/IA75_G60.bmp	Pictures/IA75_G60.bmp	Pictures/IA75.bmp	"Make it exciting"	1	risk					4	0	4	0	0	8	8	13																															1856.680313	None	1858.702308	1860.222996	1860.206285	None	1861.760364	None	1	1863.732236	None	1863.732236	None	1863.732236	None	1864.53434	None	1864.53434	1865.536977	1866.63989	None	1866.63989	None	right	1866.63989	None	None	None	1867.675958	None	0.680572515	0.99691259													109	1	18	1	2019_Dec_06_1209	Test	3.2.4	59.84121696		Pictures/IA25_G20.bmp	Pictures/IA25_G20.bmp	Pictures/IA25.bmp	"I wouldn't gamble for this one. """""	0	safe					4	0	4	0	0	9	9	12																															1868.661889	None	1870.683884	1872.204546	1872.187863	None	1873.758648	None	2	1875.713808	None	1875.713808	None	1875.713808	None	None	None	None	None	1876.298681	None	1876.298681	None	right	1876.298681	None	None	None	1876.582758	1878.287238	0.403002032	0.242127188													109	1	18	1	2019_Dec_06_1209	Test	3.2.4	59.84121696		Pictures/IA75_G45.bmp	Pictures/IA75_G45.bmp	Pictures/IA75.bmp	"Don't gamble for this one."""""	0	safe					4	0	4	0	0	10	10	17																															1878.303959	None	1880.325957	1881.846626	1881.82991	None	1883.400725	None	1	1885.355865	None	1885.355865	None	1885.355865	None	1885.990881	None	1885.990881	1886.993518	1888.096431	None	1888.096431	None	left	1888.096431	None	1888.413929	1890.084996	None	None	0.528949548	0.276376225													109	1	18	1	2019_Dec_06_1209	Test	3.2.4	59.84121696		Pictures/IA25_L15.bmp	Pictures/IA25_L15.bmp	Pictures/IA25.bmp	"There's not much on the line here"	1	risk					4	0	4	0	0	11	11	5																															1890.101702	None	1892.123693	1893.644368	1893.627667	None	1895.181759	None	1	1897.153615	None	1897.153615	None	1897.153615	None	1897.654945	None	1897.654945	1898.657581	1899.760493	None	1899.760493	None	right	1899.760493	None	None	None	1901.715641	None	0.355199421	1.916309434													109	1	18	1	2019_Dec_06_1209	Test	3.2.4	59.84121696		Pictures/IA20_10_G95p.bmp	Pictures/IA20_10_G95p.bmp	Pictures/IA20.bmp	"Take a leap"	1	risk					4	0	4	0	0	12	12	4																															1901.765772	None	1903.804476	1905.325151	1905.308437	None	1906.795679	None	2	1908.817693	None	1908.817693	None	1908.817693	None	None	None	None	None	1909.987427	None	1909.987427	None	left	1909.987427	None	1910.689282	1911.992705	None	None	0.987122133	0.65738148													109	1	18	1	2019_Dec_06_1209	Test	3.2.4	59.84121696		Pictures/IA50_G10.bmp	Pictures/IA50_G10.bmp	Pictures/IA50.bmp	"Go with the safe option here!"""""	0	safe					4	0	4	0	0	13	13	14																															1912.00943	None	1914.031422	1915.552096	1915.535376	None	1917.089478	None	2	1919.061345	None	1919.061345	None	1919.061345	None	None	None	None	None	1920.465029	None	1920.465029	None	left	1920.465029	None	1920.749108	1922.45361	None	None	1.223471341	0.243771072													109	1	18	1	2019_Dec_06_1209	Test	3.2.4	59.84121696		Pictures/IA20_10_L95p.bmp	Pictures/IA20_10_L95p.bmp	Pictures/IA20.bmp	"Don't be tempted to gamble."""""	0	safe					4	0	4	0	0	14	14	8																															1922.470308	None	1924.492273	1926.012979	1925.996279	None	1927.550361	None	1	1929.522226	None	1929.522226	None	1929.522226	None	1929.88987	None	1929.88987	1930.892507	1932.012131	None	1932.012131	None	right	1932.012131	None	None	None	1933.148442	None	0.258589817	1.088677796													109	1	18	1	2019_Dec_06_1209	Test	3.2.4	59.84121696		Pictures/IA50_L40.bmp	Pictures/IA50_L40.bmp	Pictures/IA50.bmp	"That gamble doesn't sound too good"	0	safe					4	0	4	0	0	15	15	15																															1934.034119	None	1936.056116	1937.576788	1937.56007	None	1939.080755	None	1	1941.086036	None	1941.086036	None	1941.086036	None	1942.239063	None	1942.239063	1943.241699	1944.344616	None	1944.344616	None	left	1944.344616	None	1944.92948	1946.333179	None	None	0.99876992	0.548180438													109	1	18	1	2019_Dec_06_1209	Test	3.2.4	59.84121696		Pictures/IA25_G15.bmp	Pictures/IA25_G15.bmp	Pictures/IA25.bmp	"I think you should take a gamble."""""	1	risk					4	0	4	0	0	16	16	16																															1946.349899	None	1948.371893	1949.875846	1949.859149	None	1951.379821	None	1	1953.401807	None	1953.401807	None	1953.401807	None	1954.02011	None	1954.02011	1955.022748	1956.12566	None	1956.12566	None	right	1956.12566	None	None	None	1956.393016	1958.130928	0.49900504	0.231143336													109	1	18	1	2019_Dec_06_1209	Test	3.2.4	59.84121696		Pictures/IA100_G40.bmp	Pictures/IA100_G40.bmp	Pictures/IA100.bmp	"Try your luck and gamble!"""""	1	risk					4	0	4	0	0	17	17	10																															1958.14765	None	1960.169643	1961.690317	1961.673596	None	1963.1943	None	1	1965.199567	None	1965.199567	None	1965.199567	None	1967.25498	None	1967.25498	1968.257616	1969.377237	None	1969.377237	None	left	1969.377237	None	1970.363165	None	None	None	1.94923777	0.939569847													109	1	18	1	2019_Dec_06_1209	Test	3.2.4	59.84121696		Pictures/IA50_L10.bmp	Pictures/IA50_L10.bmp	Pictures/IA50.bmp	"Play it safe"	0	safe					4	0	4	0	0	18	18	11																															1971.382506	None	1973.404501	1974.925177	1974.908478	None	1976.46256	None	1	1978.434428	None	1978.434428	None	1978.434428	None	1979.687687	None	1979.687687	1980.690361	1981.793272	None	1981.793272	None	right	1981.793272	None	None	None	1983.079993	None	1.146392348	1.243532708													109	1	18	1	2019_Dec_06_1209	Test	3.2.4	59.84121696		Pictures/IA75_L60.bmp	Pictures/IA75_L60.bmp	Pictures/IA75.bmp	"Why not take the gamble?"""""	1	risk					4	0	4	0	0	19	19	0																															1983.798552	None	1985.820547	1987.341218	1987.324522	None	1988.878603	None	1	1990.850467	None	1990.850467	None	1990.850467	None	1991.919957	None	1991.919957	1992.922599	1994.02551	None	1994.02551	None	left	1994.02551	None	1994.326293	1996.030777	None	None	0.962345477	0.251299542													109	1	18	1	2019_Dec_06_1209	Test	3.2.4	59.84121696		Pictures/IA100_L60.bmp	Pictures/IA100_L60.bmp	Pictures/IA100.bmp	"You'd have a lot to lose"	0	safe					5	0	5	0	0	0	0	11													1999.088848	None	1999.088848	None	1999.088848	None	left	1.243959591	1999.088848	None	1999.088848	None	1999.088848	None	return	2.123826204	1999.088848	None	2001.261191	None	2003.283221	2004.803891	2004.787197	None	2006.307865	None	1	2008.296432	None	2008.296432	None	2008.296432	None	2009.065134	None	2009.065134	2010.06777	2011.170681	None	2011.170681	None	left	2011.170681	None	2011.688708	2013.15925	None	None	0.62838881	0.482122906													109	1	18	1	2019_Dec_06_1209	Test	3.2.4	59.84121696		Pictures/IA100_G60.bmp	Pictures/IA100_G60.bmp	Pictures/IA100.bmp	"Be cautious"	0	safe					5	0	5	0	0	1	1	9																															2013.175965	None	2015.197949	2016.718616	2016.701925	None	2018.256002	None	1	2020.227867	None	2020.227867	None	2020.227867	None	2020.679065	None	2020.679065	2021.681701	2022.784612	None	2022.784612	None	left	2022.784612	None	2023.102112	2024.789881	None	None	0.320949887	0.276192822													109	1	18	1	2019_Dec_06_1209	Test	3.2.4	59.84121696		Pictures/IA25_L5.bmp	Pictures/IA25_L5.bmp	Pictures/IA25.bmp	"It would be smarter to choose the safe option."""""	0	safe					5	0	5	0	0	2	2	16																															2024.806604	None	2026.828598	2028.349269	2028.332553	None	2029.853233	None	1	2031.858522	None	2031.858522	None	2031.858522	None	2032.6272	None	2032.6272	2033.629837	2034.732748	None	2034.732748	None	left	2034.732748	None	2036.270139	None	None	None	0.63428895	1.504040196													109	1	18	1	2019_Dec_06_1209	Test	3.2.4	59.84121696		Pictures/IA25_L15.bmp	Pictures/IA25_L15.bmp	Pictures/IA25.bmp	"There's not much on the line here"	1	risk					5	0	5	0	0	3	3	4																															2036.754737	None	2038.776731	2040.297404	2040.280709	None	2041.784661	None	1	2043.806666	None	2043.806666	None	2043.806666	None	2044.658983	None	2044.658983	2045.661557	2046.78118	None	2046.78118	None	left	2046.78118	None	2048.301859	None	None	None	0.718171092	1.479646357													109	1	18	1	2019_Dec_06_1209	Test	3.2.4	59.84121696		Pictures/IA75_L45.bmp	Pictures/IA75_L45.bmp	Pictures/IA75.bmp	"Don't gamble for this one"	0	safe					5	0	5	0	0	4	4	14																															2048.78645	None	2050.808472	2052.329114	2052.312396	None	2053.866512	None	2	2055.838366	None	2055.838366	None	2055.838366	None	None	None	None	None	2056.774157	None	2056.774157	None	left	2056.774157	None	2057.074951	2058.779431	None	None	0.758448435	0.254655178													109	1	18	1	2019_Dec_06_1209	Test	3.2.4	59.84121696		Pictures/IA100_G40.bmp	Pictures/IA100_G40.bmp	Pictures/IA100.bmp	"Try your luck and gamble!"""""	1	risk					5	0	5	0	0	5	5	3																															2058.796153	None	2060.818157	2062.322098	2062.305407	None	2063.826074	None	1	2065.848063	None	2065.848063	None	2065.848063	None	2067.101365	None	2067.101365	2068.103996	2069.206914	None	2069.206914	None	left	2069.206914	None	2069.875342	2071.212201	None	None	1.148748591	0.621890684													109	1	18	1	2019_Dec_06_1209	Test	3.2.4	59.84121696		Pictures/IA25_L20.bmp	Pictures/IA25_L20.bmp	Pictures/IA25.bmp	"Don't be tempted to gamble."""""	0	safe					5	0	5	0	0	6	6	15																															2071.228903	None	2073.250897	2074.771564	2074.754873	None	2076.258822	None	2	2078.280844	None	2078.280844	None	2078.280844	None	None	None	None	None	2078.965954	None	2078.965954	None	left	2078.965954	None	2079.584246	2080.954533	None	None	0.491973566	0.574863762													109	1	18	1	2019_Dec_06_1209	Test	3.2.4	59.84121696		Pictures/IA80_40_L95p.bmp	Pictures/IA80_40_L95p.bmp	Pictures/IA80.bmp	"Let's stay with the certain option."""""	0	safe					5	0	5	0	0	7	7	13																															2080.971238	None	2083.00994	2084.530608	2084.513915	None	2086.017877	None	1	2088.023166	None	2088.023166	None	2088.023166	None	2088.407494	None	2088.407494	2089.410131	2090.513044	None	2090.513044	None	right	2090.513044	None	None	None	2090.947527	2092.518321	0.261646126	0.387760613													109	1	18	1	2019_Dec_06_1209	Test	3.2.4	59.84121696		Pictures/IA75_L30.bmp	Pictures/IA75_L30.bmp	Pictures/IA75.bmp	"Hold back"	0	safe					5	0	5	0	0	8	8	2																															2092.535046	None	2094.557042	2096.07771	2096.060996	None	2097.581675	None	1	2099.58696	None	2099.58696	None	2099.58696	None	2100.305519	None	2100.305519	2101.308156	2102.411067	None	2102.411067	None	left	2102.411067	None	2102.895675	2104.399624	None	None	0.577862445	0.441740674													109	1	18	1	2019_Dec_06_1209	Test	3.2.4	59.84121696		Pictures/IA110_55_L95p.bmp	Pictures/IA110_55_L95p.bmp	Pictures/IA110.bmp	"Trust me"	1	risk					5	0	5	0	0	9	9	17																															2104.416347	None	2106.43834	2107.959014	2107.942295	None	2109.479688	None	1	2111.468252	None	2111.468252	None	2111.468252	None	2111.785764	None	2111.785764	2112.788402	2113.891315	None	2113.891315	None	right	2113.891315	None	None	None	2114.37592	2115.896595	0.224572717	0.441494672													109	1	18	1	2019_Dec_06_1209	Test	3.2.4	59.84121696		Pictures/IA50_G10.bmp	Pictures/IA50_G10.bmp	Pictures/IA50.bmp	"Go with the safe option here!"""""	0	safe					5	0	5	0	0	10	10	7																															2115.913293	None	2117.935286	2119.455961	2119.439264	None	2120.943214	None	1	2122.965221	None	2122.965221	None	2122.965221	None	2124.61957	None	2124.61957	2125.622204	2126.725117	None	2126.725117	None	left	2126.725117	None	2127.577357	2128.713684	None	None	1.527592367	0.815686405													109	1	18	1	2019_Dec_06_1209	Test	3.2.4	59.84121696		Pictures/IA75_G15.bmp	Pictures/IA75_G15.bmp	Pictures/IA75.bmp	"Take a chance!"""""	1	risk					5	0	5	0	0	11	11	19																															2128.730407	None	2130.752401	2132.273072	2132.25636	None	2133.777034	None	1	2135.782325	None	2135.782325	None	2135.782325	None	2136.166675	None	2136.166675	2137.169294	2138.272207	None	2138.272207	None	left	2138.272207	None	2138.656548	2140.260775	None	None	0.294486031	0.340602278													109	1	18	1	2019_Dec_06_1209	Test	3.2.4	59.84121696		Pictures/IA25_G10.bmp	Pictures/IA25_G10.bmp	Pictures/IA25.bmp	"What's life without a little risk?"""""	1	risk					5	0	5	0	0	12	12	18																															2140.2775	None	2142.299491	2143.820163	2143.803445	None	2145.457812	None	1	2147.329412	None	2147.329412	None	2147.329412	None	2148.833376	None	2148.833376	2149.836011	2150.938928	None	2150.938928	None	left	2150.938928	None	2151.523793	2152.927488	None	None	1.371411578	0.537879894													109	1	18	1	2019_Dec_06_1209	Test	3.2.4	59.84121696		Pictures/IA25_L10.bmp	Pictures/IA25_L10.bmp	Pictures/IA25.bmp	"Dont be afraid to take the risk!"""""	1	risk					5	0	5	0	0	13	13	10																															2152.944189	None	2154.966186	2156.486863	2156.470161	None	2158.007532	None	1	2159.996119	None	2159.996119	None	2159.996119	None	2160.330321	None	2160.330321	2161.332958	2162.469292	None	2162.469292	None	right	2162.469292	None	None	None	2162.753368	2164.457867	0.22469589	0.239522298													109	1	18	1	2019_Dec_06_1209	Test	3.2.4	59.84121696		Pictures/IA50_L20.bmp	Pictures/IA50_L20.bmp	Pictures/IA50.bmp	"Certainty is boring"	1	risk					5	0	5	0	0	14	14	5																															2164.474568	None	2166.496564	2168.017238	2168.000542	None	2169.554627	None	1	2171.526486	None	2171.526486	None	2171.526486	None	2172.278472	None	2172.278472	2173.281103	2174.384017	None	2174.384017	None	right	2174.384017	None	None	None	2176.355883	None	0.646327752	1.924791357													109	1	18	1	2019_Dec_06_1209	Test	3.2.4	59.84121696		Pictures/IA50_G30.bmp	Pictures/IA50_G30.bmp	Pictures/IA50.bmp	"I think you should gamble."""""	1	risk					5	0	5	0	0	15	15	0																															2176.406015	None	2178.428013	2179.948682	2179.931965	None	2181.469359	None	1	2183.457924	None	2183.457924	None	2183.457924	None	2183.94253	None	2183.94253	2184.945169	2186.04808	None	2186.04808	None	left	2186.04808	None	2186.482566	2188.053358	None	None	0.370904066	0.388727459													109	1	18	1	2019_Dec_06_1209	Test	3.2.4	59.84121696		Pictures/IA100_L80.bmp	Pictures/IA100_L80.bmp	Pictures/IA100.bmp	"Go all in!"""""	1	risk					5	0	5	0	0	16	16	1																															2188.070081	None	2190.092079	2191.612748	2191.596033	None	2193.166843	None	1	2195.121988	None	2195.121988	None	2195.121988	None	2196.007665	None	2196.007665	2197.0103	2198.113212	None	2198.113212	None	left	2198.113212	None	2198.881889	2200.11849	None	None	0.794822726	0.723591943													109	1	18	1	2019_Dec_06_1209	Test	3.2.4	59.84121696		Pictures/IA40_20_L95p.bmp	Pictures/IA40_20_L95p.bmp	Pictures/IA40.bmp	"Trust me"	1	risk					5	0	5	0	0	17	17	8																															2200.13519	None	2202.173898	2203.677868	2203.661156	None	2205.181844	None	1	2207.187124	None	2207.187124	None	2207.187124	None	2207.521332	None	2207.521332	2208.523967	2209.62688	None	2209.62688	None	right	2209.62688	None	None	None	2209.927663	2211.632159	0.241687471	0.257924272													109	1	18	1	2019_Dec_06_1209	Test	3.2.4	59.84121696		Pictures/IA75_L15.bmp	Pictures/IA75_L15.bmp	Pictures/IA75.bmp	"Trust me"	1	risk					5	0	5	0	0	18	18	6																															2211.64886	None	2213.670853	2215.191539	2215.174835	None	2216.695496	None	1	2218.700785	None	2218.700785	None	2218.700785	None	2219.285651	None	2219.285651	2220.288286	2221.391198	None	2221.391198	None	right	2221.391198	None	None	None	2221.74212	2223.379776	0.512020388	0.301603283													109	1	18	1	2019_Dec_06_1209	Test	3.2.4	59.84121696		Pictures/IA25_G5.bmp	Pictures/IA25_G5.bmp	Pictures/IA25.bmp	"Let's stay with the certain option."""""	0	safe					5	0	5	0	0	19	19	12																															2223.396477	None	2225.418471	2226.939143	2226.922451	None	2228.459824	None	1	2230.448407	None	2230.448407	None	2230.448407	None	2231.049958	None	2231.049958	2232.052626	2233.155539	None	2233.155539	None	left	2233.155539	None	2233.556579	2235.160815	None	None	0.468403575	0.361262991													109	1	18	1	2019_Dec_06_1209	Test	3.2.4	59.84121696		Pictures/IA75_G15.bmp	Pictures/IA75_G15.bmp	Pictures/IA75.bmp	"Take a chance!"""""	1	risk					6	0	6	0	0	0	0	14													2239.756279	None	2239.756279	None	2239.756279	None	left	1.640522702	2239.756279	None	2239.756279	None	2239.756279	None	return	2.824313942	2239.756279	None	2242.6472	None	2244.652492	2246.173165	2246.156448	None	2247.660406	None	1	2249.665693	None	2249.665693	None	2249.665693	None	2251.904925	None	2251.904925	2252.907561	2254.010475	None	2254.010475	None	None	2254.010475	None	None	None	None	None	2.155125016														109	1	18	1	2019_Dec_06_1209	Test	3.2.4	59.84121696		Pictures/IA100_G80.bmp	Pictures/IA100_G80.bmp	Pictures/IA100.bmp	"Why not gamble?"""""	1	risk					6	0	6	0	0	1	1	18																															2256.015751	None	2258.037748	2259.558425	2259.541725	None	2261.095806	None	1	2263.067675	None	2263.067675	None	2263.067675	None	2263.452024	None	2263.452024	2264.454662	2265.55758	None	2265.55758	None	right	2265.55758	None	None	None	2267.211929	None	0.297140093	1.607224159													109	1	18	1	2019_Dec_06_1209	Test	3.2.4	59.84121696		Pictures/IA25_L5.bmp	Pictures/IA25_L5.bmp	Pictures/IA25.bmp	"It would be smarter to choose the safe option."""""	0	safe					6	0	6	0	0	2	2	3																															2267.562853	None	2269.584845	2271.10551	2271.08882	None	2272.609473	None	1	2274.614762	None	2274.614762	None	2274.614762	None	2275.433583	None	2275.433583	2276.436222	2277.555843	None	2277.555843	None	left	2277.555843	None	2279.193514	None	None	None	0.678062345	1.600964456													109	1	18	1	2019_Dec_06_1209	Test	3.2.4	59.84121696		Pictures/IA25_G5.bmp	Pictures/IA25_G5.bmp	Pictures/IA25.bmp	"Let's stay with the certain option."""""	0	safe					6	0	6	0	0	3	3	4																															2279.577843	None	2281.599837	2283.120516	2283.103792	None	2284.641185	None	1	2286.629756	None	2286.629756	None	2286.629756	None	2288.718595	None	2288.718595	2289.721234	2290.840856	None	2290.840856	None	left	2290.840856	None	2291.158356	2292.829424	None	None	1.967057612	0.267944515													109	1	18	1	2019_Dec_06_1209	Test	3.2.4	59.84121696		Pictures/IA75_G45.bmp	Pictures/IA75_G45.bmp	Pictures/IA75.bmp	"Don't gamble for this one."""""	0	safe					6	0	6	0	0	4	4	13																															2292.846122	None	2294.868118	2296.372092	2296.355379	None	2297.909467	None	1	2299.898052	None	2299.898052	None	2299.898052	None	2300.365938	None	2300.365938	2301.368576	2302.488198	None	2302.488198	None	left	2302.488198	None	2302.805699	2304.476766	None	None	0.354775037	0.268619087													109	1	18	1	2019_Dec_06_1209	Test	3.2.4	59.84121696		Pictures/IA50_G20.bmp	Pictures/IA50_G20.bmp	Pictures/IA50.bmp	"Let's venture and take a risk!"""""	1	risk					6	0	6	0	0	5	5	5																															2304.493487	None	2306.515484	2308.019433	2308.002739	None	2309.54012	None	1	2311.545411	None	2311.545411	None	2311.545411	None	2312.56476	None	2312.56476	2313.567394	2314.670307	None	2314.670307	None	left	2314.670307	None	2315.873461	None	None	None	0.907404381	1.166491654													109	1	18	1	2019_Dec_06_1209	Test	3.2.4	59.84121696		Pictures/IA100_L60.bmp	Pictures/IA100_L60.bmp	Pictures/IA100.bmp	"You'd have a lot to lose"	0	safe					6	0	6	0	0	6	6	8																															2316.692298	None	2318.714302	2320.234964	2320.218254	None	2321.755637	None	2	2323.744204	None	2323.744204	None	2323.744204	None	None	None	None	None	2324.91396	None	2324.91396	None	left	2324.91396	None	2325.231467	2326.902538	None	None	0.964600951	0.274857728													109	1	18	1	2019_Dec_06_1209	Test	3.2.4	59.84121696		Pictures/IA25_G10.bmp	Pictures/IA25_G10.bmp	Pictures/IA25.bmp	"What's life without a little risk?"""""	1	risk					6	0	6	0	0	7	7	15																															2326.91923	None	2328.941227	2330.461897	2330.445204	None	2331.965864	None	1	2333.971155	None	2333.971155	None	2333.971155	None	2335.625516	None	2335.625516	2336.628157	2337.731066	None	2337.731066	None	left	2337.731066	None	2338.466321	2339.736333	None	None	1.529657679	0.697739435													109	1	18	1	2019_Dec_06_1209	Test	3.2.4	59.84121696		Pictures/IA80_40_G95p.bmp	Pictures/IA80_40_G95p.bmp	Pictures/IA80.bmp	"Think of the payoff"	1	risk					6	0	6	0	0	8	8	10																															2339.753055	None	2341.775051	2343.295721	2343.279006	None	2344.833109	None	2	2346.804979	None	2346.804979	None	2346.804979	None	None	None	None	None	2347.423256	None	2347.423256	None	left	2347.423256	None	2347.774179	2349.411834	None	None	0.455841187	0.309552515													109	1	18	1	2019_Dec_06_1209	Test	3.2.4	59.84121696		Pictures/IA100_L20.bmp	Pictures/IA100_L20.bmp	Pictures/IA100.bmp	"Try to win as much money as you can"	1	risk					6	0	6	0	0	9	9	19																															2349.428536	None	2351.450531	2352.971205	2352.954513	None	2354.491877	None	1	2356.480466	None	2356.480466	None	2356.480466	None	2357.800608	None	2357.800608	2358.803245	2359.906158	None	2359.906158	None	right	2359.906158	None	None	None	2361.075897	None	1.172351264	1.122648183													109	1	18	1	2019_Dec_06_1209	Test	3.2.4	59.84121696		Pictures/IA100_L80.bmp	Pictures/IA100_L80.bmp	Pictures/IA100.bmp	"Go all in!"""""	1	risk					6	0	6	0	0	10	10	17																															2361.928136	None	2363.950131	2365.470805	2365.454109	None	2366.95806	None	1	2368.980064	None	2368.980064	None	2368.980064	None	2369.765468	None	2369.765468	2370.768103	2371.871016	None	2371.871016	None	left	2371.871016	None	2372.405743	2373.876282	None	None	0.704749309	0.485800935													109	1	18	1	2019_Dec_06_1209	Test	3.2.4	59.84121696		Pictures/IA110_55_G95p.bmp	Pictures/IA110_55_G95p.bmp	Pictures/IA110.bmp	"Take a chance!"""""	1	risk					6	0	6	0	0	11	11	9																															2373.893005	None	2375.915002	2377.435671	2377.418957	None	2378.939608	None	1	2380.944923	None	2380.944923	None	2380.944923	None	2382.131375	None	2382.131375	2383.134012	2384.236921	None	2384.236921	None	left	2384.236921	None	2385.557062	None	None	None	1.091891729	1.279882577													109	1	18	1	2019_Dec_06_1209	Test	3.2.4	59.84121696		Pictures/IA50_L20.bmp	Pictures/IA50_L20.bmp	Pictures/IA50.bmp	"Certainty is boring"	1	risk					6	0	6	0	0	12	12	1																															2386.242208	None	2388.264204	2389.784875	2389.768162	None	2391.272133	None	1	2393.294114	None	2393.294114	None	2393.294114	None	2393.895708	None	2393.895708	2394.898346	2396.001261	None	2396.001261	None	right	2396.001261	None	None	None	2396.31876	2397.989826	0.486693556	0.2675361													109	1	18	1	2019_Dec_06_1209	Test	3.2.4	59.84121696		Pictures/IA75_L45.bmp	Pictures/IA75_L45.bmp	Pictures/IA75.bmp	"Don't gamble for this one"	0	safe					6	0	6	0	0	13	13	2																															2398.006528	None	2400.028523	2401.549207	2401.532501	None	2403.053163	None	1	2405.05841	None	2405.05841	None	2405.05841	None	2406.361881	None	2406.361881	2407.364515	2408.467429	None	2408.467429	None	left	2408.467429	None	2409.002176	2410.472716	None	None	1.17041348	0.489383156													109	1	18	1	2019_Dec_06_1209	Test	3.2.4	59.84121696		Pictures/IA20_10_G95p.bmp	Pictures/IA20_10_G95p.bmp	Pictures/IA20.bmp	"Take a leap"	1	risk					6	0	6	0	0	14	14	16																															2410.489418	None	2412.511412	2414.032083	2414.015388	None	2415.536047	None	1	2417.541335	None	2417.541335	None	2417.541335	None	2420.398862	None	2420.398862	2421.401503	2422.504413	None	2422.504413	None	left	2422.504413	None	2424.192199	None	None	None	2.719482649	1.644389566													109	1	18	1	2019_Dec_06_1209	Test	3.2.4	59.84121696		Pictures/IA40_20_L95p.bmp	Pictures/IA40_20_L95p.bmp	Pictures/IA40.bmp	"Trust me"	1	risk					6	0	6	0	0	15	15	6																															2424.50969	None	2426.531685	2428.05236	2428.035664	None	2429.539612	None	1	2431.561623	None	2431.561623	None	2431.561623	None	2432.313588	None	2432.313588	2433.316225	2434.419137	None	2434.419137	None	right	2434.419137	None	None	None	2435.05415	2436.424415	0.65920258	0.585662707													109	1	18	1	2019_Dec_06_1209	Test	3.2.4	59.84121696		Pictures/IA25_G15.bmp	Pictures/IA25_G15.bmp	Pictures/IA25.bmp	"I think you should take a gamble."""""	1	risk					6	0	6	0	0	16	16	12																															2436.441137	None	2438.463131	2439.983804	2439.967092	None	2441.48777	None	1	2443.493055	None	2443.493055	None	2443.493055	None	2444.997017	None	2444.997017	2445.999653	2447.102566	None	2447.102566	None	right	2447.102566	None	None	None	2447.787699	2449.091121	1.375760997	0.638241948													109	1	18	1	2019_Dec_06_1209	Test	3.2.4	59.84121696		Pictures/IA100_L40.bmp	Pictures/IA100_L40.bmp	Pictures/IA100.bmp	"Think of the payoff"	1	risk					6	0	6	0	0	17	17	11																															2449.107844	None	2451.12984	2452.650513	2452.633795	None	2454.171187	None	1	2456.159755	None	2456.159755	None	2456.159755	None	2458.46584	None	2458.46584	2459.468478	2460.571388	None	2460.571388	None	left	2460.571388	None	2461.490469	2462.559953	None	None	2.205053418	0.873420642													109	1	18	1	2019_Dec_06_1209	Test	3.2.4	59.84121696		Pictures/IA25_L10.bmp	Pictures/IA25_L10.bmp	Pictures/IA25.bmp	"Dont be afraid to take the risk!"""""	1	risk					6	0	6	0	0	18	18	0																															2462.576654	None	2464.598657	2466.119321	2466.102633	None	2467.623284	None	1	2469.628578	None	2469.628578	None	2469.628578	None	2470.347131	None	2470.347131	2471.349768	2472.452682	None	2472.452682	None	right	2472.452682	None	None	None	2473.772828	None	0.616226971	1.272125763													109	1	18	1	2019_Dec_06_1209	Test	3.2.4	59.84121696		Pictures/IA40_20_G95p.bmp	Pictures/IA40_20_G95p.bmp	Pictures/IA40.bmp	"Hold back"	0	safe					6	0	6	0	0	19	19	7																															2474.457969	None	2476.479966	2478.000637	2477.983918	None	2479.521313	None	1	2481.509878	None	2481.509878	None	2481.509878	None	2483.080698	None	2483.080698	2484.083329	2485.202951	None	2485.202951	None	left	2485.202951	None	2485.487033	2487.19152	None	None	1.422936021	0.241855429													109	1	18	1	2019_Dec_06_1209	Test	3.2.4	59.84121696		Pictures/IA110_55_G95p.bmp	Pictures/IA110_55_G95p.bmp	Pictures/IA110.bmp	"Take a chance!"""""	1	risk					7	0	7	0	0	0	0	6													2489.664713	None	2489.664713	None	2489.664713	None	left	2.956089387	2489.664713	None	2489.664713	None	2489.664713	None	return	4.019875154	2489.664713	None	2493.742114	None	2495.747385	2497.26806	2497.251363	None	2498.738611	None	1	2500.760599	None	2500.760599	None	2500.760599	None	2501.562711	None	2501.562711	2502.565352	2503.668262	None	2503.668262	None	left	2503.668262	None	2504.87144	None	None	None	0.708225763	1.160544643													109	1	18	1	2019_Dec_06_1209	Test	3.2.4	59.84121696		Pictures/IA75_G30.bmp	Pictures/IA75_G30.bmp	Pictures/IA75.bmp	"Be bold"	1	risk					7	0	7	0	0	1	1	10																															2505.673545	None	2507.695537	2509.216214	2509.199515	None	2510.753593	None	1	2512.725457	None	2512.725457	None	2512.725457	None	2513.460729	None	2513.460729	2514.463366	2515.566277	None	2515.566277	None	right	2515.566277	None	None	None	2517.254055	None	0.639358272	1.638529254													109	1	18	1	2019_Dec_06_1209	Test	3.2.4	59.84121696		Pictures/IA100_L40.bmp	Pictures/IA100_L40.bmp	Pictures/IA100.bmp	"Think of the payoff"	1	risk					7	0	7	0	0	2	2	12																															2517.571553	None	2519.593553	2521.114227	2521.097527	None	2522.601478	None	1	2524.623486	None	2524.623486	None	2524.623486	None	2524.95765	None	2524.95765	2525.960328	2527.063237	None	2527.063237	None	right	2527.063237	None	None	None	2529.068526	None	0.229338156	1.957577107													109	1	18	1	2019_Dec_06_1209	Test	3.2.4	59.84121696		Pictures/IA25_L20.bmp	Pictures/IA25_L20.bmp	Pictures/IA25.bmp	"Don't be tempted to gamble."""""	0	safe					7	0	7	0	0	3	3	19																															2529.085227	None	2531.107221	2532.611183	2532.594492	None	2534.14858	None	1	2536.137144	None	2536.137144	None	2536.137144	None	2537.323602	None	2537.323602	2538.326239	2539.445863	None	2539.445863	None	left	2539.445863	None	2540.097575	2541.434434	None	None	1.083662739	0.606955409													109	1	18	1	2019_Dec_06_1209	Test	3.2.4	59.84121696		Pictures/IA40_20_L95p.bmp	Pictures/IA40_20_L95p.bmp	Pictures/IA40.bmp	"Trust me"	1	risk					7	0	7	0	0	4	4	16																															2541.451153	None	2543.473147	2544.993818	2544.977106	None	2546.514494	None	2	2548.503065	None	2548.503065	None	2548.503065	None	None	None	None	None	2548.954257	None	2548.954257	None	right	2548.954257	None	None	None	2549.138073	2550.942827	0.293745856	0.146546743													109	1	18	1	2019_Dec_06_1209	Test	3.2.4	59.84121696		Pictures/IA80_40_G95p.bmp	Pictures/IA80_40_G95p.bmp	Pictures/IA80.bmp	"Think of the payoff"	1	risk					7	0	7	0	0	5	5	15																															2550.959527	None	2552.981523	2554.502198	2554.4855	None	2556.006127	None	1	2558.01145	None	2558.01145	None	2558.01145	None	2558.679882	None	2558.679882	2559.682519	2560.818853	None	2560.818853	None	left	2560.818853	None	2562.03873	None	None	None	0.553369731	1.177941315													109	1	18	1	2019_Dec_06_1209	Test	3.2.4	59.84121696		Pictures/IA50_G40.bmp	Pictures/IA50_G40.bmp	Pictures/IA50.bmp	"It would probably be best to play it safe."""""	0	safe					7	0	7	0	0	6	6	13																															2562.824135	None	2564.846129	2566.3668	2566.350084	None	2567.887474	None	1	2569.876041	None	2569.876041	None	2569.876041	None	2570.176845	None	2570.176845	2571.179495	2572.282391	None	2572.282391	None	left	2572.282391	None	2572.817119	2574.287659	None	None	0.160767143	0.498404343													109	1	18	1	2019_Dec_06_1209	Test	3.2.4	59.84121696		Pictures/IA75_L60.bmp	Pictures/IA75_L60.bmp	Pictures/IA75.bmp	"Why not take the gamble?"""""	1	risk					7	0	7	0	0	7	7	7																															2574.304384	None	2576.326377	2577.84705	2577.830336	None	2579.351014	None	1	2581.356301	None	2581.356301	None	2581.356301	None	2581.723921	None	2581.723921	2582.726562	2583.879605	None	2583.879605	None	left	2583.879605	None	2585.015939	None	None	None	0.264523767	1.101191222													109	1	18	1	2019_Dec_06_1209	Test	3.2.4	59.84121696		Pictures/IA100_L20.bmp	Pictures/IA100_L20.bmp	Pictures/IA100.bmp	"Try to win as much money as you can"	1	risk					7	0	7	0	0	8	8	11																															2585.884897	None	2587.906879	2589.427552	2589.410859	None	2590.948231	None	1	2592.936819	None	2592.936819	None	2592.936819	None	2594.089852	None	2594.089852	2595.092488	2596.195414	None	2596.195414	None	right	2596.195414	None	None	None	2597.582382	None	1.003981461	1.353382443													109	1	18	1	2019_Dec_06_1209	Test	3.2.4	59.84121696		Pictures/IA25_G20.bmp	Pictures/IA25_G20.bmp	Pictures/IA25.bmp	"I wouldn't gamble for this one. """""	0	safe					7	0	7	0	0	9	9	18																															2598.200667	None	2600.222661	2601.743335	2601.726641	None	2603.264015	None	1	2605.252597	None	2605.252597	None	2605.252597	None	2605.887601	None	2605.887601	2606.890239	2607.993153	None	2607.993153	None	left	2607.993153	None	2609.497099	None	None	None	0.512216575	1.459654492													109	1	18	1	2019_Dec_06_1209	Test	3.2.4	59.84121696		Pictures/IA50_G10.bmp	Pictures/IA50_G10.bmp	Pictures/IA50.bmp	"Go with the safe option here!"""""	0	safe					7	0	7	0	0	10	10	1																															2610.01513	None	2612.037126	2613.5578	2613.541106	None	2615.078472	None	1	2617.067062	None	2617.067062	None	2617.067062	None	2617.518246	None	2617.518246	2618.520885	2619.623798	None	2619.623798	None	left	2619.623798	None	2620.27551	2621.612365	None	None	0.345743323	0.60501091													109	1	18	1	2019_Dec_06_1209	Test	3.2.4	59.84121696		Pictures/IA50_L20.bmp	Pictures/IA50_L20.bmp	Pictures/IA50.bmp	"Certainty is boring"	1	risk					7	0	7	0	0	11	11	9																															2621.629064	None	2623.651056	2625.171733	2625.155037	None	2626.675698	None	1	2628.680984	None	2628.680984	None	2628.680984	None	2629.783899	None	2629.783899	2630.78654	2631.906158	None	2631.906158	None	right	2631.906158	None	None	None	2632.942208	None	0.987834052	1.002645821													109	1	18	1	2019_Dec_06_1209	Test	3.2.4	59.84121696		Pictures/IA25_L15.bmp	Pictures/IA25_L15.bmp	Pictures/IA25.bmp	"There's not much on the line here"	1	risk					7	0	7	0	0	12	12	4																															2633.928138	None	2635.950135	2637.470806	2637.454115	None	2638.974769	None	1	2640.980058	None	2640.980058	None	2640.980058	None	2642.417186	None	2642.417186	2643.419824	2644.539447	None	2644.539447	None	right	2644.539447	None	None	None	2645.826167	None	1.296761456	1.241360633													109	1	18	1	2019_Dec_06_1209	Test	3.2.4	59.84121696		Pictures/IA100_G20.bmp	Pictures/IA100_G20.bmp	Pictures/IA100.bmp	"Go ahead and gamble!"""""	1	risk					7	0	7	0	0	13	13	2																															2646.544725	None	2648.566721	2650.087393	2650.070677	None	2651.591323	None	1	2653.596649	None	2653.596649	None	2653.596649	None	2654.047828	None	2654.047828	2655.050522	2656.153373	None	2656.153373	None	None	2656.153373	None	None	None	None	None	0.360166475														109	1	18	1	2019_Dec_06_1209	Test	3.2.4	59.84121696		Pictures/IA75_G60.bmp	Pictures/IA75_G60.bmp	Pictures/IA75.bmp	"Make it exciting"	1	risk					7	0	7	0	0	14	14	0																															2658.15865	None	2660.180654	2661.70132	2661.684621	None	2663.205284	None	1	2665.21057	None	2665.21057	None	2665.21057	None	2665.561502	None	2665.561502	2666.564135	2667.667054	None	2667.667054	None	right	2667.667054	None	None	None	2668.017973	2669.655609	0.226241525	0.305750564													109	1	18	1	2019_Dec_06_1209	Test	3.2.4	59.84121696		Pictures/IA75_L30.bmp	Pictures/IA75_L30.bmp	Pictures/IA75.bmp	"Hold back"	0	safe					7	0	7	0	0	15	15	17																															2669.672331	None	2671.694334	2673.215001	2673.198292	None	2674.735673	None	1	2676.724241	None	2676.724241	None	2676.724241	None	2677.543062	None	2677.543062	2678.545699	2679.648611	None	2679.648611	None	left	2679.648611	None	2680.049675	2681.653902	None	None	0.672583403	0.364185662													109	1	18	1	2019_Dec_06_1209	Test	3.2.4	59.84121696		Pictures/IA100_L80.bmp	Pictures/IA100_L80.bmp	Pictures/IA100.bmp	"Go all in!"""""	1	risk					7	0	7	0	0	16	16	3																															2681.670601	None	2683.692597	2685.213272	2685.196584	None	2686.717235	None	1	2688.722526	None	2688.722526	None	2688.722526	None	2689.223852	None	2689.223852	2690.226501	2691.329402	None	2691.329402	None	left	2691.329402	None	2692.16492	2693.334679	None	None	0.330286002	0.795403981													109	1	18	1	2019_Dec_06_1209	Test	3.2.4	59.84121696		Pictures/IA25_G10.bmp	Pictures/IA25_G10.bmp	Pictures/IA25.bmp	"What's life without a little risk?"""""	1	risk					7	0	7	0	0	17	17	8																															2693.351379	None	2695.373378	2696.894049	2696.877353	None	2698.398014	None	1	2700.403298	None	2700.403298	None	2700.403298	None	2701.08845	None	2701.08845	2702.091085	2703.210706	None	2703.210706	None	right	2703.210706	None	None	None	2703.695314	2705.215992	0.553510648	0.450097494													109	1	18	1	2019_Dec_06_1209	Test	3.2.4	59.84121696		Pictures/IA50_G20.bmp	Pictures/IA50_G20.bmp	Pictures/IA50.bmp	"Let's venture and take a risk!"""""	1	risk					7	0	7	0	0	18	18	5																															2705.232686	None	2707.254687	2708.775355	2708.75866	None	2710.279319	None	1	2712.28461	None	2712.28461	None	2712.28461	None	2712.568697	None	2712.568697	2713.571334	2714.674247	None	2714.674247	None	left	2714.674247	None	2716.077931	None	None	None	0.200210414	1.35455268													109	1	18	1	2019_Dec_06_1209	Test	3.2.4	59.84121696		Pictures/IA50_L40.bmp	Pictures/IA50_L40.bmp	Pictures/IA50.bmp	"That gamble doesn't sound too good"	0	safe					7	0	7	0	0	19	19	14																															2716.696238	None	2718.718231	2720.238918	2720.222188	None	2721.75958	None	1	2723.748145	None	2723.748145	None	2723.748145	None	2724.867729	None	2724.867729	2725.870397	2726.973311	None	2726.973311	None	left	2726.973311	None	2727.5916	2728.961887	None	None	0.97666744	0.575505758													109	1	18	1	2019_Dec_06_1209	Test	3.2.4	59.84121696		Pictures/IA25_L10.bmp	Pictures/IA25_L10.bmp	Pictures/IA25.bmp	"Dont be afraid to take the risk!"""""	1	risk					8	0	8	0	0	0	0	10													2731.852848	None	2731.852848	None	2731.852848	None	left	3.591955487	2731.852848	None	2731.852848	None	2731.852848	None	return	6.967616572	2731.852848	None	2738.871334	None	2740.876607	2742.397278	2742.380584	None	2743.867834	None	2	2745.889825	None	2745.889825	None	2745.889825	None	None	None	None	None	2747.443914	None	2747.443914	None	left	2747.443914	None	2748.312878	2749.449205	None	None	1.378987451	0.824901084													109	1	18	1	2019_Dec_06_1209	Test	3.2.4	59.84121696		Pictures/IA50_L30.bmp	Pictures/IA50_L30.bmp	Pictures/IA50.bmp	"Take a leap"	1	risk					8	0	8	0	0	1	1	1																															2749.465905	None	2751.487899	2753.008573	2752.991878	None	2754.529246	None	1	2756.517836	None	2756.517836	None	2756.517836	None	2757.771137	None	2757.771137	2758.773774	2759.893399	None	2759.893399	None	right	2759.893399	None	None	None	2761.414066	None	1.118980876	1.479417944													109	1	18	1	2019_Dec_06_1209	Test	3.2.4	59.84121696		Pictures/IA75_G45.bmp	Pictures/IA75_G45.bmp	Pictures/IA75.bmp	"Don't gamble for this one."""""	0	safe					8	0	8	0	0	2	2	18																															2761.89867	None	2763.92066	2765.441334	2765.424641	None	2766.962008	None	1	2768.950597	None	2768.950597	None	2768.950597	None	2769.301518	None	2769.301518	2770.304156	2771.440493	None	2771.440493	None	left	2771.440493	None	2771.490617	2773.429058	None	None	0.238228924	0.004328765													109	1	18	1	2019_Dec_06_1209	Test	3.2.4	59.84121696		Pictures/IA50_L20.bmp	Pictures/IA50_L20.bmp	Pictures/IA50.bmp	"Certainty is boring"	1	risk					8	0	8	0	0	3	3	16																															2773.445759	None	2775.467756	2776.988425	2776.971729	None	2778.47568	None	1	2780.497688	None	2780.497688	None	2780.497688	None	2781.349933	None	2781.349933	2782.35257	2783.4555	None	2783.4555	None	right	2783.4555	None	None	None	2785.159959	None	0.739139181	1.669298303													109	1	18	1	2019_Dec_06_1209	Test	3.2.4	59.84121696		Pictures/IA50_L40.bmp	Pictures/IA50_L40.bmp	Pictures/IA50.bmp	"That gamble doesn't sound too good"	0	safe					8	0	8	0	0	4	4	14																															2785.477466	None	2787.499458	2789.020128	2789.003435	None	2790.507382	None	1	2792.529396	None	2792.529396	None	2792.529396	None	2793.181116	None	2793.181116	2794.183757	2795.286658	None	2795.286658	None	left	2795.286658	None	2795.787962	2797.291936	None	None	0.507421073	0.454147806													109	1	18	1	2019_Dec_06_1209	Test	3.2.4	59.84121696		Pictures/IA40_20_G95p.bmp	Pictures/IA40_20_G95p.bmp	Pictures/IA40.bmp	"Hold back"	0	safe					8	0	8	0	0	5	5	9																															2797.308637	None	2799.330633	2800.851304	2800.834613	None	2802.355267	None	1	2804.360557	None	2804.360557	None	2804.360557	None	2805.262948	None	2805.262948	2806.2656	2807.368494	None	2807.368494	None	left	2807.368494	None	2807.752835	2809.357061	None	None	0.756256483	0.340327907													109	1	18	1	2019_Dec_06_1209	Test	3.2.4	59.84121696		Pictures/IA80_40_L95p.bmp	Pictures/IA80_40_L95p.bmp	Pictures/IA80.bmp	"Let's stay with the certain option."""""	0	safe					8	0	8	0	0	6	6	0																															2809.373762	None	2811.395757	2812.916433	2812.899735	None	2814.420362	None	2	2816.425685	None	2816.425685	None	2816.425685	None	None	None	None	None	2817.528598	None	2817.528598	None	right	2817.528598	None	None	None	2817.812679	2819.517158	0.923138794	0.244205714													109	1	18	1	2019_Dec_06_1209	Test	3.2.4	59.84121696		Pictures/IA100_L80.bmp	Pictures/IA100_L80.bmp	Pictures/IA100.bmp	"Go all in!"""""	1	risk					8	0	8	0	0	7	7	13																															2819.533878	None	2821.555879	2823.076545	2823.059835	None	2824.563805	None	1	2826.585789	None	2826.585789	None	2826.585789	None	2827.488173	None	2827.488173	2828.49081	2829.593724	None	2829.593724	None	left	2829.593724	None	2829.894502	2831.599003	None	None	0.827027172	0.251084771													109	1	18	1	2019_Dec_06_1209	Test	3.2.4	59.84121696		Pictures/IA100_G60.bmp	Pictures/IA100_G60.bmp	Pictures/IA100.bmp	"Be cautious"	0	safe					8	0	8	0	0	8	8	4																															2831.615702	None	2833.637699	2835.15837	2835.141675	None	2836.662304	None	1	2838.667627	None	2838.667627	None	2838.667627	None	2840.088042	None	2840.088042	2841.090678	2842.193603	None	2842.193603	None	left	2842.193603	None	2842.494369	2844.198881	None	None	1.28918273	0.267187819													109	1	18	1	2019_Dec_06_1209	Test	3.2.4	59.84121696		Pictures/IA110_55_L95p.bmp	Pictures/IA110_55_L95p.bmp	Pictures/IA110.bmp	"Trust me"	1	risk					8	0	8	0	0	9	9	11																															2844.21557	None	2846.237569	2847.758242	2847.741541	None	2849.262206	None	2	2851.267493	None	2851.267493	None	2851.267493	None	None	None	None	None	2852.00276	None	2852.00276	None	right	2852.00276	None	None	None	2852.336983	2854.008049	0.577329536	0.298047448													109	1	18	1	2019_Dec_06_1209	Test	3.2.4	59.84121696		Pictures/IA75_L60.bmp	Pictures/IA75_L60.bmp	Pictures/IA75.bmp	"Why not take the gamble?"""""	1	risk					8	0	8	0	0	10	10	5																															2854.024749	None	2856.046758	2857.567418	2857.550723	None	2859.054676	None	1	2861.076682	None	2861.076682	None	2861.076682	None	2861.945625	None	2861.945625	2862.948262	2864.051175	None	2864.051175	None	left	2864.051175	None	2865.454846	None	None	None	0.768123365	1.361628789													109	1	18	1	2019_Dec_06_1209	Test	3.2.4	59.84121696		Pictures/IA50_G10.bmp	Pictures/IA50_G10.bmp	Pictures/IA50.bmp	"Go with the safe option here!"""""	0	safe					8	0	8	0	0	11	11	6																															2866.073164	None	2868.095167	2869.615836	2869.599138	None	2871.103088	None	1	2873.125097	None	2873.125097	None	2873.125097	None	2874.395107	None	2874.395107	2875.397746	2876.500659	None	2876.500659	None	left	2876.500659	None	2877.052107	2878.489214	None	None	1.143714535	0.512138476													109	1	18	1	2019_Dec_06_1209	Test	3.2.4	59.84121696		Pictures/IA50_L10.bmp	Pictures/IA50_L10.bmp	Pictures/IA50.bmp	"Play it safe"	0	safe					8	0	8	0	0	12	12	2																															2878.505937	None	2880.527932	2882.031884	2882.015192	None	2883.55257	None	1	2885.557856	None	2885.557856	None	2885.557856	None	2887.362599	None	2887.362599	2888.365238	2889.484861	None	2889.484861	None	left	2889.484861	None	2889.919344	2891.490139	None	None	1.702950579	0.399947633													109	1	18	1	2019_Dec_06_1209	Test	3.2.4	59.84121696		Pictures/IA25_L20.bmp	Pictures/IA25_L20.bmp	Pictures/IA25.bmp	"Don't be tempted to gamble."""""	0	safe					8	0	8	0	0	13	13	19																															2891.50686	None	2893.528856	2895.04957	2895.032876	None	2896.553502	None	1	2898.558781	None	2898.558781	None	2898.558781	None	2899.143656	None	2899.143656	2900.146291	2901.282631	None	2901.282631	None	left	2901.282631	None	2901.700389	2903.271181	None	None	0.478037408	0.370185815													109	1	18	1	2019_Dec_06_1209	Test	3.2.4	59.84121696		Pictures/IA50_G40.bmp	Pictures/IA50_G40.bmp	Pictures/IA50.bmp	"It would probably be best to play it safe."""""	0	safe					8	0	8	0	0	14	14	12																															2903.287912	None	2905.309917	2906.830572	2906.81386	None	2908.351248	None	1	2910.339814	None	2910.339814	None	2910.339814	None	2910.824422	None	2910.824422	2911.82706	2912.929974	None	2912.929974	None	left	2912.929974	None	2913.381158	2914.918551	None	None	0.344997932	0.402833866													109	1	18	1	2019_Dec_06_1209	Test	3.2.4	59.84121696		Pictures/IA25_G20.bmp	Pictures/IA25_G20.bmp	Pictures/IA25.bmp	"I wouldn't gamble for this one. """""	0	safe					8	0	8	0	0	15	15	15																															2914.93525	None	2916.957246	2918.461228	2918.444552	None	2919.981896	None	1	2921.987186	None	2921.987186	None	2921.987186	None	2922.638862	None	2922.638862	2923.641536	2924.761159	None	2924.761159	None	left	2924.761159	None	2925.997743	None	None	None	0.537627443	1.195658004													109	1	18	1	2019_Dec_06_1209	Test	3.2.4	59.84121696		Pictures/IA110_55_G95p.bmp	Pictures/IA110_55_G95p.bmp	Pictures/IA110.bmp	"Take a chance!"""""	1	risk					8	0	8	0	0	16	16	3																															2926.783139	None	2928.805135	2930.325814	2930.309112	None	2931.846485	None	2	2933.835074	None	2933.835074	None	2933.835074	None	None	None	None	None	2935.13846	None	2935.13846	None	left	2935.13846	None	2936.492055	None	None	None	1.153744372	1.314342821													109	1	18	1	2019_Dec_06_1209	Test	3.2.4	59.84121696		Pictures/IA25_L15.bmp	Pictures/IA25_L15.bmp	Pictures/IA25.bmp	"There's not much on the line here"	1	risk					8	0	8	0	0	17	17	17																															2937.143772	None	2939.165766	2940.686446	2940.669746	None	2942.207117	None	1	2944.195704	None	2944.195704	None	2944.195704	None	2945.582691	None	2945.582691	2946.585329	2947.688241	None	2947.688241	None	right	2947.688241	None	None	None	2948.573902	2949.676796	1.249107309	0.836571779													109	1	18	1	2019_Dec_06_1209	Test	3.2.4	59.84121696		Pictures/IA75_L30.bmp	Pictures/IA75_L30.bmp	Pictures/IA75.bmp	"Hold back"	0	safe					8	0	8	0	0	18	18	8																															2949.693526	None	2951.715504	2953.236178	2953.219486	None	2954.723428	None	1	2956.74544	None	2956.74544	None	2956.74544	None	2957.447276	None	2957.447276	2958.449913	2959.552826	None	2959.552826	None	left	2959.552826	None	2961.006652	None	None	None	0.555377562	1.419970436													109	1	18	1	2019_Dec_06_1209	Test	3.2.4	59.84121696		Pictures/IA75_G60.bmp	Pictures/IA75_G60.bmp	Pictures/IA75.bmp	"Make it exciting"	1	risk					8	0	8	0	0	19	19	7																															2961.558115	None	2963.580112	2965.100788	2965.084068	None	2966.621461	None	1	2968.610026	None	2968.610026	None	2968.610026	None	2969.178202	None	2969.178202	2970.180835	2971.283738	None	2971.283738	None	left	2971.283738	None	2972.152702	2973.289027	None	None	0.442788214	0.825065683													109	1	18	1	2019_Dec_06_1209	Test	3.2.4	59.84121696		Pictures/IA75_L30.bmp	Pictures/IA75_L30.bmp	Pictures/IA75.bmp	"Hold back"	0	safe					9	0	9	0	0	0	0	2													2975.427991	None	2975.427991	None	2975.427991	None	left	2.968813989	2975.427991	None	2975.427991	None	2975.427991	None	return	3.816597403	2975.427991	None	2979.304876	None	2981.310168	2982.830839	2982.814123	None	2984.334793	None	1	2986.32338	None	2986.32338	None	2986.32338	None	2987.309311	None	2987.309311	2988.311947	2989.41486	None	2989.41486	None	left	2989.41486	None	2991.035792	None	None	None	0.849431803	1.573945943													109	1	18	1	2019_Dec_06_1209	Test	3.2.4	59.84121696		Pictures/IA75_L15.bmp	Pictures/IA75_L15.bmp	Pictures/IA75.bmp	"Trust me"	1	risk					9	0	9	0	0	1	1	1																															2991.420138	None	2993.442135	2994.962808	2994.94609	None	2996.483483	None	1	2998.47205	None	2998.47205	None	2998.47205	None	2998.940001	None	2998.940001	2999.94263	3001.062219	None	3001.062219	None	right	3001.062219	None	None	None	3001.396447	3003.050786	0.364764762	0.286601236													109	1	18	1	2019_Dec_06_1209	Test	3.2.4	59.84121696		Pictures/IA100_G60.bmp	Pictures/IA100_G60.bmp	Pictures/IA100.bmp	"Be cautious"	0	safe					9	0	9	0	0	2	2	4																															3003.067498	None	3005.089499	3006.610156	3006.593466	None	3008.147556	None	1	3010.119419	None	3010.119419	None	3010.119419	None	3010.47033	None	3010.47033	3011.472967	3012.59256	None	3012.59256	None	left	3012.59256	None	3012.843249	3014.581167	None	None	0.22939448	0.204246901													109	1	18	1	2019_Dec_06_1209	Test	3.2.4	59.84121696		Pictures/IA75_G30.bmp	Pictures/IA75_G30.bmp	Pictures/IA75.bmp	"Be bold"	1	risk					9	0	9	0	0	3	3	11																															3014.597882	None	3016.619876	3018.140551	3018.123833	None	3019.661226	None	1	3021.649791	None	3021.649791	None	3021.649791	None	3021.850317	None	3021.850317	3022.852956	3023.955869	None	3023.955869	None	left	3023.955869	None	3024.457196	3025.961156	None	None	0.107025996	0.464931755													109	1	18	1	2019_Dec_06_1209	Test	3.2.4	59.84121696		Pictures/IA110_55_G95p.bmp	Pictures/IA110_55_G95p.bmp	Pictures/IA110.bmp	"Take a chance!"""""	1	risk					9	0	9	0	0	4	4	19																															3025.977857	None	3027.999855	3029.520527	3029.503831	None	3031.00778	None	1	3033.029791	None	3033.029791	None	3033.029791	None	3034.533751	None	3034.533751	3035.536389	3036.6393	None	3036.6393	None	left	3036.6393	None	3037.374557	3038.644569	None	None	1.407021893	0.685509183													109	1	18	1	2019_Dec_06_1209	Test	3.2.4	59.84121696		Pictures/IA100_G80.bmp	Pictures/IA100_G80.bmp	Pictures/IA100.bmp	"Why not gamble?"""""	1	risk					9	0	9	0	0	5	5	15																															3038.661291	None	3040.683292	3042.203961	3042.187258	None	3043.707923	None	1	3045.713213	None	3045.713213	None	3045.713213	None	3046.014002	None	3046.014002	3047.016641	3048.119554	None	3048.119554	None	right	3048.119554	None	None	None	3048.336788	3050.10811	0.211598315	0.173250279													109	1	18	1	2019_Dec_06_1209	Test	3.2.4	59.84121696		Pictures/IA80_40_L95p.bmp	Pictures/IA80_40_L95p.bmp	Pictures/IA80.bmp	"Let's stay with the certain option."""""	0	safe					9	0	9	0	0	6	6	14																															3050.124833	None	3052.146828	3053.667503	3053.650785	None	3055.154756	None	1	3057.176744	None	3057.176744	None	3057.176744	None	3057.945398	None	3057.945398	3058.948072	3060.050984	None	3060.050984	None	right	3060.050984	None	None	None	3061.120476	None	0.64406374	1.025824108													109	1	18	1	2019_Dec_06_1209	Test	3.2.4	59.84121696		Pictures/IA100_L20.bmp	Pictures/IA100_L20.bmp	Pictures/IA100.bmp	"Try to win as much money as you can"	1	risk					9	0	9	0	0	7	7	10																															3062.072977	None	3064.094969	3065.615642	3065.598947	None	3067.119609	None	1	3069.124896	None	3069.124896	None	3069.124896	None	3069.793333	None	3069.793333	3070.795969	3071.898882	None	3071.898882	None	right	3071.898882	None	None	None	3072.383489	3073.887442	0.519916347	0.449918623													109	1	18	1	2019_Dec_06_1209	Test	3.2.4	59.84121696		Pictures/IA50_L20.bmp	Pictures/IA50_L20.bmp	Pictures/IA50.bmp	"Certainty is boring"	1	risk					9	0	9	0	0	8	8	5																															3073.904161	None	3075.926158	3077.446829	3077.430115	None	3078.950795	None	1	3080.956083	None	3080.956083	None	3080.956083	None	3082.242805	None	3082.242805	3083.245443	3084.348354	None	3084.348354	None	right	3084.348354	None	None	None	3085.367703	None	1.184727429	0.984448071													109	1	18	1	2019_Dec_06_1209	Test	3.2.4	59.84121696		Pictures/IA75_G60.bmp	Pictures/IA75_G60.bmp	Pictures/IA75.bmp	"