Choice	Choice2	Amount	AdviceVar1	GambleAdviceNum	GambleAdviceType	practice.thisRepN	practice.thisTrialN	practice.thisN	practice.thisIndex	trials_2.thisRepN	trials_2.thisTrialN	trials_2.thisN	trials_2.thisIndex	trials.thisRepN	trials.thisTrialN	trials.thisN	trials.thisIndex	text.started	text.stopped	key_resp_4.keys	key_resp_4.rt	key_resp_4.started	key_resp_4.stopped	instructions.started	instructions.stopped	space.keys	space.rt	space.started	space.stopped	chooseInst.started	chooseInst.stopped	Ad1.started	Ad1.stopped	Ad2.started	Ad2.stopped	key_resp_3.keys	key_resp_3.rt	key_resp_3.started	key_resp_3.stopped	Ad1pic.started	Ad1pic.stopped	Ad2pic.started	Ad2pic.stopped	enter.keys	enter.rt	enter.started	enter.stopped	iSi.started	iSi.stopped	receiveMoneyPicture.started	receiveMoneyPicture.stopped	ISI2.started	ISI2.stopped	ChoicePic.started	ChoicePic.stopped	response.keys	response.started	response.stopped	yesNo.started	yesNo.stopped	ask.started	ask.stopped	getAdv.started	getAdv.stopped	textForCode.started	textForCode.stopped	blank.started	blank.stopped	ChoicePic2.started	ChoicePic2.stopped	resp.keys	resp.started	resp.stopped	checkL1.started	checkL1.stopped	checkR1.started	checkR1.stopped	resp.rt	EndPrac.started	EndPrac.stopped	key_resp.keys	key_resp.rt	key_resp.started	key_resp.stopped	response.rt	endText.started	endText.stopped	key_resp_2.keys	key_resp_2.rt	key_resp_2.started	key_resp_2.stopped	participant	session	age	gender (0=male	 1 = female	 2 = other)	date	expName	psychopyVersion	frameRate																		521.5288472	None	space	175.3137121	521.5288472	None																																																																					110	1	18	1	2019_Dec_06_1308	Test	3.2.4	59.83998513																										696.8733439	None	space	3.24921528	696.8733439	None																																																															110	1	18	1	2019_Dec_06_1308	Test	3.2.4	59.83998513																																700.7335174	None	700.7335174	None	700.7335174	None	left	7.445028669	700.7335174	None																																																					110	1	18	1	2019_Dec_06_1308	Test	3.2.4	59.83998513																																										700.7335174	None	700.7335174	None	return	12.35688606	700.7335174	None																																													110	1	18	1	2019_Dec_06_1308	Test	3.2.4	59.83998513		Pictures/IA50_G20.bmp	Pictures/IA50_G20.bmp	Pictures/IA50.bmp	"Let's venture and take a risk!"""""	1	risk	0	0	0	1																																							713.1495269	None	715.171555	716.6922217	716.6755129	None	718.2129064	None	None	720.2516061	None	720.2516061	None	720.2516061	None	None	None	None	None	723.3096628	None	723.3096628	None	None	723.3096628	None	None	None	None	None															110	1	18	1	2019_Dec_06_1308	Test	3.2.4	59.83998513		Pictures/IA100_G40.bmp	Pictures/IA100_G40.bmp	Pictures/IA100.bmp	"Try your luck and gamble!"""""	1	risk	0	1	1	5																																							725.3149396	None	727.3536523	728.8576094	728.8409	None	730.4117026	None	None	732.3668553	None	732.3668553	None	732.3668553	None	None	None	None	None	735.5084714	None	735.5084714	None	left	735.5084714	None	736.3272867	737.5137455	None	None	0.774085787														110	1	18	1	2019_Dec_06_1308	Test	3.2.4	59.83998513		Pictures/IA50_G30.bmp	Pictures/IA50_G30.bmp	Pictures/IA50.bmp	"I think you should gamble."""""	1	risk	0	2	2	2																																							737.5304563	None	739.5524817	741.0731435	741.0564334	None	742.6272196	None	None	744.5823723	None	744.5823723	None	744.5823723	None	None	None	None	None	747.7239862	None	747.7239862	None	right	747.7239862	None	None	None	747.9579299	749.7292604	0.198572592														110	1	18	1	2019_Dec_06_1308	Test	3.2.4	59.83998513		Pictures/IA50_G40.bmp	Pictures/IA50_G40.bmp	Pictures/IA50.bmp	"It would probably be best to play it safe."""""	0	safe	0	3	3	3																																							749.7459735	None	751.767968	753.2886399	753.2719317	None	754.8260332	None	None	756.7978901	None	756.7978901	None	756.7978901	None	None	None	None	None	759.90608	None	759.90608	None	right	759.90608	None	None	None	760.1901586	761.8946475	0.24847819														110	1	18	1	2019_Dec_06_1308	Test	3.2.4	59.83998513		Pictures/IA50_G10.bmp	Pictures/IA50_G10.bmp	Pictures/IA50.bmp	"Go with the safe option here!"""""	0	safe	0	4	4	0																																							761.9113587	None	763.9333594	765.4540264	765.4373205	None	766.9746653	None	None	768.9632778	None	768.9632778	None	768.9632778	None	None	None	None	None	772.0547565	None	772.0547565	None	left	772.0547565	None	772.5560732	774.0600333	None	None	0.451803633														110	1	18	1	2019_Dec_06_1308	Test	3.2.4	59.83998513		Pictures/IA100_G20.bmp	Pictures/IA100_G20.bmp	Pictures/IA100.bmp	"Go ahead and gamble!"""""	1	risk	0	5	5	4																																							774.0767455	None	776.0987404	777.6194124	777.6027017	None	779.1735102	None	None	781.128664	None	781.128664	None	781.128664	None	None	None	None	None	784.2201422	None	784.2201422	None	left	784.2201422	None	784.4875095	786.225421	None	None	0.222430317														110	1	18	1	2019_Dec_06_1308	Test	3.2.4	59.83998513																																																																																	786.2421343	None	space	32.13642496	786.2421343	None								110	1	18	1	2019_Dec_06_1308	Test	3.2.4	59.83998513		Pictures/IA40_20_L95p.bmp	Pictures/IA40_20_L95p.bmp	Pictures/IA40.bmp	"Trust me and gamble!"""""	1	risk					0	0	0	0	0	0	0	7													818.54391	None	818.54391	None	818.54391	None	left	7.226647961	818.54391	None	818.54391	None	818.54391	None	return	9.57842355	818.54391	None	828.1859799	None	830.2079764	831.7286514	831.7119397	None	833.2493259	None	2	835.2044817	None	835.2044817	None	835.2044817	None	None	None	None	None	838.2291133	None	838.2291133	None	right	838.2291133	None	None	None	838.5967439	840.2176801	0.333437474							2.870082871							110	1	18	1	2019_Dec_06_1308	Test	3.2.4	59.83998513		Pictures/IA75_G45.bmp	Pictures/IA75_G45.bmp	Pictures/IA75.bmp	"Don't gamble for this one."""""	0	safe					0	0	0	0	0	1	1	17																															840.2343968	None	842.2898094	843.7937718	843.7770614	None	845.3311629	None	2	847.2863108	None	847.2863108	None	847.2863108	None	None	None	None	None	847.9380275	None	847.9380275	None	right	847.9380275	None	None	None	848.5061875	849.92661	0.520526215							0.476252263							110	1	18	1	2019_Dec_06_1308	Test	3.2.4	59.83998513		Pictures/IA25_G15.bmp	Pictures/IA25_G15.bmp	Pictures/IA25.bmp	"I think you should take a gamble."""""	1	risk					0	0	0	0	0	2	2	16																															849.9433072	None	851.9987295	853.5026901	853.4859782	None	855.0400725	None	1	856.9952255	None	856.9952255	None	856.9952255	None	857.8808903	None	857.8808903	858.883529	859.9864414	None	859.9864414	None	right	859.9864414	None	None	None	860.4877577	861.9917228	0.464112236							0.759338993							110	1	18	1	2019_Dec_06_1308	Test	3.2.4	59.83998513		Pictures/IA100_L80.bmp	Pictures/IA100_L80.bmp	Pictures/IA100.bmp	"Go all in!"""""	1	risk					0	0	0	0	0	3	3	14																															862.00843	None	864.0304277	865.551105	865.5343921	None	867.105196	None	None	869.0603542	None	869.0603542	None	869.0603542	None	None	None	None	None	872.1351181	None	872.1351181	None	right	872.1351181	None	None	None	873.3884163	None	1.219434623														110	1	18	1	2019_Dec_06_1308	Test	3.2.4	59.83998513		Pictures/IA40_20_G95p.bmp	Pictures/IA40_20_G95p.bmp	Pictures/IA40.bmp	"Hold back"	0	safe					0	0	0	0	0	4	4	6																															874.1403994	None	876.1623933	877.6830656	877.6663575	None	879.2371629	None	1	881.1923209	None	881.1923209	None	881.1923209	None	882.128085	None	882.128085	883.1307676	884.2670866	None	884.2670866	None	left	884.2670866	None	884.5678754	886.2723631	None	None	0.263468871							0.802245649							110	1	18	1	2019_Dec_06_1308	Test	3.2.4	59.83998513		Pictures/IA100_L40.bmp	Pictures/IA100_L40.bmp	Pictures/IA100.bmp	"Think of the payoff"	1	risk					0	0	0	0	0	5	5	2																															886.2890752	None	888.3110729	889.8317513	889.8150829	None	891.3691336	None	1	893.3409983	None	893.3409983	None	893.3409983	None	893.8088935	None	893.8088935	894.8115314	895.914446	None	895.914446	None	right	895.914446	None	None	None	896.2319455	897.9030105	0.272096168							0.365563928							110	1	18	1	2019_Dec_06_1308	Test	3.2.4	59.83998513		Pictures/IA100_G80.bmp	Pictures/IA100_G80.bmp	Pictures/IA100.bmp	"Why not gamble?"""""	1	risk					0	0	0	0	0	6	6	8																															897.9197222	None	899.9417193	901.4623901	901.4456841	None	903.0164915	None	1	904.9716428	None	904.9716428	None	904.9716428	None	905.5230946	None	905.5230946	906.525734	907.6286432	None	907.6286432	None	right	907.6286432	None	None	None	907.9127211	909.6172089	0.237925127							0.462925902							110	1	18	1	2019_Dec_06_1308	Test	3.2.4	59.83998513		Pictures/IA75_L45.bmp	Pictures/IA75_L45.bmp	Pictures/IA75.bmp	"Don't gamble for this one"	0	safe					0	0	0	0	0	7	7	19																															909.6339219	None	911.655919	913.1598792	913.143172	None	914.7139768	None	1	916.6858417	None	916.6858417	None	916.6858417	None	917.1203178	None	917.1203178	918.1229625	919.2425398	None	919.2425398	None	left	919.2425398	None	919.610211	921.2478585	None	None	0.320017547							0.300722564							110	1	18	1	2019_Dec_06_1308	Test	3.2.4	59.83998513		Pictures/IA110_55_G95p.bmp	Pictures/IA110_55_G95p.bmp	Pictures/IA110.bmp	"Take a chance!"""""	1	risk					0	0	0	0	0	8	8	12																															921.2645713	None	923.3032771	924.8239589	924.8072391	None	926.3613337	None	1	928.3164906	None	928.3164906	None	928.3164906	None	928.8010968	None	928.8010968	929.8037342	930.9066476	None	930.9066476	None	right	930.9066476	None	None	None	931.2241456	932.8952149	0.271907402							0.398079236							110	1	18	1	2019_Dec_06_1308	Test	3.2.4	59.83998513		Pictures/IA50_G10.bmp	Pictures/IA50_G10.bmp	Pictures/IA50.bmp	"Go with the safe option here!"""""	0	safe					0	0	0	0	0	9	9	1																															932.9119326	None	934.9339231	936.454595	936.4378893	None	937.9418485	None	None	939.9638466	None	939.9638466	None	939.9638466	None	None	None	None	None	943.0553262	None	943.0553262	None	left	943.0553262	None	943.4897987	945.0606053	None	None	0.387234628														110	1	18	1	2019_Dec_06_1308	Test	3.2.4	59.83998513		Pictures/IA25_L10.bmp	Pictures/IA25_L10.bmp	Pictures/IA25.bmp	"Dont be afraid to take the risk!"""""	1	risk					0	0	0	0	0	10	10	5																															945.0773157	None	947.0993103	948.619989	948.6032765	None	950.1573697	None	None	952.1292353	None	952.1292353	None	952.1292353	None	None	None	None	None	955.2207158	None	955.2207158	None	right	955.2207158	None	None	None	955.5047917	957.2092835	0.23784218														110	1	18	1	2019_Dec_06_1308	Test	3.2.4	59.83998513		Pictures/IA25_L15.bmp	Pictures/IA25_L15.bmp	Pictures/IA25.bmp	"There's not much on the line here"	1	risk					0	0	0	0	0	11	11	3																															957.2259942	None	959.2479571	960.7686629	960.7519574	None	962.3060538	None	1	964.2779153	None	964.2779153	None	964.2779153	None	964.8795081	None	964.8795081	965.8821361	966.9850495	None	966.9850495	None	right	966.9850495	None	None	None	967.369394	968.9736185	0.345501666							0.452653141							110	1	18	1	2019_Dec_06_1308	Test	3.2.4	59.83998513		Pictures/IA50_G20.bmp	Pictures/IA50_G20.bmp	Pictures/IA50.bmp	"Let's venture and take a risk!"""""	1	risk					0	0	0	0	0	12	12	0																															968.9903289	None	971.0123232	972.5329956	972.5162881	None	974.0536754	None	None	976.0422493	None	976.0422493	None	976.0422493	None	None	None	None	None	979.133727	None	979.133727	None	left	979.133727	None	979.4178056	981.1390115	None	None	0.244821504														110	1	18	1	2019_Dec_06_1308	Test	3.2.4	59.83998513		Pictures/IA80_40_L95p.bmp	Pictures/IA80_40_L95p.bmp	Pictures/IA80.bmp	"Let's stay with the certain option."""""	0	safe					0	0	0	0	0	13	13	11																															981.1557191	None	983.1944598	984.7150985	984.6983902	None	986.2357732	None	None	988.2076389	None	988.2076389	None	988.2076389	None	None	None	None	None	991.332539	None	991.332539	None	right	991.332539	None	None	None	991.5831967	993.3211079	0.214016313														110	1	18	1	2019_Dec_06_1308	Test	3.2.4	59.83998513		Pictures/IA100_G60.bmp	Pictures/IA100_G60.bmp	Pictures/IA100.bmp	"Be cautious"	0	safe					0	0	0	0	0	14	14	13																															993.3378197	None	995.3598194	996.8804933	996.8637812	None	998.4512967	None	1	1000.389739	None	1000.389739	None	1000.389739	None	1001.275406	None	1001.275406	1002.278044	1003.414377	None	1003.414377	None	left	1003.414377	None	1003.932404	1005.402971	None	None	0.476180181							0.740825179							110	1	18	1	2019_Dec_06_1308	Test	3.2.4	59.83998513		Pictures/IA75_G15.bmp	Pictures/IA75_G15.bmp	Pictures/IA75.bmp	"Take a chance!"""""	1	risk					0	0	0	0	0	15	15	4																															1005.41966	None	1007.441653	1008.962325	1008.945621	None	1010.499712	None	None	1012.471576	None	1012.471576	None	1012.471576	None	None	None	None	None	1015.563053	None	1015.563053	None	left	1015.563053	None	1016.214769	1017.551625	None	None	0.607513178														110	1	18	1	2019_Dec_06_1308	Test	3.2.4	59.83998513		Pictures/IA20_10_G95p.bmp	Pictures/IA20_10_G95p.bmp	Pictures/IA20.bmp	"Take a leap"	1	risk					0	0	0	0	0	16	16	10																															1017.568335	None	1019.623756	1021.127717	1021.11101	None	1022.648392	None	None	1024.620258	None	1024.620258	None	1024.620258	None	None	None	None	None	1027.728452	None	1027.728452	None	left	1027.728452	None	1028.062659	1029.733726	None	None	0.298100033														110	1	18	1	2019_Dec_06_1308	Test	3.2.4	59.83998513		Pictures/IA100_G40.bmp	Pictures/IA100_G40.bmp	Pictures/IA100.bmp	"Try your luck and gamble!"""""	1	risk					0	0	0	0	0	17	17	15																															1029.750438	None	1031.772437	1033.293111	1033.276398	None	1034.813798	None	1	1036.802361	None	1036.802361	None	1036.802361	None	1037.454076	None	1037.454076	1038.456712	1039.559626	None	1039.559626	None	left	1039.559626	None	1040.111073	1041.548199	None	None	0.51492305							0.544202314							110	1	18	1	2019_Dec_06_1308	Test	3.2.4	59.83998513		Pictures/IA25_L20.bmp	Pictures/IA25_L20.bmp	Pictures/IA25.bmp	"Don't be tempted to gamble."""""	0	safe					0	0	0	0	0	18	18	18																															1041.564905	None	1043.586903	1045.107575	1045.090865	None	1046.678384	None	1	1048.616826	None	1048.616826	None	1048.616826	None	1049.201705	None	1049.201705	1050.204336	1051.307268	None	1051.307268	None	left	1051.307268	None	1051.808561	1053.295816	None	None	0.455302901							0.481737673							110	1	18	1	2019_Dec_06_1308	Test	3.2.4	59.83998513		Pictures/IA75_G60.bmp	Pictures/IA75_G60.bmp	Pictures/IA75.bmp	"Make it exciting"	1	risk					0	0	0	0	0	19	19	9																															1053.312534	None	1055.334526	1056.855198	1056.838491	None	1058.392584	None	1	1060.364451	None	1060.364451	None	1060.364451	None	1060.89919	None	1060.89919	1061.901828	1063.004742	None	1063.004742	None	right	1063.004742	None	None	None	1063.656457	1064.993309	0.613806062							0.414112894							110	1	18	1	2019_Dec_06_1308	Test	3.2.4	59.83998513												0	0	0	0																																																																									1065.243974	None	return	9.342570133	1065.243974	None	110	1	18	1	2019_Dec_06_1308	Test	3.2.4	59.83998513		Pictures/IA110_55_L95p.bmp	Pictures/IA110_55_L95p.bmp	Pictures/IA110.bmp	"Trust me and gamble!"""""	1	risk					1	0	1	0	0	0	0	7													1074.752365	None	1074.752365	None	1074.752365	None	left	7.322196762	1074.752365	None	1074.752365	None	1074.752365	None	return	9.697976225	1074.752365	None	1084.494706	None	1086.49999	1088.020659	1088.003951	None	1089.558044	None	None	1091.529911	None	1091.529911	None	1091.529911	None	None	None	None	None	1094.621391	None	1094.621391	None	right	1094.621391	None	None	None	1094.955603	1096.626669	0.285171625														110	1	18	1	2019_Dec_06_1308	Test	3.2.4	59.83998513		Pictures/IA20_10_G95p.bmp	Pictures/IA20_10_G95p.bmp	Pictures/IA20.bmp	"Take a leap"	1	risk					1	0	1	0	0	1	1	9																															1096.643387	None	1098.665378	1100.186055	1100.169345	None	1101.673304	None	1	1103.695303	None	1103.695303	None	1103.695303	None	1104.113067	None	1104.113067	1105.115708	1106.21862	None	1106.21862	None	left	1106.21862	None	1106.569541	1108.207191	None	None	0.3119309							0.275260959							110	1	18	1	2019_Dec_06_1308	Test	3.2.4	59.83998513		Pictures/IA100_L20.bmp	Pictures/IA100_L20.bmp	Pictures/IA100.bmp	"Try to win as much money as you can"	1	risk					1	0	1	0	0	2	2	4																															1108.2239	None	1110.245896	1111.766568	1111.74986	None	1113.320666	None	1	1115.275821	None	1115.275821	None	1115.275821	None	1117.782424	None	1117.782424	1118.785063	1119.887978	None	1119.887978	None	right	1119.887978	None	None	None	1120.255607	1121.893254	0.322583303							2.358745227							110	1	18	1	2019_Dec_06_1308	Test	3.2.4	59.83998513		Pictures/IA75_L30.bmp	Pictures/IA75_L30.bmp	Pictures/IA75.bmp	"Hold back"	0	safe					1	0	1	0	0	3	3	17																															1121.909966	None	1123.931962	1125.452637	1125.435928	None	1127.006732	None	1	1128.961888	None	1128.961888	None	1128.961888	None	1129.429786	None	1129.429786	1130.432427	1131.535336	None	1131.535336	None	left	1131.535336	None	1132.571395	None	None	None	0.987229857							0.336674236							110	1	18	1	2019_Dec_06_1308	Test	3.2.4	59.83998513		Pictures/IA25_L15.bmp	Pictures/IA25_L15.bmp	Pictures/IA25.bmp	"There's not much on the line here"	1	risk					1	0	1	0	0	4	4	2																															1133.557326	None	1135.579328	1137.099997	1137.083287	None	1138.587252	None	1	1140.609248	None	1140.609248	None	1140.609248	None	1141.946106	None	1141.946106	1142.94874	1144.051661	None	1144.051661	None	left	1144.051661	None	1144.920606	1146.05694	None	None	0.830884733							1.193320002							110	1	18	1	2019_Dec_06_1308	Test	3.2.4	59.83998513		Pictures/IA75_G45.bmp	Pictures/IA75_G45.bmp	Pictures/IA75.bmp	"Don't gamble for this one."""""	0	safe					1	0	1	0	0	5	5	8																															1146.073643	None	1148.095638	1149.616312	1149.599608	None	1151.136989	None	1	1153.209119	None	1153.209119	None	1153.209119	None	1153.961098	None	1153.961098	1154.963737	1156.066656	None	1156.066656	None	right	1156.066656	None	None	None	1157.035866	1158.071928	0.927901366							0.649445221							110	1	18	1	2019_Dec_06_1308	Test	3.2.4	59.83998513		Pictures/IA25_G5.bmp	Pictures/IA25_G5.bmp	Pictures/IA25.bmp	"Let's stay with the certain option."""""	0	safe					1	0	1	0	0	6	6	1																															1158.088645	None	1160.110638	1161.631325	1161.614603	None	1163.168695	None	1	1165.140565	None	1165.140565	None	1165.140565	None	1165.742146	None	1165.742146	1166.744786	1167.847698	None	1167.847698	None	left	1167.847698	None	1168.181906	1169.852981	None	None	0.298854517							0.469990754							110	1	18	1	2019_Dec_06_1308	Test	3.2.4	59.83998513		Pictures/IA80_40_G95p.bmp	Pictures/IA80_40_G95p.bmp	Pictures/IA80.bmp	"Think of the payoff"	1	risk					1	0	1	0	0	7	7	0																															1169.869693	None	1171.891683	1173.412357	1173.39565	None	1174.949745	None	1	1176.92161	None	1176.92161	None	1176.92161	None	1177.489772	None	1177.489772	1178.49241	1179.595322	None	1179.595322	None	left	1179.595322	None	1179.912823	1181.583893	None	None	0.279226366							0.464952284							110	1	18	1	2019_Dec_06_1308	Test	3.2.4	59.83998513		Pictures/IA75_L15.bmp	Pictures/IA75_L15.bmp	Pictures/IA75.bmp	"Trust me and gamble!"""""	1	risk					1	0	1	0	0	8	8	19																															1181.600603	None	1183.622599	1185.143272	1185.126564	None	1186.680658	None	1	1188.652525	None	1188.652525	None	1188.652525	None	1189.320953	None	1189.320953	1190.323589	1191.426506	None	1191.426506	None	right	1191.426506	None	None	None	1191.794133	1193.431786	0.328046055							0.582044848							110	1	18	1	2019_Dec_06_1308	Test	3.2.4	59.83998513		Pictures/IA100_G60.bmp	Pictures/IA100_G60.bmp	Pictures/IA100.bmp	"Be cautious"	0	safe					1	0	1	0	0	9	9	12																															1193.448499	None	1195.47049	1196.99116	1196.974455	None	1198.478416	None	1	1200.500412	None	1200.500412	None	1200.500412	None	1201.135423	None	1201.135423	1202.138057	1203.240976	None	1203.240976	None	left	1203.240976	None	1204.143344	1205.246249	None	None	0.865577759							0.486144615							110	1	18	1	2019_Dec_06_1308	Test	3.2.4	59.83998513		Pictures/IA100_L40.bmp	Pictures/IA100_L40.bmp	Pictures/IA100.bmp	"Think of the payoff"	1	risk					1	0	1	0	0	10	10	13																															1205.262964	None	1207.284958	1208.805629	1208.788923	None	1210.309596	None	1	1212.314882	None	1212.314882	None	1212.314882	None	1212.715938	None	1212.715938	1213.718576	1214.8215	None	1214.8215	None	right	1214.8215	None	None	None	1215.172408	1216.810057	0.309047142							0.295679122							110	1	18	1	2019_Dec_06_1308	Test	3.2.4	59.83998513		Pictures/IA75_G30.bmp	Pictures/IA75_G30.bmp	Pictures/IA75.bmp	"Be bold"	1	risk					1	0	1	0	0	11	11	16																															1216.826772	None	1218.848766	1220.369439	1220.35273	None	1221.90683	None	1	1223.878692	None	1223.878692	None	1223.878692	None	1225.399369	None	1225.399369	1226.402003	1227.504913	None	1227.504913	None	left	1227.504913	None	1227.855835	1229.493484	None	None	0.313638492							1.435868675							110	1	18	1	2019_Dec_06_1308	Test	3.2.4	59.83998513		Pictures/IA100_G20.bmp	Pictures/IA100_G20.bmp	Pictures/IA100.bmp	"Go ahead and gamble!"""""	1	risk					1	0	1	0	0	12	12	14																															1229.510193	None	1231.532192	1233.052866	1233.03616	None	1234.57354	None	1	1236.562118	None	1236.562118	None	1236.562118	None	1237.063435	None	1237.063435	1238.066075	1239.168988	None	1239.168988	None	left	1239.168988	None	1239.653591	1241.157559	None	None	0.449560425							0.408443942							110	1	18	1	2019_Dec_06_1308	Test	3.2.4	59.83998513		Pictures/IA25_G10.bmp	Pictures/IA25_G10.bmp	Pictures/IA25.bmp	"What's life without a little risk?"""""	1	risk					1	0	1	0	0	13	13	15																															1241.174267	None	1243.196267	1244.716938	1244.700233	None	1246.237578	None	1	1248.226189	None	1248.226189	None	1248.226189	None	1250.248186	None	1250.248186	1251.250821	1252.35374	None	1252.35374	None	left	1252.35374	None	1252.738078	1254.342305	None	None	0.336817939							1.896384546							110	1	18	1	2019_Dec_06_1308	Test	3.2.4	59.83998513		Pictures/IA50_G30.bmp	Pictures/IA50_G30.bmp	Pictures/IA50.bmp	"I think you should gamble."""""	1	risk					1	0	1	0	0	14	14	3																															1254.359016	None	1256.381012	1257.901684	1257.884976	None	1259.422361	None	None	1261.410938	None	1261.410938	None	1261.410938	None	None	None	None	None	1264.502417	None	1264.502417	None	left	1264.502417	None	1265.655453	None	None	None	1.116139997														110	1	18	1	2019_Dec_06_1308	Test	3.2.4	59.83998513		Pictures/IA100_G40.bmp	Pictures/IA100_G40.bmp	Pictures/IA100.bmp	"Try your luck and gamble!"""""	1	risk					1	0	1	0	0	15	15	6																															1266.507697	None	1268.529693	1270.05037	1270.033659	None	1271.537623	None	1	1273.559622	None	1273.559622	None	1273.559622	None	1274.562262	None	1274.562262	1275.564903	1276.701234	None	1276.701234	None	left	1276.701234	None	1277.035444	1278.706512	None	None	0.285320393							0.890944318							110	1	18	1	2019_Dec_06_1308	Test	3.2.4	59.83998513		Pictures/IA50_L40.bmp	Pictures/IA50_L40.bmp	Pictures/IA50.bmp	"That gamble doesn't sound too good"	0	safe					1	0	1	0	0	16	16	18																															1278.723227	None	1280.745232	1282.265895	1282.249189	None	1283.803283	None	1	1285.775148	None	1285.775148	None	1285.775148	None	1286.243047	None	1286.243047	1287.245687	1288.348596	None	1288.348596	None	left	1288.348596	None	1289.334524	None	None	None	0.94196475							0.315415204							110	1	18	1	2019_Dec_06_1308	Test	3.2.4	59.83998513		Pictures/IA80_40_L95p.bmp	Pictures/IA80_40_L95p.bmp	Pictures/IA80.bmp	"Let's stay with the certain option."""""	0	safe					1	0	1	0	0	17	17	11																															1290.353877	None	1292.375873	1293.896546	1293.879837	None	1295.400488	None	1	1297.405801	None	1297.405801	None	1297.405801	None	1298.090938	None	1298.090938	1299.093575	1300.213196	None	1300.213196	None	right	1300.213196	None	None	None	1300.86491	1302.201767	0.605367503							0.564772648							110	1	18	1	2019_Dec_06_1308	Test	3.2.4	59.83998513		Pictures/IA25_G20.bmp	Pictures/IA25_G20.bmp	Pictures/IA25.bmp	"I wouldn't gamble for this one. """""	0	safe					1	0	1	0	0	18	18	5																															1302.218481	None	1304.240475	1305.761148	1305.74444	None	1307.298536	None	1	1309.270402	None	1309.270402	None	1309.270402	None	1309.871984	None	1309.871984	1310.874624	1311.977533	None	1311.977533	None	right	1311.977533	None	None	None	1312.930044	1313.966106	0.913014082							0.476171258							110	1	18	1	2019_Dec_06_1308	Test	3.2.4	59.83998513		Pictures/IA50_G20.bmp	Pictures/IA50_G20.bmp	Pictures/IA50.bmp	"Let's venture and take a risk!"""""	1	risk					1	0	1	0	0	19	19	10																															1313.982817	None	1316.004814	1317.525486	1317.50878	None	1319.029453	None	1	1321.034736	None	1321.034736	None	1321.034736	None	1321.586192	None	1321.586192	1322.588831	1323.691741	None	1323.691741	None	left	1323.691741	None	1324.276613	1325.680312	None	None	0.5508075							0.423830675							110	1	18	1	2019_Dec_06_1308	Test	3.2.4	59.83998513												1	0	1	0																																																																									1325.847389	None	return	7.531153994	1325.847389	None	110	1	18	1	2019_Dec_06_1308	Test	3.2.4	59.83998513		Pictures/IA25_L5.bmp	Pictures/IA25_L5.bmp	Pictures/IA25.bmp	"It would be smarter to choose the safe option."""""	0	safe					2	0	2	0	0	0	0	0													1333.534348	None	1333.534348	None	1333.534348	None	right	5.756210218	1333.534348	None	1333.534348	None	1333.534348	None	return	8.907986794	1333.534348	None	1342.491288	None	1344.496571	1346.017245	1346.000535	None	1347.554637	None	1	1349.526498	None	1349.526498	None	1349.526498	None	1351.114012	None	1351.114012	1352.116651	1353.219565	None	1353.219565	None	right	1353.219565	None	None	None	1354.088516	1355.224843	0.830986365							1.452062689							110	1	18	1	2019_Dec_06_1308	Test	3.2.4	59.83998513		Pictures/IA75_G45.bmp	Pictures/IA75_G45.bmp	Pictures/IA75.bmp	"Don't gamble for this one."""""	0	safe					2	0	2	0	0	1	1	7																															1355.24155	None	1357.263554	1358.784224	1358.767518	None	1360.271481	None	1	1362.293484	None	1362.293484	None	1362.293484	None	1362.744667	None	1362.744667	1363.747305	1364.866933	None	1364.866933	None	left	1364.866933	None	1365.251271	1366.872208	None	None	0.343619625							0.341080102							110	1	18	1	2019_Dec_06_1308	Test	3.2.4	59.83998513		Pictures/IA25_L10.bmp	Pictures/IA25_L10.bmp	Pictures/IA25.bmp	"Dont be afraid to take the risk!"""""	1	risk					2	0	2	0	0	2	2	12																															1366.88892	None	1368.910917	1370.431589	1370.414881	None	1371.968977	None	1	1373.940848	None	1373.940848	None	1373.940848	None	1374.525717	None	1374.525717	1375.528356	1376.631268	None	1376.631268	None	right	1376.631268	None	None	None	1377.065742	1378.636546	0.38729103							0.453714842							110	1	18	1	2019_Dec_06_1308	Test	3.2.4	59.83998513		Pictures/IA25_G20.bmp	Pictures/IA25_G20.bmp	Pictures/IA25.bmp	"I wouldn't gamble for this one. """""	0	safe					2	0	2	0	0	3	3	9																															1378.653258	None	1380.67526	1382.195932	1382.179221	None	1383.683185	None	1	1385.705186	None	1385.705186	None	1385.705186	None	1386.156375	None	1386.156375	1387.159009	1388.261922	None	1388.261922	None	left	1388.261922	None	1389.4818	None	None	None	1.180629713							0.321382362							110	1	18	1	2019_Dec_06_1308	Test	3.2.4	59.83998513		Pictures/IA75_L45.bmp	Pictures/IA75_L45.bmp	Pictures/IA75.bmp	"Don't gamble for this one"	0	safe					2	0	2	0	0	4	4	14																															1390.267202	None	1392.289202	1393.809872	1393.79317	None	1395.330548	None	1	1397.319126	None	1397.319126	None	1397.319126	None	1397.803741	None	1397.803741	1398.806374	1399.909286	None	1399.909286	None	left	1399.909286	None	1400.444027	1401.914566	None	None	0.485271614							0.347438727							110	1	18	1	2019_Dec_06_1308	Test	3.2.4	59.83998513		Pictures/IA75_G30.bmp	Pictures/IA75_G30.bmp	Pictures/IA75.bmp	"Be bold"	1	risk					2	0	2	0	0	5	5	2																															1401.931278	None	1403.953275	1405.473947	1405.457239	None	1406.961202	None	1	1408.9832	None	1408.9832	None	1408.9832	None	1409.434387	None	1409.434387	1410.437026	1411.539942	None	1411.539942	None	left	1411.539942	None	1412.475743	1413.54522	None	None	0.886608941							0.347362627							110	1	18	1	2019_Dec_06_1308	Test	3.2.4	59.83998513		Pictures/IA25_G10.bmp	Pictures/IA25_G10.bmp	Pictures/IA25.bmp	"What's life without a little risk?"""""	1	risk					2	0	2	0	0	6	6	19																															1413.561935	None	1415.583928	1417.104601	1417.087893	None	1418.608568	None	1	1420.613855	None	1420.613855	None	1420.613855	None	1421.06504	None	1421.06504	1422.067682	1423.170595	None	1423.170595	None	left	1423.170595	None	1423.471382	1425.175873	None	None	0.263957072							0.332704178							110	1	18	1	2019_Dec_06_1308	Test	3.2.4	59.83998513		Pictures/IA100_L20.bmp	Pictures/IA100_L20.bmp	Pictures/IA100.bmp	"Try to win as much money as you can"	1	risk					2	0	2	0	0	7	7	6																															1425.192588	None	1427.214583	1428.735257	1428.718549	None	1430.239221	None	1	1432.244509	None	1432.244509	None	1432.244509	None	1432.645565	None	1432.645565	1433.648206	1434.751116	None	1434.751116	None	right	1434.751116	None	None	None	1435.118746	1436.756394	0.331426873							0.262051905							110	1	18	1	2019_Dec_06_1308	Test	3.2.4	59.83998513		Pictures/IA25_L20.bmp	Pictures/IA25_L20.bmp	Pictures/IA25.bmp	"Don't be tempted to gamble."""""	0	safe					2	0	2	0	0	8	8	15																															1436.773106	None	1438.795105	1440.315778	1440.299071	None	1441.836457	None	1	1443.825039	None	1443.825039	None	1443.825039	None	1444.476748	None	1444.476748	1445.479384	1446.582299	None	1446.582299	None	left	1446.582299	None	1447.18388	1448.587579	None	None	0.556253863							0.529532438							110	1	18	1	2019_Dec_06_1308	Test	3.2.4	59.83998513		Pictures/IA25_L15.bmp	Pictures/IA25_L15.bmp	Pictures/IA25.bmp	"There's not much on the line here"	1	risk					2	0	2	0	0	9	9	10																															1448.604294	None	1450.626287	1452.146962	1452.130253	None	1453.667643	None	1	1455.656213	None	1455.656213	None	1455.656213	None	1456.140825	None	1456.140825	1457.143461	1458.246376	None	1458.246376	None	right	1458.246376	None	None	None	1459.048483	1460.234945	0.764171698							0.330349477							110	1	18	1	2019_Dec_06_1308	Test	3.2.4	59.83998513		Pictures/IA80_40_L95p.bmp	Pictures/IA80_40_L95p.bmp	Pictures/IA80.bmp	"Let's stay with the certain option."""""	0	safe					2	0	2	0	0	10	10	18																															1460.251659	None	1462.273651	1463.794326	1463.77762	None	1465.281582	None	1	1467.30358	None	1467.30358	None	1467.30358	None	1467.771479	None	1467.771479	1468.774115	1469.877029	None	1469.877029	None	right	1469.877029	None	None	None	1470.311508	1471.882317	0.397519883							0.338993626							110	1	18	1	2019_Dec_06_1308	Test	3.2.4	59.83998513		Pictures/IA75_L60.bmp	Pictures/IA75_L60.bmp	Pictures/IA75.bmp	"Why not take the gamble?"""""	1	risk					2	0	2	0	0	11	11	1																															1471.899021	None	1473.921018	1475.441694	1475.424984	None	1476.995791	None	1	1478.950947	None	1478.950947	None	1478.950947	None	1479.519108	None	1479.519108	1480.521747	1481.62466	None	1481.62466	None	left	1481.62466	None	1482.176109	1483.613229	None	None	0.505898278							0.443618836							110	1	18	1	2019_Dec_06_1308	Test	3.2.4	59.83998513		Pictures/IA100_G40.bmp	Pictures/IA100_G40.bmp	Pictures/IA100.bmp	"Try your luck and gamble!"""""	1	risk					2	0	2	0	0	12	12	11																															1483.629945	None	1485.651941	1487.172612	1487.155906	None	1488.69329	None	1	1490.681866	None	1490.681866	None	1490.681866	None	1491.116349	None	1491.116349	1492.118987	1493.221896	None	1493.221896	None	left	1493.221896	None	1493.606238	1495.210467	None	None	0.34065784							0.320697843							110	1	18	1	2019_Dec_06_1308	Test	3.2.4	59.83998513		Pictures/IA40_20_G95p.bmp	Pictures/IA40_20_G95p.bmp	Pictures/IA40.bmp	"Hold back"	0	safe					2	0	2	0	0	13	13	4																															1495.227177	None	1497.249175	1498.769849	1498.75314	None	1500.290526	None	1	1502.279104	None	1502.279104	None	1502.279104	None	1502.73029	None	1502.73029	1503.73293	1504.835859	None	1504.835859	None	left	1504.835859	None	1505.253608	1506.824429	None	None	0.382683767							0.323470272							110	1	18	1	2019_Dec_06_1308	Test	3.2.4	59.83998513		Pictures/IA20_10_L95p.bmp	Pictures/IA20_10_L95p.bmp	Pictures/IA20.bmp	"Don't be tempted to gamble."""""	0	safe					2	0	2	0	0	14	14	5																															1506.841126	None	1508.863123	1510.383796	1510.367092	None	1511.921186	None	1	1513.893052	None	1513.893052	None	1513.893052	None	1514.310821	None	1514.310821	1515.313457	1516.416369	None	1516.416369	None	right	1516.416369	None	None	None	1516.867554	1518.404943	0.410196931							0.301512849							110	1	18	1	2019_Dec_06_1308	Test	3.2.4	59.83998513		Pictures/IA110_55_L95p.bmp	Pictures/IA110_55_L95p.bmp	Pictures/IA110.bmp	"Trust me and gamble!"""""	1	risk					2	0	2	0	0	15	15	16																															1518.421651	None	1520.443648	1521.964327	1521.947616	None	1523.485002	None	1	1525.473582	None	1525.473582	None	1525.473582	None	1527.16136	None	1527.16136	1528.163998	1529.266911	None	1529.266911	None	right	1529.266911	None	None	None	1529.651253	1531.255481	0.343637705							1.576986403							110	1	18	1	2019_Dec_06_1308	Test	3.2.4	59.83998513		Pictures/IA50_G10.bmp	Pictures/IA50_G10.bmp	Pictures/IA50.bmp	"Go with the safe option here!"""""	0	safe					2	0	2	0	0	16	16	8																															1531.272192	None	1533.294192	1534.814899	1534.798159	None	1536.335547	None	1	1538.324121	None	1538.324121	None	1538.324121	None	1538.741887	None	1538.741887	1539.74453	1540.84744	None	1540.84744	None	left	1540.84744	None	1541.382182	1542.852725	None	None	0.491116615							0.294441753							110	1	18	1	2019_Dec_06_1308	Test	3.2.4	59.83998513		Pictures/IA25_G5.bmp	Pictures/IA25_G5.bmp	Pictures/IA25.bmp	"Let's stay with the certain option."""""	0	safe					2	0	2	0	0	17	17	17																															1542.869434	None	1544.891432	1546.412104	1546.395397	None	1547.932785	None	1	1549.92136	None	1549.92136	None	1549.92136	None	1550.6065	None	1550.6065	1551.609148	1552.712051	None	1552.712051	None	left	1552.712051	None	1553.046261	1554.717331	None	None	0.290512734							0.553209192							110	1	18	1	2019_Dec_06_1308	Test	3.2.4	59.83998513		Pictures/IA80_40_G95p.bmp	Pictures/IA80_40_G95p.bmp	Pictures/IA80.bmp	"Think of the payoff"	1	risk					2	0	2	0	0	18	18	3																															1554.734046	None	1556.756043	1558.260007	1558.243303	None	1559.797397	None	1	1561.785971	None	1561.785971	None	1561.785971	None	1562.571375	None	1562.571375	1563.574013	1564.676929	None	1564.676929	None	left	1564.676929	None	1565.161533	1566.665496	None	None	0.445624924							0.65659323							110	1	18	1	2019_Dec_06_1308	Test	3.2.4	59.83998513		Pictures/IA110_55_G95p.bmp	Pictures/IA110_55_G95p.bmp	Pictures/IA110.bmp	"Take a chance!"""""	1	risk					2	0	2	0	0	19	19	13																															1566.682209	None	1568.704207	1570.224881	1570.208178	None	1571.745563	None	1	1573.734137	None	1573.734137	None	1573.734137	None	1574.469407	None	1574.469407	1575.472043	1576.574961	None	1576.574961	None	left	1576.574961	None	1577.193253	1578.563533	None	None	0.571591577							0.64444134							110	1	18	1	2019_Dec_06_1308	Test	3.2.4	59.83998513												2	0	2	0																																																																									1578.73066	None	return	6.143891206	1578.73066	None	110	1	18	1	2019_Dec_06_1308	Test	3.2.4	59.83998513		Pictures/IA100_G80.bmp	Pictures/IA100_G80.bmp	Pictures/IA100.bmp	"Why not gamble?"""""	1	risk					3	0	3	0	0	0	0	19													1585.030584	None	1585.030584	None	1585.030584	None	left	5.155968951	1585.030584	None	1585.030584	None	1585.030584	None	return	7.155847968	1585.030584	None	1592.249614	None	1594.254906	1595.775575	1595.758869	None	1597.279546	None	1	1599.268121	None	1599.268121	None	1599.268121	None	1599.819587	None	1599.819587	1600.822224	1601.925137	None	1601.925137	None	right	1601.925137	None	None	None	1602.259342	1603.930408	0.293404305							0.454447582							110	1	18	1	2019_Dec_06_1308	Test	3.2.4	59.83998513		Pictures/IA25_L10.bmp	Pictures/IA25_L10.bmp	Pictures/IA25.bmp	"Dont be afraid to take the risk!"""""	1	risk					3	0	3	0	0	1	1	3																															1603.94712	None	1605.985828	1607.489794	1607.473084	None	1608.993761	None	1	1610.99905	None	1610.99905	None	1610.99905	None	1611.533792	None	1611.533792	1612.536436	1613.656055	None	1613.656055	None	right	1613.656055	None	None	None	1614.107239	1615.644626	0.41051255							0.42751463							110	1	18	1	2019_Dec_06_1308	Test	3.2.4	59.83998513		Pictures/IA75_L30.bmp	Pictures/IA75_L30.bmp	Pictures/IA75.bmp	"Hold back"	0	safe					3	0	3	0	0	2	2	17																															1615.661338	None	1617.683339	1619.204011	1619.187306	None	1620.70798	None	1	1622.713267	None	1622.713267	None	1622.713267	None	1623.26472	None	1623.26472	1624.26736	1625.370275	None	1625.370275	None	left	1625.370275	None	1625.721193	1627.358851	None	None	0.30428195							0.417288452							110	1	18	1	2019_Dec_06_1308	Test	3.2.4	59.83998513		Pictures/IA75_G60.bmp	Pictures/IA75_G60.bmp	Pictures/IA75.bmp	"Make it exciting"	1	risk					3	0	3	0	0	3	3	4																															1627.375555	None	1629.397556	1630.918227	1630.901521	None	1632.422197	None	1	1634.427489	None	1634.427489	None	1634.427489	None	1635.496975	None	1635.496975	1636.49961	1637.61924	None	1637.61924	None	right	1637.61924	None	None	None	1637.920025	1639.624517	0.263312361							0.943075941							110	1	18	1	2019_Dec_06_1308	Test	3.2.4	59.83998513		Pictures/IA40_20_G95p.bmp	Pictures/IA40_20_G95p.bmp	Pictures/IA40.bmp	"Hold back"	0	safe					3	0	3	0	0	4	4	2																															1639.641228	None	1641.663232	1643.183953	1643.167231	None	1644.687872	None	1	1646.69316	None	1646.69316	None	1646.69316	None	1647.161057	None	1647.161057	1648.163698	1649.316749	None	1649.316749	None	left	1649.316749	None	1649.784641	1651.322023	None	None	0.42180672							0.341405476							110	1	18	1	2019_Dec_06_1308	Test	3.2.4	59.83998513		Pictures/IA50_G20.bmp	Pictures/IA50_G20.bmp	Pictures/IA50.bmp	"Let's venture and take a risk!"""""	1	risk					3	0	3	0	0	5	5	6																															1651.338737	None	1653.360757	1654.864685	1654.847983	None	1656.468957	None	1	1658.390651	None	1658.390651	None	1658.390651	None	1658.791707	None	1658.791707	1659.794358	1660.913935	None	1660.913935	None	left	1660.913935	None	1661.515553	1662.902552	None	None	0.552621814							0.29191349							110	1	18	1	2019_Dec_06_1308	Test	3.2.4	59.83998513		Pictures/IA100_L60.bmp	Pictures/IA100_L60.bmp	Pictures/IA100.bmp	"You'd have a lot to lose"	0	safe					3	0	3	0	0	6	6	14																															1662.919264	None	1664.974685	1666.478651	1666.445231	None	1668.016056	None	1	1669.971187	None	1669.971187	None	1669.971187	None	1670.48918	None	1670.48918	1671.491865	1672.611507	None	1672.611507	None	left	1672.611507	None	1673.130741	1674.616788	None	None	0.471059103							0.399378105							110	1	18	1	2019_Dec_06_1308	Test	3.2.4	59.83998513		Pictures/IA80_40_L95p.bmp	Pictures/IA80_40_L95p.bmp	Pictures/IA80.bmp	"Let's stay with the certain option."""""	0	safe					3	0	3	0	0	7	7	10																															1674.633483	None	1676.672195	1678.17616	1678.142768	None	1679.680183	None	1	1681.685741	None	1681.685741	None	1681.685741	None	1682.15332	None	1682.15332	1683.155959	1684.292279	None	1684.292279	None	right	1684.292279	None	None	None	1684.65993	1686.280851	0.326278126							0.340816641							110	1	18	1	2019_Dec_06_1308	Test	3.2.4	59.83998513		Pictures/IA25_G20.bmp	Pictures/IA25_G20.bmp	Pictures/IA25.bmp	"I wouldn't gamble for this one. """""	0	safe					3	0	3	0	0	8	8	15																															1686.297564	None	1688.336242	1689.840258	1689.823532	None	1691.377635	None	1	1693.332789	None	1693.332789	None	1693.332789	None	1693.817411	None	1693.817411	1694.820045	1695.922948	None	1695.922948	None	right	1695.922948	None	None	None	1696.491106	1697.911529	0.527599765							0.373774063							110	1	18	1	2019_Dec_06_1308	Test	3.2.4	59.83998513		Pictures/IA40_20_L95p.bmp	Pictures/IA40_20_L95p.bmp	Pictures/IA40.bmp	"Trust me and gamble!"""""	1	risk					3	0	3	0	0	9	9	5																															1697.928239	None	1699.966958	1701.487631	1701.470926	None	1703.02502	None	1	1704.96347	None	1704.96347	None	1704.96347	None	1706.835068	None	1706.835068	1707.83771	1708.957333	None	1708.957333	None	right	1708.957333	None	None	None	1709.291541	1710.962616	0.29321167							1.783102797							110	1	18	1	2019_Dec_06_1308	Test	3.2.4	59.83998513		Pictures/IA25_L20.bmp	Pictures/IA25_L20.bmp	Pictures/IA25.bmp	"Don't be tempted to gamble."""""	0	safe					3	0	3	0	0	10	10	18																															1710.979328	None	1713.001334	1714.522	1714.505298	None	1716.0761	None	1	1718.031263	None	1718.031263	None	1718.031263	None	1718.499157	None	1718.499157	1719.501803	1720.604713	None	1720.604713	None	left	1720.604713	None	1720.955635	1722.593283	None	None	0.301840118							0.355303306							110	1	18	1	2019_Dec_06_1308	Test	3.2.4	59.83998513		Pictures/IA75_L60.bmp	Pictures/IA75_L60.bmp	Pictures/IA75.bmp	"Why not take the gamble?"""""	1	risk					3	0	3	0	0	11	11	13																															1722.609999	None	1724.648707	1726.169385	1726.152674	None	1727.706769	None	1	1729.661982	None	1729.661982	None	1729.661982	None	1730.296935	None	1730.296935	1731.299575	1732.40249	None	1732.40249	None	left	1732.40249	None	1732.836965	1734.407775	None	None	0.40006166							0.508569175							110	1	18	1	2019_Dec_06_1308	Test	3.2.4	59.83998513		Pictures/IA20_10_L95p.bmp	Pictures/IA20_10_L95p.bmp	Pictures/IA20.bmp	"Don't be tempted to gamble."""""	0	safe					3	0	3	0	0	12	12	12																															1734.424483	None	1736.463195	1737.983869	1737.967125	None	1739.504547	None	1	1741.476422	None	1741.476422	None	1741.476422	None	1742.662883	None	1742.662883	1743.665523	1744.768433	None	1744.768433	None	right	1744.768433	None	None	None	1745.136063	1746.773716	0.330113009							1.086159111							110	1	18	1	2019_Dec_06_1308	Test	3.2.4	59.83998513		Pictures/IA50_L30.bmp	Pictures/IA50_L30.bmp	Pictures/IA50.bmp	"Take a leap"	1	risk					3	0	3	0	0	13	13	16																															1746.790425	None	1748.812428	1750.333102	1750.316395	None	1751.870492	None	1	1753.842361	None	1753.842361	None	1753.842361	None	1754.443953	None	1754.443953	1755.446601	1756.5495	None	1756.5495	None	right	1756.5495	None	None	None	1757.719246	None	1.133052239							0.456203101							110	1	18	1	2019_Dec_06_1308	Test	3.2.4	59.83998513		Pictures/IA110_55_G95p.bmp	Pictures/IA110_55_G95p.bmp	Pictures/IA110.bmp	"Take a chance!"""""	1	risk					3	0	3	0	0	14	14	1																															1758.571494	None	1760.610205	1762.130879	1762.114172	None	1763.65156	None	1	1765.623434	None	1765.623434	None	1765.623434	None	1766.124752	None	1766.124752	1767.12739	1768.247018	None	1768.247018	None	left	1768.247018	None	1768.564521	1770.252298	None	None	0.267535945							0.419122811							110	1	18	1	2019_Dec_06_1308	Test	3.2.4	59.83998513		Pictures/IA75_G45.bmp	Pictures/IA75_G45.bmp	Pictures/IA75.bmp	"Don't gamble for this one."""""	0	safe					3	0	3	0	0	15	15	7																															1770.26901	None	1772.291013	1773.811687	1773.79498	None	1775.365792	None	1	1777.320946	None	1777.320946	None	1777.320946	None	1777.772135	None	1777.772135	1778.774774	1779.87769	None	1779.87769	None	left	1779.87769	None	1780.245321	1781.882972	None	None	0.324878815							0.337620751							110	1	18	1	2019_Dec_06_1308	Test	3.2.4	59.83998513		Pictures/IA50_G10.bmp	Pictures/IA50_G10.bmp	Pictures/IA50.bmp	"Go with the safe option here!"""""	0	safe					3	0	3	0	0	16	16	0																															1781.899683	None	1783.921687	1785.442361	1785.425656	None	1786.96304	None	1	1788.951623	None	1788.951623	None	1788.951623	None	1789.43623	None	1789.43623	1790.43887	1791.541817	None	1791.541817	None	left	1791.541817	None	1791.976259	1793.547073	None	None	0.396727713							0.370942842							110	1	18	1	2019_Dec_06_1308	Test	3.2.4	59.83998513		Pictures/IA100_L20.bmp	Pictures/IA100_L20.bmp	Pictures/IA100.bmp	"Try to win as much money as you can"	1	risk					3	0	3	0	0	17	17	9																															1793.563781	None	1795.585782	1797.106455	1797.089748	None	1798.643844	None	1	1800.615722	None	1800.615722	None	1800.615722	None	1801.183882	None	1801.183882	1802.18652	1803.289436	None	1803.289436	None	right	1803.289436	None	None	None	1803.556802	1805.294716	0.233114943							0.418835706							110	1	18	1	2019_Dec_06_1308	Test	3.2.4	59.83998513		Pictures/IA75_L15.bmp	Pictures/IA75_L15.bmp	Pictures/IA75.bmp	"Trust me and gamble!"""""	1	risk					3	0	3	0	0	18	18	11																															1805.311429	None	1807.333439	1808.854106	1808.837406	None	1810.391497	None	1	1812.363368	None	1812.363368	None	1812.363368	None	1812.814554	None	1812.814554	1813.817192	1814.92011	None	1814.92011	None	right	1814.92011	None	None	None	1815.271029	1816.908683	0.306457034							0.367193757							110	1	18	1	2019_Dec_06_1308	Test	3.2.4	59.83998513		Pictures/IA110_55_L95p.bmp	Pictures/IA110_55_L95p.bmp	Pictures/IA110.bmp	"Trust me and gamble!"""""	1	risk					3	0	3	0	0	19	19	8																															1816.925394	None	1818.947397	1820.468072	1820.451363	None	1822.005475	None	1	1823.977331	None	1823.977331	None	1823.977331	None	1824.695893	None	1824.695893	1825.698535	1826.834868	None	1826.834868	None	right	1826.834868	None	None	None	1827.252631	1828.82344	0.375679203							0.641238699							110	1	18	1	2019_Dec_06_1308	Test	3.2.4	59.83998513												3	0	3	0																																																																									1829.007277	None	return	7.307274147	1829.007277	None	110	1	18	1	2019_Dec_06_1308	Test	3.2.4	59.83998513		Pictures/IA25_G20.bmp	Pictures/IA25_G20.bmp	Pictures/IA25.bmp	"I wouldn't gamble for this one. """""	0	safe					4	0	4	0	0	0	0	0													1836.510386	None	1836.510386	None	1836.510386	None	left	3.7641703	1836.510386	None	1836.510386	None	1836.510386	None	return	4.900037932	1836.510386	None	1841.473475	None	1843.478764	1844.999451	1844.982732	None	1846.486703	None	None	1848.491993	None	1848.491993	None	1848.491993	None	None	None	None	None	1851.600189	None	1851.600189	None	right	1851.600189	None	None	None	1852.101506	1853.605471	0.466378297														110	1	18	1	2019_Dec_06_1308	Test	3.2.4	59.83998513		Pictures/IA25_L15.bmp	Pictures/IA25_L15.bmp	Pictures/IA25.bmp	"There's not much on the line here"	1	risk					4	0	4	0	0	1	1	9																															1853.622184	None	1855.644183	1857.164861	1857.148154	None	1858.718967	None	1	1860.674121	None	1860.674121	None	1860.674121	None	1861.158729	None	1861.158729	1862.161371	1863.264291	None	1863.264291	None	left	1863.264291	None	1864.099823	1865.269573	None	None	0.786266367							0.336443378							110	1	18	1	2019_Dec_06_1308	Test	3.2.4	59.83998513		Pictures/IA50_G40.bmp	Pictures/IA50_G40.bmp	Pictures/IA50.bmp	"It would probably be best to play it safe."""""	0	safe					4	0	4	0	0	2	2	18																															1865.286281	None	1867.308286	1868.828959	1868.812252	None	1870.366349	None	1	1872.33822	None	1872.33822	None	1872.33822	None	1872.80612	None	1872.80612	1873.80876	1874.928386	None	1874.928386	None	right	1874.928386	None	None	None	1875.680365	1876.91696	0.706169402							0.328349615							110	1	18	1	2019_Dec_06_1308	Test	3.2.4	59.83998513		Pictures/IA40_20_G95p.bmp	Pictures/IA40_20_G95p.bmp	Pictures/IA40.bmp	"Hold back"	0	safe					4	0	4	0	0	3	3	1																															1876.93367	None	1878.955671	1880.476349	1880.459641	None	1881.997035	None	1	1883.985613	None	1883.985613	None	1883.985613	None	1884.520351	None	1884.520351	1885.522992	1886.625909	None	1886.625909	None	left	1886.625909	None	1887.127225	1888.631193	None	None	0.464644255							0.408947322							110	1	18	1	2019_Dec_06_1308	Test	3.2.4	59.83998513		Pictures/IA50_L20.bmp	Pictures/IA50_L20.bmp	Pictures/IA50.bmp	"Certainty is boring"	1	risk					4	0	4	0	0	4	4	14																															1888.647905	None	1890.669904	1892.19058	1892.173874	None	1893.74468	None	1	1895.699842	None	1895.699842	None	1895.699842	None	1896.100898	None	1896.100898	1897.103539	1898.206453	None	1898.206453	None	right	1898.206453	None	None	None	1898.975144	1900.211737	0.724103816							0.270724963							110	1	18	1	2019_Dec_06_1308	Test	3.2.4	59.83998513		Pictures/IA110_55_L95p.bmp	Pictures/IA110_55_L95p.bmp	Pictures/IA110.bmp	"Trust me and gamble!"""""	1	risk					4	0	4	0	0	5	5	10																															1900.228449	None	1902.250451	1903.771128	1903.75442	None	1905.258385	None	1	1907.28039	None	1907.28039	None	1907.28039	None	1908.516983	None	1908.516983	1909.519622	1910.622538	None	1910.622538	None	right	1910.622538	None	None	None	1910.923325	1912.62782	0.252011079							1.138170696							110	1	18	1	2019_Dec_06_1308	Test	3.2.4	59.83998513		Pictures/IA25_G15.bmp	Pictures/IA25_G15.bmp	Pictures/IA25.bmp	"I think you should take a gamble."""""	1	risk					4	0	4	0	0	6	6	2																															1912.644532	None	1914.666537	1916.170499	1916.153793	None	1917.724606	None	1	1919.696472	None	1919.696472	None	1919.696472	None	1920.181082	None	1920.181082	1921.183722	1922.30335	None	1922.30335	None	left	1922.30335	None	1923.038617	1924.308633	None	None	0.691222322							0.362091336							110	1	18	1	2019_Dec_06_1308	Test	3.2.4	59.83998513		Pictures/IA100_L60.bmp	Pictures/IA100_L60.bmp	Pictures/IA100.bmp	"You'd have a lot to lose"	0	safe					4	0	4	0	0	7	7	16																															1924.325344	None	1926.347345	1927.85131	1927.834623	None	1929.371995	None	1	1931.377288	None	1931.377288	None	1931.377288	None	1931.912026	None	1931.912026	1932.914666	1934.017581	None	1934.017581	None	left	1934.017581	None	1934.936674	1936.006165	None	None	0.872973333							0.385274945							110	1	18	1	2019_Dec_06_1308	Test	3.2.4	59.83998513		Pictures/IA20_10_L95p.bmp	Pictures/IA20_10_L95p.bmp	Pictures/IA20.bmp	"Don't be tempted to gamble."""""	0	safe					4	0	4	0	0	8	8	4																															1936.022871	None	1938.044871	1939.565545	1939.548836	None	1941.086189	None	None	1943.074805	None	1943.074805	None	1943.074805	None	None	None	None	None	1946.216432	None	1946.216432	None	right	1946.216432	None	None	None	1946.500503	1948.205	0.242130299														110	1	18	1	2019_Dec_06_1308	Test	3.2.4	59.83998513		Pictures/IA100_G20.bmp	Pictures/IA100_G20.bmp	Pictures/IA100.bmp	"Go ahead and gamble!"""""	1	risk					4	0	4	0	0	9	9	7																															1948.221716	None	1950.243712	1951.764393	1951.747681	None	1953.301779	None	1	1955.273651	None	1955.273651	None	1955.273651	None	1955.641284	None	1955.641284	1956.643926	1957.746845	None	1957.746845	None	left	1957.746845	None	1958.147899	1959.735414	None	None	0.359710969							0.264909406							110	1	18	1	2019_Dec_06_1308	Test	3.2.4	59.83998513		Pictures/IA100_G40.bmp	Pictures/IA100_G40.bmp	Pictures/IA100.bmp	"Try your luck and gamble!"""""	1	risk					4	0	4	0	0	10	10	11																															1959.752127	None	1961.774134	1963.294804	1963.278102	None	1964.832198	None	1	1966.804068	None	1966.804068	None	1966.804068	None	1967.673021	None	1967.673021	1968.675665	1969.862133	None	1969.862133	None	left	1969.862133	None	1970.179632	1971.850711	None	None	0.276416361							0.758494325							110	1	18	1	2019_Dec_06_1308	Test	3.2.4	59.83998513		Pictures/IA75_L60.bmp	Pictures/IA75_L60.bmp	Pictures/IA75.bmp	"Why not take the gamble?"""""	1	risk					4	0	4	0	0	11	11	15																															1971.867418	None	1973.889421	1975.410096	1975.393389	None	1976.930776	None	1	1978.919358	None	1978.919358	None	1978.919358	None	1979.922001	None	1979.922001	1980.924641	1982.027558	None	1982.027558	None	left	1982.027558	None	1982.378478	1984.016141	None	None	0.303007437							0.891202291							110	1	18	1	2019_Dec_06_1308	Test	3.2.4	59.83998513		Pictures/IA50_L10.bmp	Pictures/IA50_L10.bmp	Pictures/IA50.bmp	"Play it safe"	0	safe					4	0	4	0	0	12	12	8																															1984.032847	None	1986.054852	1987.57552	1987.558813	None	1989.112914	None	1	1991.08478	None	1991.08478	None	1991.08478	None	1991.970498	None	1991.970498	1992.989845	1994.092717	None	1994.092717	None	right	1994.092717	None	None	None	1994.443645	1996.081291	0.309837812							0.757797559							110	1	18	1	2019_Dec_06_1308	Test	3.2.4	59.83998513		Pictures/IA75_L45.bmp	Pictures/IA75_L45.bmp	Pictures/IA75.bmp	"Don't gamble for this one"	0	safe					4	0	4	0	0	13	13	3																															1996.098001	None	1998.120009	1999.64068	1999.623972	None	2001.178071	None	1	2003.149943	None	2003.149943	None	2003.149943	None	2003.634556	None	2003.634556	2004.63721	2005.74011	None	2005.74011	None	left	2005.74011	None	2006.208004	2007.745393	None	None	0.422458127							0.3406256							110	1	18	1	2019_Dec_06_1308	Test	3.2.4	59.83998513		Pictures/IA100_G80.bmp	Pictures/IA100_G80.bmp	Pictures/IA100.bmp	"Why not gamble?"""""	1	risk					4	0	4	0	0	14	14	17																															2007.762106	None	2009.784108	2011.304784	2011.288074	None	2012.858883	None	1	2014.814047	None	2014.814047	None	2014.814047	None	2015.18168	None	2015.18168	2016.18432	2017.287237	None	2017.287237	None	right	2017.287237	None	None	None	2017.704999	2019.292524	0.379304524							0.268527179							110	1	18	1	2019_Dec_06_1308	Test	3.2.4	59.83998513		Pictures/IA75_L30.bmp	Pictures/IA75_L30.bmp	Pictures/IA75.bmp	"Hold back"	0	safe					4	0	4	0	0	15	15	6																															2019.309232	None	2021.33124	2022.835202	2022.818497	None	2024.37259	None	1	2026.361173	None	2026.361173	None	2026.361173	None	2027.029601	None	2027.029601	2028.032241	2029.135157	None	2029.135157	None	left	2029.135157	None	2029.619764	2031.140441	None	None	0.443395837							0.529389175							110	1	18	1	2019_Dec_06_1308	Test	3.2.4	59.83998513		Pictures/IA25_G10.bmp	Pictures/IA25_G10.bmp	Pictures/IA25.bmp	"What's life without a little risk?"""""	1	risk					4	0	4	0	0	16	16	12																															2031.157152	None	2033.179155	2034.699832	2034.683124	None	2036.253932	None	1	2038.209092	None	2038.209092	None	2038.209092	None	2039.02792	None	2039.02792	2040.030558	2041.133488	None	2041.133488	None	left	2041.133488	None	2041.668217	2043.138759	None	None	0.485066461							0.689472688							110	1	18	1	2019_Dec_06_1308	Test	3.2.4	59.83998513		Pictures/IA75_G15.bmp	Pictures/IA75_G15.bmp	Pictures/IA75.bmp	"Take a chance!"""""	1	risk					4	0	4	0	0	17	17	19																															2043.15547	None	2045.177472	2046.698152	2046.681441	None	2048.252259	None	1	2050.20741	None	2050.20741	None	2050.20741	None	2050.875839	None	2050.875839	2051.878484	2052.981396	None	2052.981396	None	left	2052.981396	None	2053.39916	2054.969967	None	None	0.381152005							0.571166765							110	1	18	1	2019_Dec_06_1308	Test	3.2.4	59.83998513		Pictures/IA80_40_L95p.bmp	Pictures/IA80_40_L95p.bmp	Pictures/IA80.bmp	"Let's stay with the certain option."""""	0	safe					4	0	4	0	0	18	18	5																															2054.986696	None	2057.042105	2058.54607	2058.52937	None	2060.033335	None	1	2062.038627	None	2062.038627	None	2062.038627	None	2062.640206	None	2062.640206	2063.642848	2064.745763	None	2064.745763	None	right	2064.745763	None	None	None	2065.01314	2066.751046	0.224791225							0.483939096							110	1	18	1	2019_Dec_06_1308	Test	3.2.4	59.83998513		Pictures/IA50_L30.bmp	Pictures/IA50_L30.bmp	Pictures/IA50.bmp	"Take a leap"	1	risk					4	0	4	0	0	19	19	13																															2066.767759	None	2068.789765	2070.310437	2070.293734	None	2071.831122	None	1	2073.819705	None	2073.819705	None	2073.819705	None	2074.354442	None	2074.354442	2075.357084	2076.459999	None	2076.459999	None	left	2076.459999	None	2077.02816	2078.465285	None	None	0.534545427							0.390855799							110	1	18	1	2019_Dec_06_1308	Test	3.2.4	59.83998513												4	0	4	0																																																																									2078.6324	None	return	7.114142408	2078.6324	None	110	1	18	1	2019_Dec_06_1308	Test	3.2.4	59.83998513		Pictures/IA110_55_G95p.bmp	Pictures/IA110_55_G95p.bmp	Pictures/IA110.bmp	"Take a chance!"""""	1	risk					5	0	5	0	0	0	0	2													2085.901569	None	2085.901569	None	2085.901569	None	left	3.844974139	2085.901569	None	2085.901569	None	2085.901569	None	return	6.444764063	2085.901569	None	2092.40205	None	2094.407339	2095.928017	2095.911314	None	2097.415279	None	1	2099.420573	None	2099.420573	None	2099.420573	None	2100.055575	None	2100.055575	2101.058216	2102.161135	None	2102.161135	None	left	2102.161135	None	2102.428499	2104.166416	None	None	0.217420941							0.549983243							110	1	18	1	2019_Dec_06_1308	Test	3.2.4	59.83998513		Pictures/IA100_L60.bmp	Pictures/IA100_L60.bmp	Pictures/IA100.bmp	"You'd have a lot to lose"	0	safe					5	0	5	0	0	1	1	8																															2104.18313	None	2106.20513	2107.725808	2107.7091	None	2109.246488	None	1	2111.23507	None	2111.23507	None	2111.23507	None	2111.753101	None	2111.753101	2112.755742	2113.858659	None	2113.858659	None	right	2113.858659	None	None	None	2114.159448	2115.863944	0.26389245							0.375491462							110	1	18	1	2019_Dec_06_1308	Test	3.2.4	59.83998513		Pictures/IA75_G15.bmp	Pictures/IA75_G15.bmp	Pictures/IA75.bmp	"Take a chance!"""""	1	risk					5	0	5	0	0	2	2	9																															2115.880657	None	2117.902659	2119.423333	2119.406628	None	2120.910595	None	1	2122.932595	None	2122.932595	None	2122.932595	None	2123.751419	None	2123.751419	2124.75406	2125.856977	None	2125.856977	None	left	2125.856977	None	2126.893043	None	None	None	1.001582395							0.725983039							110	1	18	1	2019_Dec_06_1308	Test	3.2.4	59.83998513		Pictures/IA25_L10.bmp	Pictures/IA25_L10.bmp	Pictures/IA25.bmp	"Dont be afraid to take the risk!"""""	1	risk					5	0	5	0	0	3	3	18																															2127.878974	None	2129.900977	2131.421651	2131.404946	None	2132.975758	None	1	2134.930914	None	2134.930914	None	2134.930914	None	2135.398814	None	2135.398814	2136.401454	2137.504371	None	2137.504371	None	right	2137.504371	None	None	None	2137.938845	2139.509655	0.394181261							0.3516496							110	1	18	1	2019_Dec_06_1308	Test	3.2.4	59.83998513		Pictures/IA25_L15.bmp	Pictures/IA25_L15.bmp	Pictures/IA25.bmp	"There's not much on the line here"	1	risk					5	0	5	0	0	4	4	14																															2139.526366	None	2141.548368	2143.069048	2143.05234	None	2144.556307	None	1	2146.57831	None	2146.57831	None	2146.57831	None	2147.062919	None	2147.062919	2148.065559	2149.168474	None	2149.168474	None	right	2149.168474	None	None	None	2149.80348	2151.173759	0.586076726							0.344258968							110	1	18	1	2019_Dec_06_1308	Test	3.2.4	59.83998513		Pictures/IA25_G10.bmp	Pictures/IA25_G10.bmp	Pictures/IA25.bmp	"What's life without a little risk?"""""	1	risk					5	0	5	0	0	5	5	17																															2151.190471	None	2153.212474	2154.716439	2154.699732	None	2156.220411	None	1	2158.242417	None	2158.242417	None	2158.242417	None	2159.211633	None	2159.211633	2160.214274	2161.317192	None	2161.317192	None	left	2161.317192	None	2161.651403	2163.322439	None	None	0.285368521							0.848138327							110	1	18	1	2019_Dec_06_1308	Test	3.2.4	59.83998513		Pictures/IA75_L45.bmp	Pictures/IA75_L45.bmp	Pictures/IA75.bmp	"Don't gamble for this one"	0	safe					5	0	5	0	0	6	6	10																															2163.339189	None	2165.36119	2166.865156	2166.848449	None	2168.369126	None	1	2170.391129	None	2170.391129	None	2170.391129	None	2171.059559	None	2171.059559	2172.062198	2173.181826	None	2173.181826	None	left	2173.181826	None	2174.685786	None	None	None	1.460734595							0.523444411							110	1	18	1	2019_Dec_06_1308	Test	3.2.4	59.83998513		Pictures/IA110_55_L95p.bmp	Pictures/IA110_55_L95p.bmp	Pictures/IA110.bmp	"Trust me and gamble!"""""	1	risk					5	0	5	0	0	7	7	11																															2175.203822	None	2177.225824	2178.7465	2178.729793	None	2180.250471	None	1	2182.255767	None	2182.255767	None	2182.255767	None	2183.759733	None	2183.759733	2184.762373	2185.865287	None	2185.865287	None	right	2185.865287	None	None	None	2186.232917	2187.870577	0.329260797							1.418793706							110	1	18	1	2019_Dec_06_1308	Test	3.2.4	59.83998513		Pictures/IA100_G60.bmp	Pictures/IA100_G60.bmp	Pictures/IA100.bmp	"Be cautious"	0	safe					5	0	5	0	0	8	8	12																															2187.887279	None	2189.909286	2191.429962	2191.413258	None	2192.967354	None	1	2194.939225	None	2194.939225	None	2194.939225	None	2195.691203	None	2195.691203	2196.693845	2197.796764	None	2197.796764	None	left	2197.796764	None	2198.381632	2199.785336	None	None	0.549781184							0.607349308							110	1	18	1	2019_Dec_06_1308	Test	3.2.4	59.83998513		Pictures/IA100_L40.bmp	Pictures/IA100_L40.bmp	Pictures/IA100.bmp	"Think of the payoff"	1	risk					5	0	5	0	0	9	9	5																															2199.802046	None	2201.824052	2203.34469	2203.328019	None	2204.882117	None	1	2206.853991	None	2206.853991	None	2206.853991	None	2208.007027	None	2208.007027	2209.009674	2210.112587	None	2210.112587	None	right	2210.112587	None	None	None	2210.814432	2212.11787	0.657978497							1.052572488							110	1	18	1	2019_Dec_06_1308	Test	3.2.4	59.83998513		Pictures/IA50_G20.bmp	Pictures/IA50_G20.bmp	Pictures/IA50.bmp	"Let's venture and take a risk!"""""	1	risk					5	0	5	0	0	10	10	3																															2212.134582	None	2214.156584	2215.677261	2215.660555	None	2217.181231	None	1	2219.186526	None	2219.186526	None	2219.186526	None	2219.721267	None	2219.721267	2220.723907	2221.843534	None	2221.843534	None	left	2221.843534	None	2222.311429	2223.84882	None	None	0.431014059							0.4240211							110	1	18	1	2019_Dec_06_1308	Test	3.2.4	59.83998513		Pictures/IA20_10_L95p.bmp	Pictures/IA20_10_L95p.bmp	Pictures/IA20.bmp	"Don't be tempted to gamble."""""	0	safe					5	0	5	0	0	11	11	6																															2223.865528	None	2225.887533	2227.408209	2227.391501	None	2228.91218	None	1	2230.917478	None	2230.917478	None	2230.917478	None	2231.351956	None	2231.351956	2232.354607	2233.474217	None	2233.474217	None	right	2233.474217	None	None	None	2234.142646	2235.479502	0.632335109							0.325085673							110	1	18	1	2019_Dec_06_1308	Test	3.2.4	59.83998513		Pictures/IA40_20_L95p.bmp	Pictures/IA40_20_L95p.bmp	Pictures/IA40.bmp	"Trust me and gamble!"""""	1	risk					5	0	5	0	0	12	12	19																															2235.496227	None	2237.518217	2239.038891	2239.022184	None	2240.542865	None	1	2242.548166	None	2242.548166	None	2242.548166	None	2242.9325	None	2242.9325	2243.935141	2245.038057	None	2245.038057	None	right	2245.038057	None	None	None	2245.305425	2247.043342	0.228497017							0.286399964							110	1	18	1	2019_Dec_06_1308	Test	3.2.4	59.83998513		Pictures/IA75_G30.bmp	Pictures/IA75_G30.bmp	Pictures/IA75.bmp	"Be bold"	1	risk					5	0	5	0	0	13	13	0																															2247.060054	None	2249.08206	2250.602734	2250.586028	None	2252.140129	None	1	2254.111996	None	2254.111996	None	2254.111996	None	2254.747001	None	2254.747001	2255.749644	2256.885982	None	2256.885982	None	left	2256.885982	None	2257.587842	2258.89127	None	None	0.652579628							0.538580171							110	1	18	1	2019_Dec_06_1308	Test	3.2.4	59.83998513		Pictures/IA100_G80.bmp	Pictures/IA100_G80.bmp	Pictures/IA100.bmp	"Why not gamble?"""""	1	risk					5	0	5	0	0	14	14	13																															2258.907977	None	2260.929992	2262.450655	2262.433951	None	2263.937918	None	1	2265.959962	None	2265.959962	None	2265.959962	None	2267.213225	None	2267.213225	2268.215864	2269.31878	None	2269.31878	None	right	2269.31878	None	None	None	2269.703158	2271.307353	0.34778473							1.154584252							110	1	18	1	2019_Dec_06_1308	Test	3.2.4	59.83998513		Pictures/IA50_L40.bmp	Pictures/IA50_L40.bmp	Pictures/IA50.bmp	"That gamble doesn't sound too good"	0	safe					5	0	5	0	0	15	15	16																															2271.324066	None	2273.346075	2274.866746	2274.850044	None	2276.387392	None	None	2278.376008	None	2278.376008	None	2278.376008	None	None	None	None	None	2281.534362	None	2281.534362	None	left	2281.534362	None	2282.135921	2283.539624	None	None	0.556185817														110	1	18	1	2019_Dec_06_1308	Test	3.2.4	59.83998513		Pictures/IA80_40_L95p.bmp	Pictures/IA80_40_L95p.bmp	Pictures/IA80.bmp	"Let's stay with the certain option."""""	0	safe					5	0	5	0	0	16	16	7																															2283.556337	None	2285.595051	2287.099015	2287.08231	None	2288.602986	None	1	2290.608278	None	2290.608278	None	2290.608278	None	2291.159734	None	2291.159734	2292.162375	2293.265288	None	2293.265288	None	right	2293.265288	None	None	None	2293.599497	2295.270572	0.289262241							0.418285769							110	1	18	1	2019_Dec_06_1308	Test	3.2.4	59.83998513		Pictures/IA20_10_G95p.bmp	Pictures/IA20_10_G95p.bmp	Pictures/IA20.bmp	"Take a leap"	1	risk					5	0	5	0	0	17	17	15																															2295.287283	None	2297.309292	2298.829964	2298.813258	None	2300.367355	None	1	2302.339229	None	2302.339229	None	2302.339229	None	2303.475556	None	2303.475556	2304.478197	2305.581115	None	2305.581115	None	left	2305.581115	None	2305.948744	2307.586396	None	None	0.33344104							0.999334104							110	1	18	1	2019_Dec_06_1308	Test	3.2.4	59.83998513		Pictures/IA75_L30.bmp	Pictures/IA75_L30.bmp	Pictures/IA75.bmp	"Hold back"	0	safe					5	0	5	0	0	18	18	1																															2307.603108	None	2309.625111	2311.14579	2311.129081	None	2312.633047	None	1	2314.655055	None	2314.655055	None	2314.655055	None	2316.092176	None	2316.092176	2317.094816	2318.197732	None	2318.197732	None	left	2318.197732	None	2318.498523	2320.186305	None	None	0.260815224							1.307510218							110	1	18	1	2019_Dec_06_1308	Test	3.2.4	59.83998513		Pictures/IA75_L15.bmp	Pictures/IA75_L15.bmp	Pictures/IA75.bmp	"Trust me and gamble!"""""	1	risk					5	0	5	0	0	19	19	4																															2320.203017	None	2322.225025	2323.745695	2323.728989	None	2325.249665	None	1	2327.25496	None	2327.25496	None	2327.25496	None	2327.55575	None	2327.55575	2328.558392	2329.661371	None	2329.661371	None	right	2329.661371	None	None	None	2329.911964	2331.649881	0.213166447							0.195600802							110	1	18	1	2019_Dec_06_1308	Test	3.2.4	59.83998513												5	0	5	0																																																																									2331.816994	None	return	12.26555464	2331.816994	None	110	1	18	1	2019_Dec_06_1308	Test	3.2.4	59.83998513		Pictures/IA75_G60.bmp	Pictures/IA75_G60.bmp	Pictures/IA75.bmp	"Make it exciting"	1	risk					6	0	6	0	0	0	0	5													2344.233084	None	2344.233084	None	2344.233084	None	left	2.161466595	2344.233084	None	2344.233084	None	2344.233084	None	return	4.889275503	2344.233084	None	2349.179469	None	2351.184753	2352.70543	2352.688723	None	2354.226111	None	1	2356.197982	None	2356.197982	None	2356.197982	None	2356.548907	None	2356.548907	2357.551547	2358.654464	None	2358.654464	None	right	2358.654464	None	None	None	2359.088938	2360.643038	0.396088533							0.22857418							110	1	18	1	2019_Dec_06_1308	Test	3.2.4	59.83998513		Pictures/IA25_G5.bmp	Pictures/IA25_G5.bmp	Pictures/IA25.bmp	"Let's stay with the certain option."""""	0	safe					6	0	6	0	0	1	1	12																															2360.659749	None	2362.681752	2364.202427	2364.185725	None	2365.739821	None	1	2367.711692	None	2367.711692	None	2367.711692	None	2368.580654	None	2368.580654	2369.583289	2370.686206	None	2370.686206	None	left	2370.686206	None	2371.103995	2372.674785	None	None	0.380345816							0.738884451							110	1	18	1	2019_Dec_06_1308	Test	3.2.4	59.83998513		Pictures/IA100_G20.bmp	Pictures/IA100_G20.bmp	Pictures/IA100.bmp	"Go ahead and gamble!"""""	1	risk					6	0	6	0	0	2	2	9																															2372.691493	None	2374.713494	2376.234171	2376.217467	None	2377.738142	None	1	2379.743436	None	2379.743436	None	2379.743436	None	2381.130432	None	2381.130432	2382.133067	2383.235984	None	2383.235984	None	left	2383.235984	None	2383.620328	2385.224557	None	None	0.334571879							1.299121835							110	1	18	1	2019_Dec_06_1308	Test	3.2.4	59.83998513		Pictures/IA25_L15.bmp	Pictures/IA25_L15.bmp	Pictures/IA25.bmp	"There's not much on the line here"	1	risk					6	0	6	0	0	3	3	8																															2385.24127	None	2387.263272	2388.783946	2388.767241	None	2390.287919	None	None	2392.293217	None	2392.293217	None	2392.293217	None	None	None	None	None	2395.401412	None	2395.401412	None	right	2395.401412	None	None	None	2396.337209	2397.4067	0.88914685														110	1	18	1	2019_Dec_06_1308	Test	3.2.4	59.83998513		Pictures/IA50_L20.bmp	Pictures/IA50_L20.bmp	Pictures/IA50.bmp	"Certainty is boring"	1	risk					6	0	6	0	0	4	4	16																															2397.423414	None	2399.445412	2400.966089	2400.949383	None	2402.470058	None	1	2404.475348	None	2404.475348	None	2404.475348	None	2404.909832	None	2404.909832	2405.912471	2407.015386	None	2407.015386	None	right	2407.015386	None	None	None	2407.449867	2409.020673	0.395164923							0.319217237							110	1	18	1	2019_Dec_06_1308	Test	3.2.4	59.83998513		Pictures/IA75_G45.bmp	Pictures/IA75_G45.bmp	Pictures/IA75.bmp	"Don't gamble for this one."""""	0	safe					6	0	6	0	0	5	5	1																															2409.037383	None	2411.059387	2412.580068	2412.563357	None	2414.084022	None	1	2416.089331	None	2416.089331	None	2416.089331	None	2416.724339	None	2416.724339	2417.726981	2418.829891	None	2418.829891	None	left	2418.829891	None	2419.197529	2420.835178	None	None	0.324662652							0.529230865							110	1	18	1	2019_Dec_06_1308	Test	3.2.4	59.83998513		Pictures/IA50_L40.bmp	Pictures/IA50_L40.bmp	Pictures/IA50.bmp	"That gamble doesn't sound too good"	0	safe					6	0	6	0	0	6	6	14																															2420.851886	None	2422.873891	2424.394568	2424.37786	None	2425.881827	None	1	2427.903832	None	2427.903832	None	2427.903832	None	2429.742013	None	2429.742013	2430.744653	2431.84757	None	2431.84757	None	left	2431.84757	None	2432.465862	2433.836144	None	None	0.578981462							1.682725132							110	1	18	1	2019_Dec_06_1308	Test	3.2.4	59.83998513		Pictures/IA75_L45.bmp	Pictures/IA75_L45.bmp	Pictures/IA75.bmp	"Don't gamble for this one"	0	safe					6	0	6	0	0	7	7	15																															2433.852857	None	2435.874858	2437.395535	2437.378828	None	2438.899503	None	1	2440.904797	None	2440.904797	None	2440.904797	None	2443.728916	None	2443.728916	2444.731557	2445.867895	None	2445.867895	None	left	2445.867895	None	2446.202103	2447.873178	None	None	0.286663051							2.697764727							110	1	18	1	2019_Dec_06_1308	Test	3.2.4	59.83998513		Pictures/IA75_L15.bmp	Pictures/IA75_L15.bmp	Pictures/IA75.bmp	"Trust me and gamble!"""""	1	risk					6	0	6	0	0	8	8	6																															2447.889889	None	2449.911891	2451.432574	2451.415864	None	2452.919831	None	None	2454.941836	None	2454.941836	None	2454.941836	None	None	None	None	None	2458.033323	None	2458.033323	None	right	2458.033323	None	None	None	2458.283982	2460.021898	0.201241729														110	1	18	1	2019_Dec_06_1308	Test	3.2.4	59.83998513		Pictures/IA20_10_L95p.bmp	Pictures/IA20_10_L95p.bmp	Pictures/IA20.bmp	"Don't be tempted to gamble."""""	0	safe					6	0	6	0	0	9	9	3																															2460.038608	None	2462.060613	2463.581288	2463.564582	None	2465.085258	None	None	2467.090568	None	2467.090568	None	2467.090568	None	None	None	None	None	2470.182044	None	2470.182044	None	right	2470.182044	None	None	None	2471.702715	None	1.476515306														110	1	18	1	2019_Dec_06_1308	Test	3.2.4	59.83998513		Pictures/IA100_G80.bmp	Pictures/IA100_G80.bmp	Pictures/IA100.bmp	"Why not gamble?"""""	1	risk					6	0	6	0	0	10	10	7																															2472.187326	None	2474.209328	2475.730013	2475.7133	None	2477.233982	None	None	2479.239244	None	2479.239244	None	2479.239244	None	None	None	None	None	2482.330762	None	2482.330762	None	right	2482.330762	None	None	None	2482.848807	2484.319335	0.479794411														110	1	18	1	2019_Dec_06_1308	Test	3.2.4	59.83998513		Pictures/IA75_L60.bmp	Pictures/IA75_L60.bmp	Pictures/IA75.bmp	"Why not take the gamble?"""""	1	risk					6	0	6	0	0	11	11	17																															2484.336048	None	2486.358051	2487.87873	2487.86202	None	2489.416136	None	1	2491.387986	None	2491.387986	None	2491.387986	None	2492.139972	None	2492.139972	2493.142613	2494.262242	None	2494.262242	None	left	2494.262242	None	2495.281591	None	None	None	0.980302176							0.638586686							110	1	18	1	2019_Dec_06_1308	Test	3.2.4	59.83998513		Pictures/IA25_G15.bmp	Pictures/IA25_G15.bmp	Pictures/IA25.bmp	"I think you should take a gamble."""""	1	risk					6	0	6	0	0	12	12	18																															2496.267526	None	2498.28953	2499.810206	2499.793499	None	2501.314176	None	1	2503.31947	None	2503.31947	None	2503.31947	None	2504.639617	None	2504.639617	2505.642257	2506.745176	None	2506.745176	None	right	2506.745176	None	None	None	2507.530576	2508.733749	0.745374337							1.195092723							110	1	18	1	2019_Dec_06_1308	Test	3.2.4	59.83998513		Pictures/IA25_L5.bmp	Pictures/IA25_L5.bmp	Pictures/IA25.bmp	"It would be smarter to choose the safe option."""""	0	safe					6	0	6	0	0	13	13	11																															2508.750461	None	2510.772465	2512.293141	2512.276438	None	2513.830533	None	1	2515.802406	None	2515.802406	None	2515.802406	None	2516.82176	None	2516.82176	2517.824401	2518.927318	None	2518.927318	None	None	2518.927318	None	None	None	None	None								0.880151619							110	1	18	1	2019_Dec_06_1308	Test	3.2.4	59.83998513		Pictures/IA100_G60.bmp	Pictures/IA100_G60.bmp	Pictures/IA100.bmp	"Be cautious"	0	safe					6	0	6	0	0	14	14	19																															2520.932605	None	2522.954604	2524.475282	2524.458574	None	2525.979252	None	1	2527.984553	None	2527.984553	None	2527.984553	None	2528.686394	None	2528.686394	2529.689037	2530.808667	None	2530.808667	None	left	2530.808667	None	2531.560642	2532.797242	None	None	0.705887987							0.554010841							110	1	18	1	2019_Dec_06_1308	Test	3.2.4	59.83998513		Pictures/IA80_40_L95p.bmp	Pictures/IA80_40_L95p.bmp	Pictures/IA80.bmp	"Let's stay with the certain option."""""	0	safe					6	0	6	0	0	15	15	13																															2532.813949	None	2534.835952	2536.35663	2536.339923	None	2537.860601	None	None	2539.865892	None	2539.865892	None	2539.865892	None	None	None	None	None	2542.99082	None	2542.99082	None	right	2542.99082	None	None	None	2543.291595	2544.996101	0.251735316														110	1	18	1	2019_Dec_06_1308	Test	3.2.4	59.83998513		Pictures/IA25_G10.bmp	Pictures/IA25_G10.bmp	Pictures/IA25.bmp	"What's life without a little risk?"""""	1	risk					6	0	6	0	0	16	16	4																															2545.012801	None	2547.034805	2548.555482	2548.538774	None	2550.059456	None	1	2552.064752	None	2552.064752	None	2552.064752	None	2553.033971	None	2553.033971	2554.036607	2555.139524	None	2555.139524	None	left	2555.139524	None	2556.442958	None	None	None	1.263031986							0.849806959							110	1	18	1	2019_Dec_06_1308	Test	3.2.4	59.83998513		Pictures/IA75_G30.bmp	Pictures/IA75_G30.bmp	Pictures/IA75.bmp	"Be bold"	1	risk					6	0	6	0	0	17	17	2																															2557.161519	None	2559.183523	2560.708305	2560.69074	None	2562.208176	None	1	2564.230176	None	2564.230176	None	2564.230176	None	2565.048999	None	2565.048999	2566.051647	2567.171267	None	2567.171267	None	left	2567.171267	None	2567.672588	2569.176554	None	None	0.455287325							0.724386753							110	1	18	1	2019_Dec_06_1308	Test	3.2.4	59.83998513		Pictures/IA50_G10.bmp	Pictures/IA50_G10.bmp	Pictures/IA50.bmp	"Go with the safe option here!"""""	0	safe					6	0	6	0	0	18	18	0																															2569.193265	None	2571.215269	2572.735946	2572.719239	None	2574.239917	None	None	2576.245209	None	2576.245209	None	2576.245209	None	None	None	None	None	2579.336704	None	2579.336704	None	left	2579.336704	None	2579.888149	2581.325277	None	None	0.505848184														110	1	18	1	2019_Dec_06_1308	Test	3.2.4	59.83998513		Pictures/IA40_20_L95p.bmp	Pictures/IA40_20_L95p.bmp	Pictures/IA40.bmp	"Trust me and gamble!"""""	1	risk					6	0	6	0	0	19	19	10																															2581.341991	None	2583.363988	2584.884669	2584.86796	None	2586.388637	None	1	2588.393929	None	2588.393929	None	2588.393929	None	2588.861829	None	2588.861829	2589.864473	2590.967386	None	2590.967386	None	right	2590.967386	None	None	None	2591.284886	2592.955961	0.275164083							0.360644151							110	1	18	1	2019_Dec_06_1308	Test	3.2.4	59.83998513												6	0	6	0																																																																									2593.123074	None	return	6.767471657	2593.123074	None	110	1	18	1	2019_Dec_06_1308	Test	3.2.4	59.83998513		Pictures/IA75_L45.bmp	Pictures/IA75_L45.bmp	Pictures/IA75.bmp	"Don't gamble for this one"	0	safe					7	0	7	0	0	0	0	15													2600.058037	None	2600.058037	None	2600.058037	None	left	1.152508467	2600.058037	None	2600.058037	None	2600.058037	None	return	2.696325639	2600.058037	None	2602.81531	None	2604.820602	2606.341279	2606.324571	None	2607.811831	None	1	2609.833832	None	2609.833832	None	2609.833832	None	2610.95345	None	2610.95345	2611.956096	2613.059012	None	2613.059012	None	left	2613.059012	None	2613.376506	2615.047582	None	None	0.271539665							0.984730453							110	1	18	1	2019_Dec_06_1308	Test	3.2.4	59.83998513		Pictures/IA50_G10.bmp	Pictures/IA50_G10.bmp	Pictures/IA50.bmp	"Go with the safe option here!"""""	0	safe					7	0	7	0	0	1	1	4																															2615.064294	None	2617.086299	2618.606973	2618.590267	None	2620.094236	None	1	2622.116239	None	2622.116239	None	2622.116239	None	2623.269282	None	2623.269282	2624.271935	2625.374836	None	2625.374836	None	left	2625.374836	None	2625.892865	2627.363413	None	None	0.475715742							1.038324397							110	1	18	1	2019_Dec_06_1308	Test	3.2.4	59.83998513		Pictures/IA50_G20.bmp	Pictures/IA50_G20.bmp	Pictures/IA50.bmp	"Let's venture and take a risk!"""""	1	risk					7	0	7	0	0	2	2	6																															2627.380123	None	2629.402134	2630.922802	2630.906096	None	2632.426773	None	1	2634.432066	None	2634.432066	None	2634.432066	None	2635.167337	None	2635.167337	2636.169983	2637.272897	None	2637.272897	None	left	2637.272897	None	2637.623816	2639.261496	None	None	0.313661158							0.610497422							110	1	18	1	2019_Dec_06_1308	Test	3.2.4	59.83998513		Pictures/IA50_L30.bmp	Pictures/IA50_L30.bmp	Pictures/IA50.bmp	"Take a leap"	1	risk					7	0	7	0	0	3	3	3																															2639.278182	None	2641.300185	2642.820862	2642.804155	None	2644.324835	None	1	2646.330131	None	2646.330131	None	2646.330131	None	2647.800672	None	2647.800672	2648.803314	2649.906247	None	2649.906247	None	right	2649.906247	None	None	None	2650.407547	2651.911515	0.456315184							1.320423906							110	1	18	1	2019_Dec_06_1308	Test	3.2.4	59.83998513		Pictures/IA75_L15.bmp	Pictures/IA75_L15.bmp	Pictures/IA75.bmp	"Trust me and gamble!"""""	1	risk					7	0	7	0	0	4	4	18																															2651.928225	None	2653.950228	2655.470908	2655.454199	None	2656.974883	None	None	2658.980171	None	2658.980171	None	2658.980171	None	None	None	None	None	2662.071662	None	2662.071662	None	right	2662.071662	None	None	None	2662.472715	2664.076946	0.362888503														110	1	18	1	2019_Dec_06_1308	Test	3.2.4	59.83998513		Pictures/IA110_55_G95p.bmp	Pictures/IA110_55_G95p.bmp	Pictures/IA110.bmp	"Take a chance!"""""	1	risk					7	0	7	0	0	5	5	10																															2664.093657	None	2666.115667	2667.636339	2667.619632	None	2669.157025	None	None	2671.145602	None	2671.145602	None	2671.145602	None	None	None	None	None	2674.220385	None	2674.220385	None	left	2674.220385	None	2674.654857	2676.208956	None	None	0.390171037														110	1	18	1	2019_Dec_06_1308	Test	3.2.4	59.83998513		Pictures/IA20_10_L95p.bmp	Pictures/IA20_10_L95p.bmp	Pictures/IA20.bmp	"Don't be tempted to gamble."""""	0	safe					7	0	7	0	0	6	6	19																															2676.225673	None	2678.247673	2679.768348	2679.751644	None	2681.25561	None	None	2683.277612	None	2683.277612	None	2683.277612	None	None	None	None	None	2686.402524	None	2686.402524	None	right	2686.402524	None	None	None	2687.672538	None	1.223977221														110	1	18	1	2019_Dec_06_1308	Test	3.2.4	59.83998513		Pictures/IA20_10_G95p.bmp	Pictures/IA20_10_G95p.bmp	Pictures/IA20.bmp	"Take a leap"	1	risk					7	0	7	0	0	7	7	7																															2688.424521	None	2690.446523	2691.967208	2691.950496	None	2693.471179	None	None	2695.476472	None	2695.476472	None	2695.476472	None	None	None	None	None	2698.618091	None	2698.618091	None	left	2698.618091	None	2699.069277	2700.606663	None	None	0.408476405														110	1	18	1	2019_Dec_06_1308	Test	3.2.4	59.83998513		Pictures/IA75_G30.bmp	Pictures/IA75_G30.bmp	Pictures/IA75.bmp	"Be bold"	1	risk					7	0	7	0	0	8	8	1																															2700.623374	None	2702.64538	2704.166056	2704.149349	None	2705.670028	None	None	2707.675319	None	2707.675319	None	2707.675319	None	None	None	None	None	2710.766818	None	2710.766818	None	None	2710.766818	None	None	None	None	None															110	1	18	1	2019_Dec_06_1308	Test	3.2.4	59.83998513		Pictures/IA50_G40.bmp	Pictures/IA50_G40.bmp	Pictures/IA50.bmp	"It would probably be best to play it safe."""""	0	safe					7	0	7	0	0	9	9	11																															2712.772096	None	2714.7941	2716.314778	2716.29807	None	2717.818749	None	None	2719.907603	None	2719.907603	None	2719.907603	None	None	None	None	None	2722.932251	None	2722.932251	None	right	2722.932251	None	None	None	2723.21632	2724.920833	0.238313976														110	1	18	1	2019_Dec_06_1308	Test	3.2.4	59.83998513		Pictures/IA75_G60.bmp	Pictures/IA75_G60.bmp	Pictures/IA75.bmp	"Make it exciting"	1	risk					7	0	7	0	0	10	10	16																															2724.93753	None	2726.959533	2728.480211	2728.463503	None	2729.98418	None	1	2731.989481	None	2731.989481	None	2731.989481	None	2732.624483	None	2732.624483	2733.627121	2734.73004	None	2734.73004	None	right	2734.73004	None	None	None	2735.331649	2736.735324	0.56050724							0.5170974							110	1	18	1	2019_Dec_06_1308	Test	3.2.4	59.83998513		Pictures/IA100_L60.bmp	Pictures/IA100_L60.bmp	Pictures/IA100.bmp	"You'd have a lot to lose"	0	safe					7	0	7	0	0	11	11	8																															2736.752041	None	2738.774038	2740.294716	2740.278009	None	2741.798688	None	None	2743.803979	None	2743.803979	None	2743.803979	None	None	None	None	None	2746.912183	None	2746.912183	None	None	2746.912183	None	None	None	None	None															110	1	18	1	2019_Dec_06_1308	Test	3.2.4	59.83998513		Pictures/IA25_G20.bmp	Pictures/IA25_G20.bmp	Pictures/IA25.bmp	"I wouldn't gamble for this one. """""	0	safe					7	0	7	0	0	12	12	0																															2748.917468	None	2750.939474	2752.460149	2752.443442	None	2753.98083	None	1	2755.969414	None	2755.969414	None	2755.969414	None	2757.540225	None	2757.540225	2758.542866	2759.645782	None	2759.645782	None	right	2759.645782	None	None	None	2759.996713	2761.634359	0.308770271							1.441152654							110	1	18	1	2019_Dec_06_1308	Test	3.2.4	59.83998513		Pictures/IA50_L40.bmp	Pictures/IA50_L40.bmp	Pictures/IA50.bmp	"That gamble doesn't sound too good"	0	safe					7	0	7	0	0	13	13	9																															2761.651083	None	2763.67307	2765.193749	2765.177045	None	2766.697747	None	1	2768.703018	None	2768.703018	None	2768.703018	None	2770.173563	None	2770.173563	2771.176246	2772.295846	None	2772.295846	None	left	2772.295846	None	2772.797176	2774.284425	None	None	0.466736523							1.307552006							110	1	18	1	2019_Dec_06_1308	Test	3.2.4	59.83998513		Pictures/IA50_L20.bmp	Pictures/IA50_L20.bmp	Pictures/IA50.bmp	"Certainty is boring"	1	risk					7	0	7	0	0	14	14	14																															2774.301117	None	2776.323133	2777.843848	2777.827112	None	2779.347763	None	1	2781.353057	None	2781.353057	None	2781.353057	None	2782.673208	None	2782.673208	2783.675852	2784.812182	None	2784.812182	None	right	2784.812182	None	None	None	2784.979293	2786.817471	0.118368806							1.193505823							110	1	18	1	2019_Dec_06_1308	Test	3.2.4	59.83998513		Pictures/IA25_G10.bmp	Pictures/IA25_G10.bmp	Pictures/IA25.bmp	"What's life without a little risk?"""""	1	risk					7	0	7	0	0	15	15	5																															2786.834183	None	2788.856186	2790.376864	2790.360158	None	2791.864124	None	1	2793.886092	None	2793.886092	None	2793.886092	None	2795.055886	None	2795.055886	2796.05852	2797.178149	None	2797.178149	None	left	2797.178149	None	2797.930127	2799.166723	None	None	0.704405957							1.036462892							110	1	18	1	2019_Dec_06_1308	Test	3.2.4	59.83998513		Pictures/IA100_L80.bmp	Pictures/IA100_L80.bmp	Pictures/IA100.bmp	"Go all in!"""""	1	risk					7	0	7	0	0	16	16	13																															2799.183435	None	2801.205439	2802.726115	2802.709412	None	2804.246795	None	1	2806.235382	None	2806.235382	None	2806.235382	None	2807.171189	None	2807.171189	2808.173823	2809.310166	None	2809.310166	None	left	2809.310166	None	2810.463199	None	None	None	1.108376063							0.863181093							110	1	18	1	2019_Dec_06_1308	Test	3.2.4	59.83998513		Pictures/IA50_G30.bmp	Pictures/IA50_G30.bmp	Pictures/IA50.bmp	"I think you should gamble."""""	1	risk					7	0	7	0	0	17	17	12																															2811.315447	None	2813.337455	2814.858132	2814.84144	None	2816.395521	None	None	2818.367394	None	2818.367394	None	2818.367394	None	None	None	None	None	2821.458886	None	2821.458886	None	right	2821.458886	None	None	None	2821.876649	2823.447459	0.375669628														110	1	18	1	2019_Dec_06_1308	Test	3.2.4	59.83998513		Pictures/IA25_L10.bmp	Pictures/IA25_L10.bmp	Pictures/IA25.bmp	"Dont be afraid to take the risk!"""""	1	risk					7	0	7	0	0	18	18	17																															2823.464171	None	2825.486174	2827.006857	2826.990155	None	2828.510823	None	None	2830.516117	None	2830.516117	None	2830.516117	None	None	None	None	None	2833.607607	None	2833.607607	None	None	2833.607607	None	None	None	None	None															110	1	18	1	2019_Dec_06_1308	Test	3.2.4	59.83998513		Pictures/IA40_20_G95p.bmp	Pictures/IA40_20_G95p.bmp	Pictures/IA40.bmp	"Hold back"	0	safe					7	0	7	0	0	19	19	2																															2835.612897	None	2837.634899	2839.155576	2839.13887	None	2840.659546	None	None	2842.664846	None	2842.664846	None	2842.664846	None	None	None	None	None	2845.806467	None	2845.806467	None	left	2845.806467	None	2846.073832	2847.811754	None	None	0.220088364														110	1	18	1	2019_Dec_06_1308	Test	3.2.4	59.83998513												7	0	7	0																																																																									2847.978864	None	return	4.783688764	2847.978864	None	110	1	18	1	2019_Dec_06_1308	Test	3.2.4	59.83998513		Pictures/IA20_10_L95p.bmp	Pictures/IA20_10_L95p.bmp	Pictures/IA20.bmp	"Don't be tempted to gamble."""""	0	safe					8	0	8	0	0	0	0	2													2852.925247	None	2852.925247	None	2852.925247	None	left	0.949297071	2852.925247	None	2852.925247	None	2852.925247	None	return	8.269083165	2852.925247	None	2861.247205	None	2863.252496	2864.773178	2864.756467	None	2866.260435	None	None	2868.265732	None	2868.265732	None	2868.265732	None	None	None	None	None	2871.390644	None	2871.390644	None	right	2871.390644	None	None	None	2871.691435	2873.395932	0.251925288														110	1	18	1	2019_Dec_06_1308	Test	3.2.4	59.83998513		Pictures/IA50_L40.bmp	Pictures/IA50_L40.bmp	Pictures/IA50.bmp	"That gamble doesn't sound too good"	0	safe					8	0	8	0	0	1	1	18																															2873.41264	None	2875.434646	2876.95532	2876.938615	None	2878.459291	None	None	2880.464591	None	2880.464591	None	2880.464591	None	None	None	None	None	2883.589499	None	2883.589499	None	left	2883.589499	None	2884.15766	2885.594782	None	None	0.525059143														110	1	18	1	2019_Dec_06_1308	Test	3.2.4	59.83998513		Pictures/IA25_G5.bmp	Pictures/IA25_G5.bmp	Pictures/IA25.bmp	"Let's stay with the certain option."""""	0	safe					8	0	8	0	0	2	2	19																															2885.611497	None	2887.6335	2889.154183	2889.137471	None	2890.658121	None	1	2892.663446	None	2892.663446	None	2892.663446	None	2893.131342	None	2893.131342	2894.133984	2895.236898	None	2895.236898	None	left	2895.236898	None	2895.788351	2897.225475	None	None	0.501645892							0.347118427							110	1	18	1	2019_Dec_06_1308	Test	3.2.4	59.83998513		Pictures/IA50_L10.bmp	Pictures/IA50_L10.bmp	Pictures/IA50.bmp	"Play it safe"	0	safe					8	0	8	0	0	3	3	10																															2897.242187	None	2899.264197	2900.768187	2900.768187	None	2902.288839	None	None	2904.294135	None	2904.294135	None	2904.294135	None	None	None	None	None	2907.385625	None	2907.385625	None	right	2907.385625	None	None	None	2907.736552	2909.390913	0.304929141														110	1	18	1	2019_Dec_06_1308	Test	3.2.4	59.83998513		Pictures/IA100_L40.bmp	Pictures/IA100_L40.bmp	Pictures/IA100.bmp	"Think of the payoff"	1	risk					8	0	8	0	0	4	4	15																															2909.407621	None	2911.429627	2912.950304	2912.933596	None	2914.47099	None	1	2916.459571	None	2916.459571	None	2916.459571	None	2917.512345	None	2917.512345	2918.514991	2919.617902	None	2919.617902	None	right	2919.617902	None	None	None	2920.102511	2921.606475	0.440645429							0.926992562							110	1	18	1	2019_Dec_06_1308	Test	3.2.4	59.83998513		Pictures/IA75_L45.bmp	Pictures/IA75_L45.bmp	Pictures/IA75.bmp	"Don't gamble for this one"	0	safe					8	0	8	0	0	5	5	9																															2921.623191	None	2923.6452	2925.165874	2925.149168	None	2926.669844	None	1	2928.675145	None	2928.675145	None	2928.675145	None	2929.15975	None	2929.15975	2930.162391	2931.265307	None	2931.265307	None	left	2931.265307	None	2931.499253	2933.270593	None	None	0.19325351							0.335422969							110	1	18	1	2019_Dec_06_1308	Test	3.2.4	59.83998513		Pictures/IA50_G30.bmp	Pictures/IA50_G30.bmp	Pictures/IA50.bmp	"I think you should gamble."""""	1	risk					8	0	8	0	0	6	6	4																															2933.287305	None	2935.309308	2936.829986	2936.813283	None	2938.317248	None	None	2940.339254	None	2940.339254	None	2940.339254	None	None	None	None	None	2943.430744	None	2943.430744	None	right	2943.430744	None	None	None	2944.349831	2945.419321	0.883807671														110	1	18	1	2019_Dec_06_1308	Test	3.2.4	59.83998513		Pictures/IA50_L20.bmp	Pictures/IA50_L20.bmp	Pictures/IA50.bmp	"Certainty is boring"	1	risk					8	0	8	0	0	7	7	14																															2945.436031	None	2947.458035	2948.978712	2948.962008	None	2950.465973	None	1	2952.487979	None	2952.487979	None	2952.487979	None	2952.621629	None	2952.621629	2953.624309	2954.743934	None	2954.743934	None	right	2954.743934	None	None	None	2954.79406	2956.732509	0.770613499							0.018582273							110	1	18	1	2019_Dec_06_1308	Test	3.2.4	59.83998513		Pictures/IA110_55_L95p.bmp	Pictures/IA110_55_L95p.bmp	Pictures/IA110.bmp	"Trust me and gamble!"""""	1	risk					8	0	8	0	0	8	8	0																															2956.749225	None	2958.771223	2960.291903	2960.275194	None	2961.812584	None	1	2963.801166	None	2963.801166	None	2963.801166	None	2964.285777	None	2964.285777	2965.288419	2966.391336	None	2966.391336	None	right	2966.391336	None	None	None	2966.725545	2968.396624	0.291214286							0.393395638							110	1	18	1	2019_Dec_06_1308	Test	3.2.4	59.83998513		Pictures/IA25_L20.bmp	Pictures/IA25_L20.bmp	Pictures/IA25.bmp	"Don't be tempted to gamble."""""	0	safe					8	0	8	0	0	9	9	6																															2968.413332	None	2970.435341	2971.956022	2971.939309	None	2973.459993	None	1	2975.465286	None	2975.465286	None	2975.465286	None	2976.401083	None	2976.401083	2977.403723	2978.506641	None	2978.506641	None	left	2978.506641	None	2980.144291	None	None	None	1.59191536							0.817276997							110	1	18	1	2019_Dec_06_1308	Test	3.2.4	59.83998513		Pictures/IA75_G30.bmp	Pictures/IA75_G30.bmp	Pictures/IA75.bmp	"Be bold"	1	risk					8	0	8	0	0	10	10	5																															2980.528638	None	2982.550643	2984.07132	2984.054614	None	2985.575291	None	1	2987.580587	None	2987.580587	None	2987.580587	None	2988.63336	None	2988.63336	2989.636005	2990.738921	None	2990.738921	None	left	2990.738921	None	2991.507611	2992.744207	None	None	0.719625733							0.949975366							110	1	18	1	2019_Dec_06_1308	Test	3.2.4	59.83998513		Pictures/IA100_G20.bmp	Pictures/IA100_G20.bmp	Pictures/IA100.bmp	"Go ahead and gamble!"""""	1	risk					8	0	8	0	0	11	11	3																															2992.760923	None	2994.782927	2996.303604	2996.286894	None	2997.807583	None	None	2999.81287	None	2999.81287	None	2999.81287	None	None	None	None	None	3002.904358	None	3002.904358	None	left	3002.904358	None	3003.05475	3004.89293	None	None	0.114194397														110	1	18	1	2019_Dec_06_1308	Test	3.2.4	59.83998513		Pictures/IA50_G20.bmp	Pictures/IA50_G20.bmp	Pictures/IA50.bmp	"Let's venture and take a risk!"""""	1	risk					8	0	8	0	0	12	12	12																															3004.909643	None	3006.931651	3008.452327	3008.43562	None	3009.956299	None	1	3011.961592	None	3011.961592	None	3011.961592	None	3012.379362	None	3012.379362	3013.382001	3014.484929	None	3014.484929	None	right	3014.484929	None	None	None	3016.122583	None	1.589623659							0.2969644							110	1	18	1	2019_Dec_06_1308	Test	3.2.4	59.83998513		Pictures/IA50_L30.bmp	Pictures/IA50_L30.bmp	Pictures/IA50.bmp	"Take a leap"	1	risk					8	0	8	0	0	13	13	17																															3016.506917	None	3018.528919	3020.0496	3020.032896	None	3021.57028	None	1	3023.558863	None	3023.558863	None	3023.558863	None	3024.076901	None	3024.076901	3025.079538	3026.182455	None	3026.182455	None	left	3026.182455	None	3027.08483	3028.187739	None	None	0.860099613							0.395699349							110	1	18	1	2019_Dec_06_1308	Test	3.2.4	59.83998513		Pictures/IA100_G60.bmp	Pictures/IA100_G60.bmp	Pictures/IA100.bmp	"Be cautious"	0	safe					8	0	8	0	0	14	14	7																															3028.204453	None	3030.226456	3031.747136	3031.730427	None	3033.251107	None	1	3035.256405	None	3035.256405	None	3035.256405	None	3036.292466	None	3036.292466	3037.295107	3038.414734	None	3038.414734	None	left	3038.414734	None	3038.732241	3040.420021	None	None	0.267819936							0.898156014							110	1	18	1	2019_Dec_06_1308	Test	3.2.4	59.83998513		Pictures/IA25_G10.bmp	Pictures/IA25_G10.bmp	Pictures/IA25.bmp	"What's life without a little risk?"""""	1	risk					8	0	8	0	0	15	15	11																															3040.436731	None	3042.458736	3043.979415	3043.962708	None	3045.483386	None	1	3047.488681	None	3047.488681	None	3047.488681	None	3048.508036	None	3048.508036	3049.510679	3050.613595	None	3050.613595	None	left	3050.613595	None	3051.465838	3052.602169	None	None	0.812955774							0.889893538							110	1	18	1	2019_Dec_06_1308	Test	3.2.4	59.83998513		Pictures/IA25_L15.bmp	Pictures/IA25_L15.bmp	Pictures/IA25.bmp	"There's not much on the line here"	1	risk					8	0	8	0	0	16	16	13																															3052.618883	None	3054.657595	3056.161564	3056.144856	None	3057.665533	None	1	3059.67083	None	3059.67083	None	3059.67083	None	3060.924134	None	3060.924134	3061.926772	3063.029694	None	3063.029694	None	left	3063.029694	None	3064.416682	None	None	None	1.340857539							1.115728158							110	1	18	1	2019_Dec_06_1308	Test	3.2.4	59.83998513		Pictures/IA50_G10.bmp	Pictures/IA50_G10.bmp	Pictures/IA50.bmp	"Go with the safe option here!"""""	0	safe					8	0	8	0	0	17	17	8																															3065.034981	None	3067.056984	3068.560951	3068.544245	None	3070.081635	None	1	3072.086928	None	3072.086928	None	3072.086928	None	3073.089571	None	3073.089571	3074.092215	3075.195134	None	3075.195134	None	left	3075.195134	None	3075.546052	3077.183706	None	None	0.303416638							0.899646809							110	1	18	1	2019_Dec_06_1308	Test	3.2.4	59.83998513		Pictures/IA75_L30.bmp	Pictures/IA75_L30.bmp	Pictures/IA75.bmp	"Hold back"	0	safe					8	0	8	0	0	18	18	16																															3077.200417	None	3079.222432	3080.743115	3080.726395	None	3082.263798	None	1	3084.252368	None	3084.252368	None	3084.252368	None	3084.553158	None	3084.553158	3085.555799	3086.658717	None	3086.658717	None	left	3086.658717	None	3087.343855	3088.647291	None	None	0.647832871							0.182192059							110	1	18	1	2019_Dec_06_1308	Test	3.2.4	59.83998513		Pictures/IA100_L80.bmp	Pictures/IA100_L80.bmp	Pictures/IA100.bmp	"Go all in!"""""	1	risk					8	0	8	0	0	19	19	1																															3088.664003	None	3090.686012	3092.206687	3092.18998	None	3093.69395	None	1	3095.715952	None	3095.715952	None	3095.715952	None	3096.200567	None	3096.200567	3097.203205	3098.306121	None	3098.306121	None	right	3098.306121	None	None	None	3098.606908	3100.294702	0.256442861							0.398607493							110	1	18	1	2019_Dec_06_1308	Test	3.2.4	59.83998513												8	0	8	0																																																																									3100.461814	None	return	6.124730797	3100.461814	None	110	1	18	1	2019_Dec_06_1308	Test	3.2.4	59.83998513		Pictures/IA75_G45.bmp	Pictures/IA75_G45.bmp	Pictures/IA75.bmp	"Don't gamble for this one."""""	0	safe					9	0	9	0	0	0	0	3													3106.745062	None	3106.745062	None	3106.745062	None	left	7.297483982	3106.745062	None	3106.745062	None	3106.745062	None	return	10.04126987	3106.745062	None	3116.838356	None	3118.843657	3120.364327	3120.347629	None	3121.851593	None	1	3123.85688	None	3123.85688	None	3123.85688	None	3124.241228	None	3124.241228	3125.24387	3126.346788	None	3126.346788	None	left	3126.346788	None	3126.697712	3128.335362	None	None	0.303765987							0.281680255							110	1	18	1	2019_Dec_06_1308	Test	3.2.4	59.83998513		Pictures/IA75_G30.bmp	Pictures/IA75_G30.bmp	Pictures/IA75.bmp	"Be bold"	1	risk					9	0	9	0	0	1	1	16																															3128.352078	None	3130.374079	3131.894755	3131.878056	None	3133.382023	None	1	3135.404023	None	3135.404023	None	3135.404023	None	3136.239562	None	3136.239562	3137.242201	3138.345119	None	3138.345119	None	left	3138.345119	None	3138.662618	3140.333695	None	None	0.27343896							0.72653834							110	1	18	1	2019_Dec_06_1308	Test	3.2.4	59.83998513		Pictures/IA20_10_L95p.bmp	Pictures/IA20_10_L95p.bmp	Pictures/IA20.bmp	"Don't be tempted to gamble."""""	0	safe					9	0	9	0	0	2	2	0																															3140.350405	None	3142.372412	3143.893089	3143.876382	None	3145.38035	None	1	3147.402358	None	3147.402358	None	3147.402358	None	3147.803413	None	3147.803413	3148.806053	3149.942393	None	3149.942393	None	right	3149.942393	None	None	None	3150.310025	3151.930974	0.332152017							0.272206702							110	1	18	1	2019_Dec_06_1308	Test	3.2.4	59.83998513		Pictures/IA100_L40.bmp	Pictures/IA100_L40.bmp	Pictures/IA100.bmp	"Think of the payoff"	1	risk					9	0	9	0	0	3	3	11																															3151.947679	None	3153.969685	3155.490361	3155.473657	None	3156.99431	None	None	3158.999637	None	3158.999637	None	3158.999637	None	None	None	None	None	3162.124543	None	3162.124543	None	right	3162.124543	None	None	None	3162.525596	3164.129827	0.35801208														110	1	18	1	2019_Dec_06_1308	Test	3.2.4	59.83998513		Pictures/IA110_55_L95p.bmp	Pictures/IA110_55_L95p.bmp	Pictures/IA110.bmp	"Trust me and gamble!"""""	1	risk					9	0	9	0	0	4	4	19																															3164.146544	None	3166.168544	3167.689223	3167.672517	None	3169.193197	None	None	3171.198494	None	3171.198494	None	3171.198494	None	None	None	None	None	3174.289983	None	3174.289983	None	right	3174.289983	None	None	None	3174.574059	3176.278559	0.248568238														110	1	18	1	2019_Dec_06_1308	Test	3.2.4	59.83998513		Pictures/IA50_L30.bmp	Pictures/IA50_L30.bmp	Pictures/IA50.bmp	"