Choice	Choice2	Amount	AdviceVar1	GambleAdviceNum	GambleAdviceType	practice.thisRepN	practice.thisTrialN	practice.thisN	practice.thisIndex	trials_2.thisRepN	trials_2.thisTrialN	trials_2.thisN	trials_2.thisIndex	trials.thisRepN	trials.thisTrialN	trials.thisN	trials.thisIndex	text.started	text.stopped	key_resp_4.keys	key_resp_4.rt	key_resp_4.started	key_resp_4.stopped	instructions.started	instructions.stopped	space.keys	space.rt	space.started	space.stopped	chooseInst.started	chooseInst.stopped	Ad1.started	Ad1.stopped	Ad2.started	Ad2.stopped	key_resp_3.keys	key_resp_3.rt	key_resp_3.started	key_resp_3.stopped	Ad1pic.started	Ad1pic.stopped	Ad2pic.started	Ad2pic.stopped	enter.keys	enter.rt	enter.started	enter.stopped	iSi.started	iSi.stopped	receiveMoneyPicture.started	receiveMoneyPicture.stopped	ISI2.started	ISI2.stopped	ChoicePic.started	ChoicePic.stopped	response.keys	response.started	response.stopped	yesNo.started	yesNo.stopped	ask.started	ask.stopped	getAdv.started	getAdv.stopped	textForCode.started	textForCode.stopped	blank.started	blank.stopped	ChoicePic2.started	ChoicePic2.stopped	resp.keys	resp.started	resp.stopped	checkL1.started	checkL1.stopped	checkR1.started	checkR1.stopped	response.rt	resp.rt	EndPrac.started	EndPrac.stopped	key_resp.keys	key_resp.rt	key_resp.started	key_resp.stopped	endText.started	endText.stopped	key_resp_2.keys	key_resp_2.rt	key_resp_2.started	key_resp_2.stopped	participant	session	age	gender (0=male	 1 = female	 2 = other)	date	expName	psychopyVersion	frameRate																		24.99051023	None	space	146.6760504	24.99051023	None																																																																					111	1	21	0	2019_Dec_06_1317	Test	3.1.2	59.98528004																										171.6845663	None	space	3.629779989	171.6845663	None																																																															111	1	21	0	2019_Dec_06_1317	Test	3.1.2	59.98528004																																177.9359814	None	177.9359814	None	177.9359814	None	left	8.322344462	177.9359814	None																																																					111	1	21	0	2019_Dec_06_1317	Test	3.1.2	59.98528004																																										177.9359814	None	177.9359814	None	return	11.14623546	177.9359814	None																																													111	1	21	0	2019_Dec_06_1317	Test	3.1.2	59.98528004		Pictures/IA100_G20.bmp	Pictures/IA100_G20.bmp	Pictures/IA100.bmp	"Go ahead and gamble!"""""	1	risk	0	0	0	4																																							189.1897322	None	191.2569397	192.62421	192.6408544	None	194.2083584	None	None	196.5915864	None	196.5915864	None	196.5915864	None	None	None	None	None	199.5925058	None	199.5925058	None	None	199.5925058	None	None	None	None	None															111	1	21	0	2019_Dec_06_1317	Test	3.1.2	59.98528004		Pictures/IA50_G40.bmp	Pictures/IA50_G40.bmp	Pictures/IA50.bmp	"It would probably be best to play it safe."""""	0	safe	0	1	1	3																																							201.3766845	None	203.4273172	204.8779104	204.894556	None	206.4283361	None	None	208.4121498	None	208.4121498	None	208.4121498	None	None	None	None	None	211.5460985	None	211.5460985	None	None	211.5460985	None	None	None	None	None															111	1	21	0	2019_Dec_06_1317	Test	3.1.2	59.98528004		Pictures/IA50_G20.bmp	Pictures/IA50_G20.bmp	Pictures/IA50.bmp	"Let's venture and take a risk!"""""	1	risk	0	2	2	1																																							213.4303419	None	215.4642235	216.9315366	216.9481745	None	218.4819279	None	2	220.4658004	None	220.4658004	None	220.4658004	None	None	None	None	None	221.4824062	None	221.4824062	None	right	221.4824062	None	None	None	222.4664778	None	0.840035605	0.967373019													111	1	21	0	2019_Dec_06_1317	Test	3.1.2	59.98528004		Pictures/IA100_G40.bmp	Pictures/IA100_G40.bmp	Pictures/IA100.bmp	"Try your luck and gamble!"""""	1	risk	0	3	3	5																																							223.3834389	None	225.4044882	226.8845058	226.9010852	None	228.4349493	None	2	230.4205949	None	230.4205949	None	230.4205949	None	None	None	None	None	231.2686635	None	231.2686635	None	right	231.2686635	None	None	None	232.1527479	233.1697297	0.685020121	0.852947497													111	1	21	0	2019_Dec_06_1317	Test	3.1.2	59.98528004		Pictures/IA50_G30.bmp	Pictures/IA50_G30.bmp	Pictures/IA50.bmp	"I think you should gamble."""""	1	risk	0	4	4	2																																							233.1863968	None	235.2076515	236.6874535	236.7041138	None	238.2378945	None	2	240.2383452	None	240.2383452	None	240.2383452	None	None	None	None	None	240.804908	None	240.804908	None	left	240.804908	None	241.3221218	242.7059289	None	None	0.411214918	0.492660453													111	1	21	0	2019_Dec_06_1317	Test	3.1.2	59.98528004		Pictures/IA50_G10.bmp	Pictures/IA50_G10.bmp	Pictures/IA50.bmp	"Go with the safe option here!"""""	0	safe	0	5	5	0																																							242.7225848	None	244.7439872	246.2236291	246.2403071	None	247.7740884	None	2	249.7742933	None	249.7742933	None	249.7742933	None	None	None	None	None	250.907917	None	250.907917	None	right	250.907917	None	None	None	251.3251775	252.8422955	1.003091514	0.397518329													111	1	21	0	2019_Dec_06_1317	Test	3.1.2	59.98528004																																																																																		252.8589707	None	space	30.94202011	252.8589707	None							111	1	21	0	2019_Dec_06_1317	Test	3.1.2	59.98528004		Pictures/IA50_G40.bmp	Pictures/IA50_G40.bmp	Pictures/IA50.bmp	"It would probably be best to play it safe."""""	0	safe					0	0	0	0	0	1	1	13																															299.3729315	None	301.3938399	302.8739378	302.89065	None	304.3909101	None	2	306.4096409	None	306.4096409	None	306.4096409	None	None	None	None	None	307.3103127	None	307.3103127	None	right	307.3103127	None	None	None	308.3923184	None	0.775072133	1.050398522													111	1	21	0	2019_Dec_06_1317	Test	3.1.2	59.98528004		Pictures/IA25_G20.bmp	Pictures/IA25_G20.bmp	Pictures/IA25.bmp	"I wouldn't gamble for this one. """""	0	safe					0	0	0	0	0	2	2	15																															309.2759033	None	311.2962212	312.7769538	312.7934822	None	314.3290771	None	2	316.3111146	None	316.3111146	None	316.3111146	None	None	None	None	None	317.1999479	None	317.1999479	None	right	317.1999479	None	None	None	317.3449785	319.145541	0.777546277	0.120678839													111	1	21	0	2019_Dec_06_1317	Test	3.1.2	59.98528004		Pictures/IA25_G5.bmp	Pictures/IA25_G5.bmp	Pictures/IA25.bmp	"Let's stay with the certain option."""""	0	safe					0	0	0	0	0	5	5	17																															341.7023034	None	343.7233477	345.2033439	345.2200359	None	346.7537749	None	1	348.7389384	None	348.7389384	None	348.7389384	None	349.9879073	None	349.9879073	350.9717394	352.055186	None	352.055186	None	right	352.055186	None	None	None	353.0390458	None	1.149305824	0.952936519													111	1	21	0	2019_Dec_06_1317	Test	3.1.2	59.98528004		Pictures/IA100_L80.bmp	Pictures/IA100_L80.bmp	Pictures/IA100.bmp	"Go all in!"""""	1	risk					0	0	0	0	0	7	7	5																															364.0590143	None	366.0774916	367.5600601	367.5766358	None	369.1104286	None	2	371.0942669	None	371.0942669	None	371.0942669	None	None	None	None	None	372.0111226	None	372.0111226	None	right	372.0111226	None	None	None	372.1447855	373.9453141	0.809684961	0.11691024													111	1	21	0	2019_Dec_06_1317	Test	3.1.2	59.98528004		Pictures/IA50_G10.bmp	Pictures/IA50_G10.bmp	Pictures/IA50.bmp	"Go with the safe option here!"""""	0	safe					0	0	0	0	0	8	8	9																															373.9619958	None	375.9803042	377.4630407	377.4797243	None	378.9801415	None	2	380.9973436	None	380.9973436	None	380.9973436	None	None	None	None	None	381.8472301	None	381.8472301	None	right	381.8472301	None	None	None	381.9310583	383.7814579	0.722536298	0.056564445													111	1	21	0	2019_Dec_06_1317	Test	3.1.2	59.98528004		Pictures/IA25_G10.bmp	Pictures/IA25_G10.bmp	Pictures/IA25.bmp	"What's life without a little risk?"""""	1	risk					0	0	0	0	0	12	12	10																															412.4902134	None	414.5123342	415.9912816	416.007832	None	417.5419253	None	2	419.5421993	None	419.5421993	None	419.5421993	None	None	None	None	None	419.9253477	None	419.9253477	None	right	419.9253477	None	None	None	419.9253477	421.8597093	0.257190025	0.024887													111	1	21	0	2019_Dec_06_1317	Test	3.1.2	59.98528004		Pictures/IA25_G15.bmp	Pictures/IA25_G15.bmp	Pictures/IA25.bmp	"I think you should take a gamble."""""	1	risk					0	0	0	0	0	14	14	4																															431.6459675	None	433.6657517	435.147018	435.1637066	None	436.6990172	None	2	438.6812671	None	438.6812671	None	438.6812671	None	None	None	None	None	439.4011352	None	439.4011352	None	right	439.4011352	None	None	None	439.4147885	441.3488861	0.605909706	-0.002128293													111	1	21	0	2019_Dec_06_1317	Test	3.1.2	59.98528004		Pictures/IA50_G20.bmp	Pictures/IA50_G20.bmp	Pictures/IA50.bmp	"Let's venture and take a risk!"""""	1	risk					0	0	0	0	0	15	15	0																															441.3655442	None	443.3883925	444.8666077	444.883272	None	446.3835474	None	2	448.4008804	None	448.4008804	None	448.4008804	None	None	None	None	None	449.8676213	None	449.8676213	None	left	449.8676213	None	449.9014308	451.8020146	None	None	1.342140727	0.003178288													111	1	21	0	2019_Dec_06_1317	Test	3.1.2	59.98528004		Pictures/IA75_G15.bmp	Pictures/IA75_G15.bmp	Pictures/IA75.bmp	"Take a chance!"""""	1	risk					0	0	0	0	0	16	16	1																															451.8186833	None	453.8402176	455.319722	455.3362743	None	456.887365	None	2	458.8706099	None	458.8706099	None	458.8706099	None	None	None	None	None	459.6205555	None	459.6205555	None	right	459.6205555	None	None	None	459.7043943	461.5549013	0.640306377	0.058333512													111	1	21	0	2019_Dec_06_1317	Test	3.1.2	59.98528004		Pictures/IA80_40_L95p.bmp	Pictures/IA80_40_L95p.bmp	Pictures/IA80.bmp	"Let's stay with the certain option."""""	0	safe					0	0	0	0	0	17	17	16																															461.5716122	None	463.5924893	465.0726643	465.0893379	None	466.5897673	None	2	468.6232953	None	468.6232953	None	468.6232953	None	None	None	None	None	469.5902164	None	469.5902164	None	right	469.5902164	None	None	None	469.640507	471.5245895	0.847472967	0.032347066													111	1	21	0	2019_Dec_06_1317	Test	3.1.2	59.98528004		Pictures/IA25_L10.bmp	Pictures/IA25_L10.bmp	Pictures/IA25.bmp	"Dont be afraid to take the risk!"""""	1	risk					0	0	0	0	0	18	18	14																															471.5412737	None	473.5621063	475.0423313	475.0589708	None	476.5927642	None	2	478.5775623	None	478.5775623	None	478.5775623	None	None	None	None	None	479.1467303	None	479.1467303	None	right	479.1467303	None	None	None	479.2602567	481.0941475	0.437067316	0.083853432													111	1	21	0	2019_Dec_06_1317	Test	3.1.2	59.98528004												0	0	0	0																																																																									491.3800606	None	return	31.68207479	491.3800606	None	111	1	21	0	2019_Dec_06_1317	Test	3.1.2	59.98528004		Pictures/IA50_G20.bmp	Pictures/IA50_G20.bmp	Pictures/IA50.bmp	"Let's venture and take a risk!"""""	1	risk					1	0	1	0	0	1	1	4																															537.3610276	None	539.4003809	540.8620821	540.8787511	None	542.3957088	None	2	544.3962923	None	544.3962923	None	544.3962923	None	None	None	None	None	545.0970452	None	545.0970452	None	left	545.0970452	None	545.980283	547.0306144	None	None	0.60933121	0.852713612													111	1	21	0	2019_Dec_06_1317	Test	3.1.2	59.98528004		Pictures/IA100_G40.bmp	Pictures/IA100_G40.bmp	Pictures/IA100.bmp	"Try your luck and gamble!"""""	1	risk					1	0	1	0	0	4	4	2																															566.636488	None	568.6702608	570.1375419	570.1542053	None	571.6711061	None	2	573.6751301	None	573.6751301	None	573.6751301	None	None	None	None	None	574.15611	None	574.15611	None	right	574.15611	None	None	None	574.15611	576.0893351	0.362311146	0.033144204													111	1	21	0	2019_Dec_06_1317	Test	3.1.2	59.98528004		Pictures/IA50_G40.bmp	Pictures/IA50_G40.bmp	Pictures/IA50.bmp	"It would probably be best to play it safe."""""	0	safe					1	0	1	0	0	6	6	7																															585.6755254	None	587.6969305	589.1765357	589.1931783	None	590.6936729	None	2	592.7107528	None	592.7107528	None	592.7107528	None	None	None	None	None	593.7274809	None	593.7274809	None	right	593.7274809	None	None	None	594.6448479	595.6618285	0.88641547	0.893725937													111	1	21	0	2019_Dec_06_1317	Test	3.1.2	59.98528004		Pictures/IA25_G10.bmp	Pictures/IA25_G10.bmp	Pictures/IA25.bmp	"What's life without a little risk?"""""	1	risk					1	0	1	0	0	7	7	14																															595.6785426	None	597.7005791	599.1796142	599.1961575	None	600.696534	None	1	602.7152128	None	602.7152128	None	602.7152128	None	603.330546	None	603.330546	604.3145022	605.3976294	None	605.3976294	None	left	605.3976294	None	605.9816319	607.2987081	None	None	0.505921307	0.567700893													111	1	21	0	2019_Dec_06_1317	Test	3.1.2	59.98528004		Pictures/IA25_G20.bmp	Pictures/IA25_G20.bmp	Pictures/IA25.bmp	"I wouldn't gamble for this one. """""	0	safe					1	0	1	0	0	9	9	3																															617.1516422	None	619.1735316	620.6526917	620.6693585	None	622.1697894	None	2	624.2036089	None	624.2036089	None	624.2036089	None	None	None	None	None	625.2743669	None	625.2743669	None	right	625.2743669	None	None	None	625.6708747	627.2213254	0.945219863	0.370450475													111	1	21	0	2019_Dec_06_1317	Test	3.1.2	59.98528004		Pictures/IA100_G80.bmp	Pictures/IA100_G80.bmp	Pictures/IA100.bmp	"Why not gamble?"""""	1	risk					1	0	1	0	0	10	10	9																															627.2380034	None	629.2598617	630.7390921	630.7557393	None	632.2896148	None	2	634.2750331	None	634.2750331	None	634.2750331	None	None	None	None	None	634.7277794	None	634.7277794	None	right	634.7277794	None	None	None	634.7277794	636.6575081	0.337745739	0.034475981													111	1	21	0	2019_Dec_06_1317	Test	3.1.2	59.98528004		Pictures/IA100_G20.bmp	Pictures/IA100_G20.bmp	Pictures/IA100.bmp	"Go ahead and gamble!"""""	1	risk					1	0	1	0	0	11	11	12																															636.6741815	None	638.6961903	640.1752232	640.191812	None	641.6922979	None	2	643.7094378	None	643.7094378	None	643.7094378	None	None	None	None	None	644.9428689	None	644.9428689	None	right	644.9428689	None	None	None	645.0098748	646.8772283	1.127120012	0.037716472													111	1	21	0	2019_Dec_06_1317	Test	3.1.2	59.98528004		Pictures/IA75_L60.bmp	Pictures/IA75_L60.bmp	Pictures/IA75.bmp	"Why not take the gamble?"""""	1	risk					1	0	1	0	0	12	12	8																															646.893906	None	648.9133116	650.3949552	650.4116158	None	651.9620723	None	2	653.9292183	None	653.9292183	None	653.9292183	None	None	None	None	None	654.6136285	None	654.6136285	None	right	654.6136285	None	None	None	654.6291085	656.546807	0.571221923	-0.009384643													111	1	21	0	2019_Dec_06_1317	Test	3.1.2	59.98528004		Pictures/IA75_G45.bmp	Pictures/IA75_G45.bmp	Pictures/IA75.bmp	"Don't gamble for this one."""""	0	safe					1	0	1	0	0	14	14	5																															666.8665729	None	668.8889369	670.3675813	670.3842211	None	671.9212034	None	2	673.90402	None	673.90402	None	673.90402	None	None	None	None	None	674.5425355	None	674.5425355	None	right	674.5425355	None	None	None	674.5425355	676.4861257	0.532234944	0.031054788													111	1	21	0	2019_Dec_06_1317	Test	3.1.2	59.98528004		Pictures/IA75_G15.bmp	Pictures/IA75_G15.bmp	Pictures/IA75.bmp	"Take a chance!"""""	1	risk					1	0	1	0	0	15	15	17																															676.5028062	None	678.5235625	680.0038464	680.0205399	None	681.520843	None	2	683.5380214	None	683.5380214	None	683.5380214	None	None	None	None	None	684.0399228	None	684.0399228	None	right	684.0399228	None	None	None	684.0715088	685.9722778	0.386048003	0.004031098													111	1	21	0	2019_Dec_06_1317	Test	3.1.2	59.98528004												1	0	1	0																																																																									726.3839542	None	return	13.347498	726.3839542	None	111	1	21	0	2019_Dec_06_1317	Test	3.1.2	59.98528004		Pictures/IA25_G15.bmp	Pictures/IA25_G15.bmp	Pictures/IA25.bmp	"I think you should take a gamble."""""	1	risk					2	0	2	0	0	2	2	17																															793.4045476	None	795.4272908	796.9056276	796.9222092	None	798.422554	None	2	800.442814	None	800.442814	None	800.442814	None	None	None	None	None	800.8729624	None	800.8729624	None	right	800.8729624	None	None	None	800.9065392	802.8073903	0.311886499	0.001517143													111	1	21	0	2019_Dec_06_1317	Test	3.1.2	59.98528004		Pictures/IA75_G15.bmp	Pictures/IA75_G15.bmp	Pictures/IA75.bmp	"Take a chance!"""""	1	risk					2	0	2	0	0	3	3	18																															802.8240319	None	804.8458302	806.3250917	806.3416559	None	807.8419959	None	2	809.8625038	None	809.8625038	None	809.8625038	None	None	None	None	None	811.1760798	None	811.1760798	None	left	811.1760798	None	811.2097026	813.1104386	None	None	1.196008837	0.010293747													111	1	21	0	2019_Dec_06_1317	Test	3.1.2	59.98528004		Pictures/IA75_L60.bmp	Pictures/IA75_L60.bmp	Pictures/IA75.bmp	"Why not take the gamble?"""""	1	risk					2	0	2	0	0	5	5	7																															822.6132793	None	824.6356019	826.114373	826.1310186	None	827.6314819	None	2	829.6652966	None	829.6652966	None	829.6652966	None	None	None	None	None	830.8319896	None	830.8319896	None	left	830.8319896	None	831.832759	None	None	None	1.049143256	0.978335142													111	1	21	0	2019_Dec_06_1317	Test	3.1.2	59.98528004		Pictures/IA50_G20.bmp	Pictures/IA50_G20.bmp	Pictures/IA50.bmp	"Let's venture and take a risk!"""""	1	risk					2	0	2	0	0	6	6	2																															832.7830504	None	834.8049074	836.2841008	836.3007682	None	837.8011957	None	2	839.8184015	None	839.8184015	None	839.8184015	None	None	None	None	None	840.671707	None	840.671707	None	right	840.671707	None	None	None	840.6849523	842.6193236	0.735853757	-0.005677936													111	1	21	0	2019_Dec_06_1317	Test	3.1.2	59.98528004		Pictures/IA50_G10.bmp	Pictures/IA50_G10.bmp	Pictures/IA50.bmp	"Go with the safe option here!"""""	0	safe					2	0	2	0	0	8	8	6																															854.7396314	None	856.7617936	858.2406769	858.2573561	None	859.7577852	None	2	861.7759103	None	861.7759103	None	861.7759103	None	None	None	None	None	862.7627543	None	862.7627543	None	right	862.7627543	None	None	None	862.7915781	864.7092991	0.881993734	0.007074093													111	1	21	0	2019_Dec_06_1317	Test	3.1.2	59.98528004		Pictures/IA80_40_L95p.bmp	Pictures/IA80_40_L95p.bmp	Pictures/IA80.bmp	"Let's stay with the certain option."""""	0	safe					2	0	2	0	0	9	9	19																															864.7259587	None	866.7482705	868.2270136	868.2436564	None	869.7441023	None	2	871.7612583	None	871.7612583	None	871.7612583	None	None	None	None	None	872.3944514	None	872.3944514	None	right	872.3944514	None	None	None	872.461475	874.3288441	0.512565263	0.047353972													111	1	21	0	2019_Dec_06_1317	Test	3.1.2	59.98528004		Pictures/IA110_55_G95p.bmp	Pictures/IA110_55_G95p.bmp	Pictures/IA110.bmp	"Take a chance!"""""	1	risk					2	0	2	0	0	11	11	5																															883.7149795	None	885.7336402	887.216052	887.2326007	None	888.7664974	None	2	890.7503394	None	890.7503394	None	890.7503394	None	None	None	None	None	891.9169658	None	891.9169658	None	left	891.9169658	None	891.9839447	893.8513573	None	None	1.059215247	0.044607998													111	1	21	0	2019_Dec_06_1317	Test	3.1.2	59.98528004		Pictures/IA25_L20.bmp	Pictures/IA25_L20.bmp	Pictures/IA25.bmp	"Don't be tempted to gamble."""""	0	safe					2	0	2	0	0	12	12	9																															893.8680104	None	895.8895608	897.3691311	897.3857305	None	898.9195339	None	2	900.919931	None	900.919931	None	900.919931	None	None	None	None	None	901.553232	None	901.553232	None	left	901.553232	None	901.6037077	903.4875809	None	None	0.513547145	0.032092031													111	1	21	0	2019_Dec_06_1317	Test	3.1.2	59.98528004		Pictures/IA100_L80.bmp	Pictures/IA100_L80.bmp	Pictures/IA100.bmp	"Go all in!"""""	1	risk					2	0	2	0	0	13	13	11																															903.5042798	None	905.5261309	907.005301	907.021984	None	908.5222675	None	2	910.5410209	None	910.5410209	None	910.5410209	None	None	None	None	None	911.3810204	None	911.3810204	None	right	911.3810204	None	None	None	911.3810204	913.3072296	0.732605179	-0.004446617													111	1	21	0	2019_Dec_06_1317	Test	3.1.2	59.98528004		Pictures/IA25_L5.bmp	Pictures/IA25_L5.bmp	Pictures/IA25.bmp	"It would be smarter to choose the safe option."""""	0	safe					2	0	2	0	0	16	16	14																															932.5963431	None	934.6184089	936.0974045	936.1140548	None	937.6478318	None	2	939.6480118	None	939.6480118	None	939.6480118	None	None	None	None	None	940.048087	None	940.048087	None	right	940.048087	None	None	None	940.7487818	941.982495	0.280989396	0.680901316													111	1	21	0	2019_Dec_06_1317	Test	3.1.2	59.98528004												2	0	2	0																																																																									970.7739599	None	return	22.47434028	970.7739599	None	111	1	21	0	2019_Dec_06_1317	Test	3.1.2	59.98528004		Pictures/IA50_G30.bmp	Pictures/IA50_G30.bmp	Pictures/IA50.bmp	"I think you should gamble."""""	1	risk					3	0	3	0	0	2	2	14																															1023.559157	None	1025.579486	1027.059605	1027.074668	None	1028.575122	None	1	1030.60893	None	1030.60893	None	1030.60893	None	1031.092284	None	1031.092284	1032.076135	1033.159601	None	1033.159601	None	right	1033.159601	None	None	None	1033.759921	1035.060316	0.398906089	0.576245477													111	1	21	0	2019_Dec_06_1317	Test	3.1.2	59.98528004		Pictures/IA25_G10.bmp	Pictures/IA25_G10.bmp	Pictures/IA25.bmp	"What's life without a little risk?"""""	1	risk					3	0	3	0	0	3	3	1																															1035.077086	None	1037.098941	1038.57814	1038.594696	None	1040.095239	None	2	1042.129086	None	1042.129086	None	1042.129086	None	None	None	None	None	1043.412475	None	1043.412475	None	left	1043.412475	None	1044.296476	1045.346842	None	None	1.158655322	0.859260531													111	1	21	0	2019_Dec_06_1317	Test	3.1.2	59.98528004		Pictures/IA50_G40.bmp	Pictures/IA50_G40.bmp	Pictures/IA50.bmp	"It would probably be best to play it safe."""""	0	safe					3	0	3	0	0	8	8	11																															1086.242463	None	1088.261484	1089.743493	1089.760171	None	1091.260614	None	2	1093.277813	None	1093.277813	None	1093.277813	None	None	None	None	None	1093.694196	None	1093.694196	None	right	1093.694196	None	None	None	1093.727574	1095.628611	0.289336485	0.01676882													111	1	21	0	2019_Dec_06_1317	Test	3.1.2	59.98528004		Pictures/IA100_L80.bmp	Pictures/IA100_L80.bmp	Pictures/IA100.bmp	"Go all in!"""""	1	risk					3	0	3	0	0	9	9	2																															1095.645278	None	1097.667629	1099.146325	1099.162967	None	1100.663424	None	2	1102.697252	None	1102.697252	None	1102.697252	None	None	None	None	None	1103.230395	None	1103.230395	None	right	1103.230395	None	None	None	1103.480966	1105.1648	0.421782672	0.22456491													111	1	21	0	2019_Dec_06_1317	Test	3.1.2	59.98528004		Pictures/IA50_G20.bmp	Pictures/IA50_G20.bmp	Pictures/IA50.bmp	"Let's venture and take a risk!"""""	1	risk					3	0	3	0	0	10	10	16																															1105.18147	None	1107.202927	1108.682493	1108.699137	None	1110.199588	None	2	1112.233461	None	1112.233461	None	1112.233461	None	None	None	None	None	1112.699957	None	1112.699957	None	right	1112.699957	None	None	None	1112.817094	1114.634307	0.357428482	0.098935605													111	1	21	0	2019_Dec_06_1317	Test	3.1.2	59.98528004		Pictures/IA100_G40.bmp	Pictures/IA100_G40.bmp	Pictures/IA100.bmp	"Try your luck and gamble!"""""	1	risk					3	0	3	0	0	14	14	0																															1145.610284	None	1147.62802	1149.111292	1149.127946	None	1150.628323	None	2	1152.64561	None	1152.64561	None	1152.64561	None	None	None	None	None	1153.565706	None	1153.565706	None	left	1153.565706	None	1153.612599	1155.496548	None	None	0.800874768	0.024581269													111	1	21	0	2019_Dec_06_1317	Test	3.1.2	59.98528004		Pictures/IA80_40_L95p.bmp	Pictures/IA80_40_L95p.bmp	Pictures/IA80.bmp	"Let's stay with the certain option."""""	0	safe					3	0	3	0	0	17	17	13																															1179.187019	None	1181.188313	1182.687927	1182.687927	None	1184.205166	None	2	1186.22354	None	1186.22354	None	1186.22354	None	None	None	None	None	1187.372338	None	1187.372338	None	right	1187.372338	None	None	None	1187.439499	1189.306467	1.0303494	0.041645556													111	1	21	0	2019_Dec_06_1317	Test	3.1.2	59.98528004												3	0	3	0																																																																									1208.478694	None	return	36.01451799	1208.478694	None	111	1	21	0	2019_Dec_06_1317	Test	3.1.2	59.98528004		Pictures/IA25_L10.bmp	Pictures/IA25_L10.bmp	Pictures/IA25.bmp	"Dont be afraid to take the risk!"""""	1	risk					4	0	4	0	0	0	0	6													1244.60882	None	1244.60882	None	1244.60882	None	left	1.268375459	1244.60882	None	1244.60882	None	1244.60882	None	return	1.548449842	1244.60882	None	1246.206754	None	1248.211578	1249.6915	1249.708167	None	1251.208447	None	2	1253.227022	None	1253.227022	None	1253.227022	None	None	None	None	None	1253.992315	None	1253.992315	None	right	1253.992315	None	None	None	1254.00901	1255.926712	0.650142306	-0.011290869													111	1	21	0	2019_Dec_06_1317	Test	3.1.2	59.98528004		Pictures/IA110_55_G95p.bmp	Pictures/IA110_55_G95p.bmp	Pictures/IA110.bmp	"Take a chance!"""""	1	risk					4	0	4	0	0	2	2	1																															1265.512935	None	1267.533638	1269.013989	1269.030637	None	1270.530926	None	2	1272.548145	None	1272.548145	None	1272.548145	None	None	None	None	None	1273.531526	None	1273.531526	None	left	1273.531526	None	1273.565149	1275.465892	None	None	0.880770191	0.017180297													111	1	21	0	2019_Dec_06_1317	Test	3.1.2	59.98528004		Pictures/IA75_G15.bmp	Pictures/IA75_G15.bmp	Pictures/IA75.bmp	"Take a chance!"""""	1	risk					4	0	4	0	0	4	4	0																															1285.452266	None	1287.469191	1288.953307	1288.96997	None	1290.470408	None	1	1292.504237	None	1292.504237	None	1292.504237	None	1293.487536	None	1293.487536	1294.488291	1295.571734	None	1295.571734	None	right	1295.571734	None	None	None	1295.905384	1297.472537	0.916433948	0.312917211													111	1	21	0	2019_Dec_06_1317	Test	3.1.2	59.98528004		Pictures/IA25_G5.bmp	Pictures/IA25_G5.bmp	Pictures/IA25.bmp	"Let's stay with the certain option."""""	0	safe					4	0	4	0	0	5	5	8																															1297.48918	None	1299.511387	1300.990237	1301.006786	None	1302.50718	None	1	1304.526475	None	1304.526475	None	1304.526475	None	1305.461385	None	1305.461385	1306.458553	1307.541715	None	1307.541715	None	right	1307.541715	None	None	None	1308.225726	1309.442787	0.846033578	0.662781747													111	1	21	0	2019_Dec_06_1317	Test	3.1.2	59.98528004		Pictures/IA75_G30.bmp	Pictures/IA75_G30.bmp	Pictures/IA75.bmp	"Be bold"	" gamble!"""""	1	risk					4	0	4	0	0	6	6	11																															1309.459441	None	1311.481016	1312.960489	1312.977036	None	1314.47744	None	2	1316.496907	None	1316.496907	None	1316.496907	None	None	None	None	None	1317.632857	None	1317.632857	None	left	1317.632857	None	1317.661594	1319.579038	None	None	1.019401584	0.011366757													111	1	21	0	2019_Dec_06_1317	Test	3.1.2	59.98528004	Pictures/IA50_G30.bmp	Pictures/IA50_G30.bmp	Pictures/IA50.bmp	"I think you should gamble."""""	1	risk					4	0	4	0	0	7	7	18																															1319.5958	None	1321.617708	1323.096886	1323.113524	None	1324.613864	None	2	1326.634917	None	1326.634917	None	1326.634917	None	None	None	None	None	1327.531085	None	1327.531085	None	right	1327.531085	None	None	None	1327.631585	1329.465457	0.777358111	0.073150698													111	1	21	0	2019_Dec_06_1317	Test	3.1.2	59.98528004		Pictures/IA75_L45.bmp	Pictures/IA75_L45.bmp	Pictures/IA75.bmp	"Don't gamble for this one"	" play it safe."""""	0	safe					4	0	4	0	0	8	8	12																															1329.482128	None	1331.503783	1332.98318	1332.999824	None	1334.500285	None	2	1336.517454	None	1336.517454	None	1336.517454	None	None	None	None	None	1337.384081	None	1337.384081	None	right	1337.384081	None	None	None	1337.384081	1339.318428	0.750719461	0.021871996													111	1	21	0	2019_Dec_06_1317	Test	3.1.2	59.98528004	Pictures/IA25_G15.bmp	Pictures/IA25_G15.bmp	Pictures/IA25.bmp	"I think you should take a gamble."""""	1	risk					4	0	4	0	0	9	9	9																															1339.335089	None	1341.357413	1342.836132	1342.852795	None	1344.353183	None	2	1346.387059	None	1346.387059	None	1346.387059	None	None	None	None	None	1347.136938	None	1347.136938	None	right	1347.136938	None	None	None	1347.170538	1349.071348	0.63293775	0.010870373													111	1	21	0	2019_Dec_06_1317	Test	3.1.2	59.98528004		Pictures/IA40_20_G95p.bmp	Pictures/IA40_20_G95p.bmp	Pictures/IA40.bmp	"Hold back"	" stay with the safe choice."""""	0	safe					4	0	4	0	0	10	10	17																															1349.088019	None	1351.10997	1352.589051	1352.60572	None	1354.156172	None	1	1356.124786	None	1356.124786	None	1356.124786	None	1356.589765	None	1356.589765	1357.590549	1358.657575	None	1358.657575	None	left	1358.657575	None	1358.974293	1360.574796	None	None	0.375136265	0.29025212													111	1	21	0	2019_Dec_06_1317	Test	3.1.2	59.98528004	Pictures/IA50_L10.bmp	Pictures/IA50_L10.bmp	Pictures/IA50.bmp	"Play it safe"	" don’t gamble!"""""	0	safe					4	0	4	0	0	11	11	7																															1360.591478	None	1362.613208	1364.092518	1364.109191	None	1365.609621	None	2	1367.626792	None	1367.626792	None	1367.626792	None	None	None	None	None	1368.612185	None	1368.612185	None	right	1368.612185	None	None	None	1368.727259	1370.561109	0.872990399	0.095566352													111	1	21	0	2019_Dec_06_1317	Test	3.1.2	59.98528004	Pictures/IA100_L40.bmp	Pictures/IA100_L40.bmp	Pictures/IA100.bmp	"Think of the payoff"	" gamble!"""""	1	risk					4	0	4	0	0	12	12	5																															1370.577816	None	1372.596997	1374.07886	1374.095536	None	1375.595862	None	2	1377.613126	None	1377.613126	None	1377.613126	None	None	None	None	None	1378.784612	None	1378.784612	None	right	1378.784612	None	None	None	1379.163696	1380.730853	1.062498659	0.362960862													111	1	21	0	2019_Dec_06_1317	Test	3.1.2	59.98528004	Pictures/IA50_L40.bmp	Pictures/IA50_L40.bmp	Pictures/IA50.bmp	"That gamble doesn't sound too good"	" play it safe."""""	0	safe					4	0	4	0	0	13	13	14																															1380.747473	None	1382.765448	1384.248549	1384.265219	None	1385.765571	None	2	1387.799514	None	1387.799514	None	1387.799514	None	None	None	None	None	1388.951907	None	1388.951907	None	right	1388.951907	None	None	None	1389.033261	1390.90057	1.019923471	0.059594066													111	1	21	0	2019_Dec_06_1317	Test	3.1.2	59.98528004	Pictures/IA20_10_G95p.bmp	Pictures/IA20_10_G95p.bmp	Pictures/IA20.bmp	"Take a leap"	" I think you should gamble."""""	1	risk					4	0	4	0	0	14	14	19																															1390.917233	None	1392.936864	1394.418283	1394.434889	None	1395.935275	None	1	1397.952533	None	1397.952533	None	1397.952533	None	1399.102526	None	1399.102526	1400.086665	1401.169824	None	1401.169824	None	right	1401.169824	None	None	None	1401.653788	1403.070889	1.034861953	0.457477219													111	1	21	0	2019_Dec_06_1317	Test	3.1.2	59.98528004	Pictures/IA100_G80.bmp	Pictures/IA100_G80.bmp	Pictures/IA100.bmp	"Why not gamble?"""""	1	risk					4	0	4	0	0	15	15	10																															1403.087555	None	1405.109083	1406.588621	1406.605231	None	1408.105504	None	2	1410.124915	None	1410.124915	None	1410.124915	None	None	None	None	None	1410.876162	None	1410.876162	None	right	1410.876162	None	None	None	1410.876162	1412.807133	0.64632581	0.005628484													111	1	21	0	2019_Dec_06_1317	Test	3.1.2	59.98528004		Pictures/IA100_G40.bmp	Pictures/IA100_G40.bmp	Pictures/IA100.bmp	"Try your luck and gamble!"""""	1	risk					4	0	4	0	0	16	16	16																															1412.823825	None	1414.845456	1416.324846	1416.341503	None	1417.841978	None	1	1419.859092	None	1419.859092	None	1419.859092	None	1420.443503	None	1420.443503	1421.443078	1422.526479	None	1422.526479	None	left	1422.526479	None	1422.660042	1424.427294	None	None	0.496031883	0.10862069													111	1	21	0	2019_Dec_06_1317	Test	3.1.2	59.98528004		Pictures/IA20_10_L95p.bmp	Pictures/IA20_10_L95p.bmp	Pictures/IA20.bmp	"Don't be tempted to gamble."""""	0	safe					4	0	4	0	0	17	17	4																															1424.443975	None	1426.466336	1427.945019	1427.961598	None	1429.512111	None	2	1431.483062	None	1431.483062	None	1431.483062	None	None	None	None	None	1432.679302	None	1432.679302	None	right	1432.679302	None	None	None	1432.74646	1434.613662	1.079977843	0.035604352													111	1	21	0	2019_Dec_06_1317	Test	3.1.2	59.98528004		Pictures/IA50_G40.bmp	Pictures/IA50_G40.bmp	Pictures/IA50.bmp	"It would probably be best to play it safe."""""	0	safe					4	0	4	0	0	18	18	3																															1434.630335	None	1436.652509	1438.131408	1438.148041	None	1439.648514	None	1	1441.66565	None	1441.66565	None	1441.66565	None	1442.115427	None	1442.115427	1443.099553	1444.18301	None	1444.18301	None	right	1444.18301	None	None	None	1444.600012	1446.083803	0.337124948	0.387742426													111	1	21	0	2019_Dec_06_1317	Test	3.1.2	59.98528004		Pictures/IA25_G20.bmp	Pictures/IA25_G20.bmp	Pictures/IA25.bmp	"I wouldn't gamble for this one. """""	0	safe					4	0	4	0	0	19	19	13																															1446.10045	None	1448.122063	1449.601527	1449.618155	None	1451.118577	None	1	1453.152387	None	1453.152387	None	1453.152387	None	1454.069026	None	1454.069026	1455.053113	1456.123861	None	1456.123861	None	right	1456.123861	None	None	None	1456.937046	1458.03736	0.778317289	0.782742136													111	1	21	0	2019_Dec_06_1317	Test	3.1.2	59.98528004												4	0	4	0																																																																									1458.153724	None	return	9.68875482	1458.153724	None	111	1	21	0	2019_Dec_06_1317	Test	3.1.2	59.98528004		Pictures/IA100_L60.bmp	Pictures/IA100_L60.bmp	Pictures/IA100.bmp	"You'd have a lot to lose"	" don't gamble."""""	0	safe					5	0	5	0	0	0	0	2													1467.956751	None	1467.956751	None	1467.956751	None	left	3.669733921	1467.956751	None	1467.956751	None	1467.956751	None	return	6.485971399	1467.956751	None	1474.495615	None	1476.492831	1477.9767	1477.993337	None	1479.493801	None	2	1481.527331	None	1481.527331	None	1481.527331	None	None	None	None	None	1482.527568	None	1482.527568	None	left	1482.527568	None	1483.878479	None	None	None	0.875025387	1.322749718													111	1	21	0	2019_Dec_06_1317	Test	3.1.2	59.98528004	Pictures/IA100_L20.bmp	Pictures/IA100_L20.bmp	Pictures/IA100.bmp	"Try to win as much money as you can"	" gamble!"""""	1	risk					5	0	5	0	0	1	1	6																															1484.47865	None	1486.500089	1487.979681	1487.996301	None	1489.496645	None	2	1491.515043	None	1491.515043	None	1491.515043	None	None	None	None	None	1492.363902	None	1492.363902	None	right	1492.363902	None	None	None	1492.363902	1494.298275	0.703131604	-0.036787152													111	1	21	0	2019_Dec_06_1317	Test	3.1.2	59.98528004	Pictures/IA25_L10.bmp	Pictures/IA25_L10.bmp	Pictures/IA25.bmp	"Dont be afraid to take the risk!"""""	1	risk					5	0	5	0	0	2	2	1																															1494.314943	None	1496.337564	1497.815985	1497.832546	None	1499.332931	None	1	1501.352983	None	1501.352983	None	1501.352983	None	1502.23345	None	1502.23345	1503.217617	1504.287466	None	1504.287466	None	right	1504.287466	None	None	None	1504.734736	1506.201812	0.78506948	0.426614018													111	1	21	0	2019_Dec_06_1317	Test	3.1.2	59.98528004		Pictures/IA25_G20.bmp	Pictures/IA25_G20.bmp	Pictures/IA25.bmp	"I wouldn't gamble for this one. """""	0	safe					5	0	5	0	0	3	3	16																															1506.218488	None	1508.240621	1509.719556	1509.736136	None	1511.236648	None	2	1513.270526	None	1513.270526	None	1513.270526	None	None	None	None	None	1513.720313	None	1513.720313	None	right	1513.720313	None	None	None	1513.720313	1515.654679	0.33140658	0.029638725													111	1	21	0	2019_Dec_06_1317	Test	3.1.2	59.98528004		Pictures/IA50_G40.bmp	Pictures/IA50_G40.bmp	Pictures/IA50.bmp	"It would probably be best to play it safe."""""	0	safe					5	0	5	0	0	4	4	19																															1515.671363	None	1517.693151	1519.172386	1519.189039	None	1520.689505	None	2	1522.723335	None	1522.723335	None	1522.723335	None	None	None	None	None	1523.806662	None	1523.806662	None	left	1523.806662	None	1523.82333	1525.741033	None	None	0.958578376	-0.013004575													111	1	21	0	2019_Dec_06_1317	Test	3.1.2	59.98528004		Pictures/IA50_L30.bmp	Pictures/IA50_L30.bmp	Pictures/IA50.bmp	"Take a leap"	" I think you should gamble."""""	1	risk					5	0	5	0	0	5	5	18																															1525.757676	None	1527.778832	1529.258772	1529.27545	None	1530.77566	None	2	1532.793484	None	1532.793484	None	1532.793484	None	None	None	None	None	1533.176156	None	1533.176156	None	right	1533.176156	None	None	None	1533.209949	1535.110517	0.264259142	0.001371276													111	1	21	0	2019_Dec_06_1317	Test	3.1.2	59.98528004	Pictures/IA50_L10.bmp	Pictures/IA50_L10.bmp	Pictures/IA50.bmp	"Play it safe"	" don’t gamble!"""""	0	safe					5	0	5	0	0	6	6	9																															1535.127195	None	1537.145506	1538.628242	1538.6449	None	1540.145327	None	2	1542.162461	None	1542.162461	None	1542.162461	None	None	None	None	None	1542.634004	None	1542.634004	None	left	1542.634004	None	1542.979505	1544.580031	None	None	0.359179511	0.327535967													111	1	21	0	2019_Dec_06_1317	Test	3.1.2	59.98528004	Pictures/IA110_55_L95p.bmp	Pictures/IA110_55_L95p.bmp	Pictures/IA110.bmp	"Trust me"	" gamble!"""""	1	risk					5	0	5	0	0	7	7	14																															1544.596707	None	1546.617433	1548.09776	1548.11443	None	1549.614696	None	2	1551.633393	None	1551.633393	None	1551.633393	None	None	None	None	None	1552.148525	None	1552.148525	None	right	1552.148525	None	None	None	1552.148525	1554.0829	0.392110045	0.015055114													111	1	21	0	2019_Dec_06_1317	Test	3.1.2	59.98528004	Pictures/IA25_L5.bmp	Pictures/IA25_L5.bmp	Pictures/IA25.bmp	"It would be smarter to choose the safe option."""""	0	safe					5	0	5	0	0	8	8	10																															1554.099551	None	1556.122054	1557.600599	1557.617162	None	1559.117699	None	2	1561.151518	None	1561.151518	None	1561.151518	None	None	None	None	None	1562.084806	None	1562.084806	None	right	1562.084806	None	None	None	1562.11838	1564.01918	0.785801615	0.012378186													111	1	21	0	2019_Dec_06_1317	Test	3.1.2	59.98528004		Pictures/IA75_G45.bmp	Pictures/IA75_G45.bmp	Pictures/IA75.bmp	"Don't gamble for this one."""""	0	safe					5	0	5	0	0	9	9	15																															1564.035868	None	1566.057711	1567.536915	1567.553466	None	1569.053714	None	2	1571.073135	None	1571.073135	None	1571.073135	None	None	None	None	None	1572.337998	None	1572.337998	None	left	1572.337998	None	1572.538394	1574.288938	None	None	1.152059263	0.183235658													111	1	21	0	2019_Dec_06_1317	Test	3.1.2	59.98528004		Pictures/IA100_G20.bmp	Pictures/IA100_G20.bmp	Pictures/IA100.bmp	"Go ahead and gamble!"""""	1	risk					5	0	5	0	0	10	10	4																															1574.305615	None	1576.324049	1577.806634	1577.823342	None	1579.323766	None	2	1581.340959	None	1581.340959	None	1581.340959	None	None	None	None	None	1582.357578	None	1582.357578	None	right	1582.357578	None	None	None	1582.441329	1584.291919	0.900267568	0.067507907													111	1	21	0	2019_Dec_06_1317	Test	3.1.2	59.98528004		Pictures/IA80_40_G95p.bmp	Pictures/IA80_40_G95p.bmp	Pictures/IA80.bmp	"Think of the payoff"	" gamble!"""""	1	risk					5	0	5	0	0	11	11	12																															1584.308615	None	1586.329003	1587.809626	1587.826321	None	1589.326753	None	2	1591.360596	None	1591.360596	None	1591.360596	None	None	None	None	None	1592.379136	None	1592.379136	None	left	1592.379136	None	1592.444195	1594.328296	None	None	0.912423377	0.0458586													111	1	21	0	2019_Dec_06_1317	Test	3.1.2	59.98528004	Pictures/IA25_L15.bmp	Pictures/IA25_L15.bmp	Pictures/IA25.bmp	"There's not much on the line here"	" gamble!"""""	1	risk					5	0	5	0	0	12	12	0																															1594.344923	None	1596.362806	1597.846008	1597.862592	None	1599.363036	None	2	1601.380282	None	1601.380282	None	1601.380282	None	None	None	None	None	1602.298572	None	1602.298572	None	left	1602.298572	None	1603.180957	1604.24794	None	None	0.796546648	0.854276475													111	1	21	0	2019_Dec_06_1317	Test	3.1.2	59.98528004	Pictures/IA50_G10.bmp	Pictures/IA50_G10.bmp	Pictures/IA50.bmp	"Go with the safe option here!"""""	0	safe					5	0	5	0	0	13	13	17																															1604.264566	None	1606.286951	1607.765647	1607.782277	None	1609.28259	None	2	1611.30262	None	1611.30262	None	1611.30262	None	None	None	None	None	1611.675789	None	1611.675789	None	right	1611.675789	None	None	None	1611.675789	1613.617429	0.250095405	0.023100515													111	1	21	0	2019_Dec_06_1317	Test	3.1.2	59.98528004		Pictures/IA75_L15.bmp	Pictures/IA75_L15.bmp	Pictures/IA75.bmp	"Trust me"	" gamble!"""""	1	risk					5	0	5	0	0	14	14	3																															1613.634083	None	1615.653707	1617.135141	1617.151793	None	1618.652133	None	1	1620.669397	None	1620.669397	None	1620.669397	None	1621.536199	None	1621.536199	1622.520097	1623.586818	None	1623.586818	None	right	1623.586818	None	None	None	1623.937144	1625.504265	0.771176016	0.325811064													111	1	21	0	2019_Dec_06_1317	Test	3.1.2	59.98528004	Pictures/IA110_55_G95p.bmp	Pictures/IA110_55_G95p.bmp	Pictures/IA110.bmp	"Take a chance!"""""	1	risk					5	0	5	0	0	15	15	8																															1625.520983	None	1627.542851	1629.022036	1629.038703	None	1630.539149	None	1	1632.556212	None	1632.556212	None	1632.556212	None	1632.856292	None	1632.856292	1633.856822	1634.923783	None	1634.923783	None	left	1634.923783	None	1635.190492	1636.841055	None	None	0.220228082	0.244701117													111	1	21	0	2019_Dec_06_1317	Test	3.1.2	59.98528004		Pictures/IA75_G30.bmp	Pictures/IA75_G30.bmp	Pictures/IA75.bmp	"Be bold"	" gamble!"""""	1	risk					5	0	5	0	0	16	16	11																															1636.857724	None	1638.879564	1640.358784	1640.375406	None	1641.875883	None	2	1643.893034	None	1643.893034	None	1643.893034	None	None	None	None	None	1645.443157	None	1645.443157	None	left	1645.443157	None	1645.727002	1647.37754	None	None	1.435318776	0.26120184													111	1	21	0	2019_Dec_06_1317	Test	3.1.2	59.98528004	Pictures/IA20_10_L95p.bmp	Pictures/IA20_10_L95p.bmp	Pictures/IA20.bmp	"Don't be tempted to gamble."""""	0	safe					5	0	5	0	0	17	17	7																															1647.394235	None	1649.416017	1650.895283	1650.911942	None	1652.412377	None	2	1654.446187	None	1654.446187	None	1654.446187	None	None	None	None	None	1654.829354	None	1654.829354	None	right	1654.829354	None	None	None	1654.829354	1656.763665	0.258125566	0.010886546													111	1	21	0	2019_Dec_06_1317	Test	3.1.2	59.98528004		Pictures/IA50_G30.bmp	Pictures/IA50_G30.bmp	Pictures/IA50.bmp	"I think you should gamble."""""	1	risk					5	0	5	0	0	18	18	5																															1656.780376	None	1658.802293	1660.28142	1660.298094	None	1661.798511	None	2	1663.815633	None	1663.815633	None	1663.815633	None	None	None	None	None	1664.818207	None	1664.818207	None	left	1664.818207	None	1664.932818	1666.750033	None	None	0.880495563	0.093916715													111	1	21	0	2019_Dec_06_1317	Test	3.1.2	59.98528004		Pictures/IA40_20_G95p.bmp	Pictures/IA40_20_G95p.bmp	Pictures/IA40.bmp	"Hold back"	" stay with the safe choice."""""	0	safe					5	0	5	0	0	19	19	13																															1666.7667	None	1668.788648	1670.267723	1670.28432	None	1671.784854	None	2	1673.802069	None	1673.802069	None	1673.802069	None	None	None	None	None	1674.285162	None	1674.285162	None	left	1674.285162	None	1674.35225	1676.219518	None	None	0.357937618	0.050956488													111	1	21	0	2019_Dec_06_1317	Test	3.1.2	59.98528004											5	0	5	0																																																																									1676.352429	None	return	15.69538665	1676.352429	None	111	1	21	0	2019_Dec_06_1317	Test	3.1.2	59.98528004		Pictures/IA25_L5.bmp	Pictures/IA25_L5.bmp	Pictures/IA25.bmp	"It would be smarter to choose the safe option."""""	0	safe					6	0	6	0	0	0	0	6													1692.157164	None	1692.157164	None	1692.157164	None	left	1.194628541	1692.157164	None	1692.157164	None	1692.157164	None	return	1.514594341	1692.157164	None	1693.724616	None	1695.726817	1697.209185	1697.22584	None	1698.72628	None	1	1700.743472	None	1700.743472	None	1700.743472	None	1701.009803	None	1701.009803	1701.993942	1703.061968	None	1703.061968	None	right	1703.061968	None	None	None	1703.144287	1704.978178	0.160203256	0.057683797													111	1	21	0	2019_Dec_06_1317	Test	3.1.2	59.98528004		Pictures/IA75_G60.bmp	Pictures/IA75_G60.bmp	Pictures/IA75.bmp	"Make it exciting"	" take a chance!"""""	1	risk					6	0	6	0	0	1	1	16																															1704.994819	None	1707.016343	1708.495907	1708.512429	None	1710.012983	None	2	1712.029792	None	1712.029792	None	1712.029792	None	None	None	None	None	1712.763367	None	1712.763367	None	left	1712.763367	None	1713.330683	1714.697734	None	None	0.609692612	0.540117372													111	1	21	0	2019_Dec_06_1317	Test	3.1.2	59.98528004	Pictures/IA25_L10.bmp	Pictures/IA25_L10.bmp	Pictures/IA25.bmp	"Dont be afraid to take the risk!"""""	1	risk					6	0	6	0	0	2	2	14																															1714.714417	None	1716.736827	1718.215467	1718.232109	None	1719.732569	None	2	1721.76639	None	1721.76639	None	1721.76639	None	None	None	None	None	1722.599659	None	1722.599659	None	right	1722.599659	None	None	None	1722.616346	1724.534043	0.713023516	-0.000390016													111	1	21	0	2019_Dec_06_1317	Test	3.1.2	59.98528004		Pictures/IA100_L20.bmp	Pictures/IA100_L20.bmp	Pictures/IA100.bmp	"Try to win as much money as you can"	" gamble!"""""	1	risk					6	0	6	0	0	3	3	0																															1724.550685	None	1726.572224	1728.051782	1728.068409	None	1729.568857	None	1	1731.586035	None	1731.586035	None	1731.586035	None	1732.769331	None	1732.769331	1733.753484	1734.822726	None	1734.822726	None	right	1734.822726	None	None	None	1735.754027	None	1.077260794	0.9125313													111	1	21	0	2019_Dec_06_1317	Test	3.1.2	59.98528004	Pictures/IA50_G30.bmp	Pictures/IA50_G30.bmp	Pictures/IA50.bmp	"I think you should gamble."""""	1	risk					6	0	6	0	0	4	4	8																															1736.754372	None	1738.775797	1740.255406	1740.272058	None	1741.772511	None	2	1743.789709	None	1743.789709	None	1743.789709	None	None	None	None	None	1744.58957	None	1744.58957	None	left	1744.58957	None	1745.823754	None	None	None	0.673465821	1.201617104													111	1	21	0	2019_Dec_06_1317	Test	3.1.2	59.98528004		Pictures/IA80_40_G95p.bmp	Pictures/IA80_40_G95p.bmp	Pictures/IA80.bmp	"Think of the payoff"	" gamble!"""""	1	risk					6	0	6	0	0	5	5	13																															1746.540625	None	1748.562234	1750.041702	1750.05838	None	1751.5588	None	2	1753.575921	None	1753.575921	None	1753.575921	None	None	None	None	None	1755.130257	None	1755.130257	None	left	1755.130257	None	1755.159434	1757.077109	None	None	1.439126252	0.012574438													111	1	21	0	2019_Dec_06_1317	Test	3.1.2	59.98528004	Pictures/IA25_G5.bmp	Pictures/IA25_G5.bmp	Pictures/IA25.bmp	"Let's stay with the certain option."""""	0	safe					6	0	6	0	0	6	6	19																															1757.09383	None	1759.112203	1760.59486	1760.628211	None	1762.111972	None	2	1764.129095	None	1764.129095	None	1764.129095	None	None	None	None	None	1764.515652	None	1764.515652	None	right	1764.515652	None	None	None	1764.515652	1766.446607	0.253742707	-0.002685014													111	1	21	0	2019_Dec_06_1317	Test	3.1.2	59.98528004		Pictures/IA75_L45.bmp	Pictures/IA75_L45.bmp	Pictures/IA75.bmp	"Don't gamble for this one"	" play it safe."""""	0	safe					6	0	6	0	0	7	7	3																															1766.463299	None	1768.485284	1769.96434	1769.980853	None	1771.481443	None	1	1773.51499	None	1773.51499	None	1773.51499	None	1773.998607	None	1773.998607	1774.982514	1776.049979	None	1776.049979	None	left	1776.049979	None	1777.46659	None	None	None	0.371725646	1.396717459													111	1	21	0	2019_Dec_06_1317	Test	3.1.2	59.98528004	Pictures/IA100_L60.bmp	Pictures/IA100_L60.bmp	Pictures/IA100.bmp	"You'd have a lot to lose"	" don't gamble."""""	0	safe					6	0	6	0	0	8	8	4																															1777.982972	None	1780.005653	1781.484471	1781.501259	None	1783.001539	None	2	1785.035399	None	1785.035399	None	1785.035399	None	None	None	None	None	1786.902314	None	1786.902314	None	right	1786.902314	None	None	None	1787.002803	1788.836662	1.7392566	0.080316541													111	1	21	0	2019_Dec_06_1317	Test	3.1.2	59.98528004	Pictures/IA100_G60.bmp	Pictures/IA100_G60.bmp	Pictures/IA100.bmp	"Be cautious"	" don't gamble for this one."""""	0	safe					6	0	6	0	0	9	9	1																															1788.853357	None	1790.874671	1792.354396	1792.371084	None	1793.871347	None	2	1795.889556	None	1795.889556	None	1795.889556	None	None	None	None	None	1796.608129	None	1796.608129	None	left	1796.608129	None	1796.789055	1798.556255	None	None	0.589004038	0.158375717													111	1	21	0	2019_Dec_06_1317	Test	3.1.2	59.98528004	Pictures/IA100_G40.bmp	Pictures/IA100_G40.bmp	Pictures/IA100.bmp	"Try your luck and gamble!"""""	1	risk					6	0	6	0	0	10	10	5																															1798.57292	None	1800.594675	1802.073991	1802.09065	None	1803.590934	None	2	1805.610333	None	1805.610333	None	1805.610333	None	None	None	None	None	1806.780517	None	1806.780517	None	right	1806.780517	None	None	None	1806.875395	1808.72597	1.060047841	0.073879412													111	1	21	0	2019_Dec_06_1317	Test	3.1.2	59.98528004		Pictures/IA100_G80.bmp	Pictures/IA100_G80.bmp	Pictures/IA100.bmp	"Why not gamble?"""""	1	risk					6	0	6	0	0	11	11	18																															1808.742645	None	1810.764121	1812.243707	1812.26026	None	1813.760645	None	2	1815.780004	None	1815.780004	None	1815.780004	None	None	None	None	None	1816.463962	None	1816.463962	None	left	1816.463962	None	1816.545002	1818.395539	None	None	0.570263056	0.062289033													111	1	21	0	2019_Dec_06_1317	Test	3.1.2	59.98528004		Pictures/IA40_20_G95p.bmp	Pictures/IA40_20_G95p.bmp	Pictures/IA40.bmp	"Hold back"	" stay with the safe choice."""""	0	safe					6	0	6	0	0	12	12	15																															1818.412226	None	1820.430836	1821.913282	1821.929907	None	1823.430257	None	2	1825.447504	None	1825.447504	None	1825.447504	None	None	None	None	None	1826.180705	None	1826.180705	None	left	1826.180705	None	1826.231195	1828.115135	None	None	0.614636546	0.025422572													111	1	21	0	2019_Dec_06_1317	Test	3.1.2	59.98528004	Pictures/IA50_G10.bmp	Pictures/IA50_G10.bmp	Pictures/IA50.bmp	"Go with the safe option here!"""""	0	safe					6	0	6	0	0	13	13	2																															1828.131802	None	1830.150267	1831.632844	1831.64952	None	1833.149853	None	1	1835.167127	None	1835.167127	None	1835.167127	None	1835.666886	None	1835.666886	1836.651041	1837.719728	None	1837.719728	None	left	1837.719728	None	1838.034732	1839.635265	None	None	0.41491385	0.286232219													111	1	21	0	2019_Dec_06_1317	Test	3.1.2	59.98528004		Pictures/IA50_L30.bmp	Pictures/IA50_L30.bmp	Pictures/IA50.bmp	"Take a leap"	" I think you should gamble."""""	1	risk					6	0	6	0	0	14	14	17																															1839.651924	None	1841.669715	1843.152973	1843.169533	None	1844.670005	None	2	1846.689265	None	1846.689265	None	1846.689265	None	None	None	None	None	1847.87057	None	1847.87057	None	right	1847.87057	None	None	None	1849.004738	None	1.060618247	1.103242886													111	1	21	0	2019_Dec_06_1317	Test	3.1.2	59.98528004	Pictures/IA100_G20.bmp	Pictures/IA100_G20.bmp	Pictures/IA100.bmp	"Go ahead and gamble!"""""	1	risk					6	0	6	0	0	15	15	11																															1849.821642	None	1851.840229	1853.322703	1853.339245	None	1854.839722	None	2	1856.856954	None	1856.856954	None	1856.856954	None	None	None	None	None	1857.773561	None	1857.773561	None	right	1857.773561	None	None	None	1858.124157	1859.70795	0.788875712	0.320131262													111	1	21	0	2019_Dec_06_1317	Test	3.1.2	59.98528004		Pictures/IA80_40_L95p.bmp	Pictures/IA80_40_L95p.bmp	Pictures/IA80.bmp	"Let's stay with the certain option."""""	0	safe					6	0	6	0	0	16	16	7																															1859.724645	None	1861.747194	1863.225668	1863.242338	None	1864.742778	None	1	1866.759898	None	1866.759898	None	1866.759898	None	1867.093188	None	1867.093188	1868.077113	1869.160295	None	1869.160295	None	right	1869.160295	None	None	None	1870.161027	None	0.229715982	0.981315001													111	1	21	0	2019_Dec_06_1317	Test	3.1.2	59.98528004		Pictures/IA110_55_L95p.bmp	Pictures/IA110_55_L95p.bmp	Pictures/IA110.bmp	"Trust me"	" gamble!"""""	1	risk					6	0	6	0	0	17	17	12																															1871.078022	None	1873.099863	1874.579073	1874.595746	None	1876.096133	None	2	1878.11663	None	1878.11663	None	1878.11663	None	None	None	None	None	1878.502797	None	1878.502797	None	right	1878.502797	None	None	None	1878.502797	1880.430841	0.272876505	-0.035248548													111	1	21	0	2019_Dec_06_1317	Test	3.1.2	59.98528004	Pictures/IA75_L60.bmp	Pictures/IA75_L60.bmp	Pictures/IA75.bmp	"Why not take the gamble?"""""	1	risk					6	0	6	0	0	18	18	10																															1880.447502	None	1882.466621	1883.94856	1883.965184	None	1885.465497	None	2	1887.465911	None	1887.465911	None	1887.465911	None	None	None	None	None	1888.169005	None	1888.169005	None	right	1888.169005	None	None	None	1888.169005	1890.100414	0.587367775	0.035465016													111	1	21	0	2019_Dec_06_1317	Test	3.1.2	59.98528004		Pictures/IA25_L15.bmp	Pictures/IA25_L15.bmp	Pictures/IA25.bmp	"There's not much on the line here"	" gamble!"""""	1	risk					6	0	6	0	0	19	19	9																															1890.11706	None	1892.151015	1893.618132	1893.634769	None	1895.135188	None	2	1897.152404	None	1897.152404	None	1897.152404	None	None	None	None	None	1898.169045	None	1898.169045	None	right	1898.169045	None	None	None	1898.169045	1900.103419	0.892776089	0.024002466													111	1	21	0	2019_Dec_06_1317	Test	3.1.2	59.98528004											6	0	6	0																																																																									1900.219622	None	return	12.00949847	1900.219622	None	111	1	21	0	2019_Dec_06_1317	Test	3.1.2	59.98528004		Pictures/IA50_L40.bmp	Pictures/IA50_L40.bmp	Pictures/IA50.bmp	"That gamble doesn't sound too good"	" play it safe."""""	0	safe					7	0	7	0	0	0	0	4													1912.340465	None	1912.340465	None	1912.340465	None	right	4.928567674	1912.340465	None	1912.340465	None	1912.340465	None	return	6.616532509	1912.340465	None	1919.008881	None	1921.014164	1922.493429	1922.510108	None	1924.01045	None	2	1926.028801	None	1926.028801	None	1926.028801	None	None	None	None	None	1926.79428	None	1926.79428	None	right	1926.79428	None	None	None	1926.811191	1928.728661	0.624147151	-0.005568458													111	1	21	0	2019_Dec_06_1317	Test	3.1.2	59.98528004	Pictures/IA25_L5.bmp	Pictures/IA25_L5.bmp	Pictures/IA25.bmp	"It would be smarter to choose the safe option."""""	0	safe					7	0	7	0	0	1	1	16																															1928.745332	None	1930.766623	1932.246348	1932.263051	None	1933.763336	None	2	1935.780683	None	1935.780683	None	1935.780683	None	None	None	None	None	1936.397147	None	1936.397147	None	left	1936.397147	None	1936.430766	1938.331548	None	None	0.488142613	0.007514183													111	1	21	0	2019_Dec_06_1317	Test	3.1.2	59.98528004		Pictures/IA25_L10.bmp	Pictures/IA25_L10.bmp	Pictures/IA25.bmp	"Dont be afraid to take the risk!"""""	1	risk					7	0	7	0	0	2	2	18																															1938.348205	None	1940.367944	1941.84924	1941.866355	None	1943.366188	None	2	1945.383551	None	1945.383551	None	1945.383551	None	None	None	None	None	1946.100031	None	1946.100031	None	left	1946.100031	None	1946.684071	1948.034472	None	None	0.589158303	0.560698645													111	1	21	0	2019_Dec_06_1317	Test	3.1.2	59.98528004		Pictures/IA75_G60.bmp	Pictures/IA75_G60.bmp	Pictures/IA75.bmp	"Make it exciting"	" take a chance!"""""	1	risk					7	0	7	0	0	3	3	6																															1948.051008	None	1950.084914	1951.552153	1951.56885	None	1953.069285	None	2	1955.102811	None	1955.102811	None	1955.102811	None	None	None	None	None	1955.619606	None	1955.619606	None	left	1955.619606	None	1955.82012	1957.553949	None	None	0.397715203	0.176911739													111	1	21	0	2019_Dec_06_1317	Test	3.1.2	59.98528004	Pictures/IA75_G30.bmp	Pictures/IA75_G30.bmp	Pictures/IA75.bmp	"Be bold"	" gamble!"""""	1	risk					7	0	7	0	0	4	4	8																															1957.57068	None	1959.593116	1961.071704	1961.088394	None	1962.588646	None	2	1964.607495	None	1964.607495	None	1964.607495	None	None	None	None	None	1964.805679	None	1964.805679	None	right	1964.805679	None	None	None	1964.856072	1966.740079	0.092991127	0.022643008													111	1	21	0	2019_Dec_06_1317	Test	3.1.2	59.98528004	Pictures/IA80_40_G95p.bmp	Pictures/IA80_40_G95p.bmp	Pictures/IA80.bmp	"Think of the payoff"	" gamble!"""""	1	risk					7	0	7	0	0	5	5	7																															1966.756754	None	1968.776179	1970.257801	1970.274466	None	1971.774734	None	2	1973.792035	None	1973.792035	None	1973.792035	None	None	None	None	None	1974.69393	None	1974.69393	None	left	1974.69393	None	1974.742487	1976.643047	None	None	0.796253981	0.030184561													111	1	21	0	2019_Dec_06_1317	Test	3.1.2	59.98528004	Pictures/IA100_G80.bmp	Pictures/IA100_G80.bmp	Pictures/IA100.bmp	"Why not gamble?"""""	1	risk					7	0	7	0	0	6	6	15																															1976.659722	None	1978.677867	1980.160773	1980.177425	None	1981.677791	None	2	1983.694973	None	1983.694973	None	1983.694973	None	None	None	None	None	1984.494941	None	1984.494941	None	right	1984.494941	None	None	None	1984.511603	1986.429306	0.685235967	-0.002859495													111	1	21	0	2019_Dec_06_1317	Test	3.1.2	59.98528004		Pictures/IA20_10_G95p.bmp	Pictures/IA20_10_G95p.bmp	Pictures/IA20.bmp	"Take a leap"	" I think you should gamble."""""	1	risk					7	0	7	0	0	7	7	2																															1986.445984	None	1988.467003	1989.947044	1989.963705	None	1991.464151	None	2	1993.481301	None	1993.481301	None	1993.481301	None	None	None	None	None	1994.131136	None	1994.131136	None	left	1994.131136	None	1994.231618	1996.065569	None	None	0.522817645	0.072947914													111	1	21	0	2019_Dec_06_1317	Test	3.1.2	59.98528004	Pictures/IA25_G15.bmp	Pictures/IA25_G15.bmp	Pictures/IA25.bmp	"I think you should take a gamble."""""	1	risk					7	0	7	0	0	8	8	1																															1996.082212	None	1998.103423	1999.583247	1999.599841	None	2001.100345	None	1	2003.133899	None	2003.133899	None	2003.133899	None	2004.551177	None	2004.551177	2005.535049	2006.618221	None	2006.618221	None	left	2006.618221	None	2007.318919	2008.519264	None	None	1.302060211	0.67366114													111	1	21	0	2019_Dec_06_1317	Test	3.1.2	59.98528004		Pictures/IA50_G30.bmp	Pictures/IA50_G30.bmp	Pictures/IA50.bmp	"I think you should gamble."""""	1	risk					7	0	7	0	0	9	9	14																															2008.53594	None	2010.557102	2012.036997	2012.053693	None	2013.554118	None	2	2015.587688	None	2015.587688	None	2015.587688	None	None	None	None	None	2016.354501	None	2016.354501	None	right	2016.354501	None	None	None	2016.388158	2018.288869	0.648133133	0.001051861													111	1	21	0	2019_Dec_06_1317	Test	3.1.2	59.98528004		Pictures/IA50_G20.bmp	Pictures/IA50_G20.bmp	Pictures/IA50.bmp	"Let's venture and take a risk!"""""	1	risk					7	0	7	0	0	10	10	3																															2018.305567	None	2020.324137	2021.806588	2021.823241	None	2023.323713	None	2	2025.340825	None	2025.340825	None	2025.340825	None	None	None	None	None	2025.895194	None	2025.895194	None	right	2025.895194	None	None	None	2025.924342	2027.841759	0.438885836	0.01226933													111	1	21	0	2019_Dec_06_1317	Test	3.1.2	59.98528004		Pictures/IA50_G40.bmp	Pictures/IA50_G40.bmp	Pictures/IA50.bmp	"It would probably be best to play it safe."""""	0	safe					7	0	7	0	0	11	11	12																															2027.858425	None	2029.880091	2031.359462	2031.376024	None	2032.876456	None	2	2034.896103	None	2034.896103	None	2034.896103	None	None	None	None	None	2035.843661	None	2035.843661	None	left	2035.843661	None	2035.894152	2037.77806	None	None	0.819430384	0.023784442													111	1	21	0	2019_Dec_06_1317	Test	3.1.2	59.98528004		Pictures/IA100_G60.bmp	Pictures/IA100_G60.bmp	Pictures/IA100.bmp	"Be cautious"	" don't gamble for this one."""""	0	safe					7	0	7	0	0	12	12	9																															2037.794733	None	2039.813598	2041.295769	2041.312419	None	2042.812729	None	1	2044.830034	None	2044.830034	None	2044.830034	None	2046.198013	None	2046.198013	2047.197572	2048.264113	None	2048.264113	None	right	2048.264113	None	None	None	2049.164741	2050.181783	1.277409274	0.875317743													111	1	21	0	2019_Dec_06_1317	Test	3.1.2	59.98528004	Pictures/IA50_L30.bmp	Pictures/IA50_L30.bmp	Pictures/IA50.bmp	"Take a leap"	" I think you should gamble."""""	1	risk					7	0	7	0	0	13	13	17																															2050.198465	None	2052.219821	2053.6995	2053.71616	None	2055.216609	None	2	2057.250442	None	2057.250442	None	2057.250442	None	None	None	None	None	2057.883623	None	2057.883623	None	right	2057.883623	None	None	None	2057.917434	2059.818017	0.512861663	0.007560836													111	1	21	0	2019_Dec_06_1317	Test	3.1.2	59.98528004	Pictures/IA25_G10.bmp	Pictures/IA25_G10.bmp	Pictures/IA25.bmp	"What's life without a little risk?"""""	1	risk					7	0	7	0	0	14	14	13																															2059.834671	None	2061.855389	2063.335712	2063.352386	None	2064.852834	None	2	2066.886629	None	2066.886629	None	2066.886629	None	None	None	None	None	2067.542035	None	2067.542035	None	right	2067.542035	None	None	None	2067.637013	2069.487578	0.548566474	0.077079471													111	1	21	0	2019_Dec_06_1317	Test	3.1.2	59.98528004		Pictures/IA100_L80.bmp	Pictures/IA100_L80.bmp	Pictures/IA100.bmp	"Go all in!"""""	1	risk					7	0	7	0	0	15	15	10																															2069.504255	None	2071.524132	2073.005305	2073.021989	None	2074.522243	None	2	2076.53953	None	2076.53953	None	2076.53953	None	None	None	None	None	2077.172731	None	2077.172731	None	left	2077.172731	None	2077.306601	2079.107104	None	None	0.5275448	0.110312936													111	1	21	0	2019_Dec_06_1317	Test	3.1.2	59.98528004		Pictures/IA25_L20.bmp	Pictures/IA25_L20.bmp	Pictures/IA25.bmp	"Don't be tempted to gamble."""""	0	safe					7	0	7	0	0	16	16	11																															2079.12377	None	2081.145226	2082.624765	2082.641496	None	2084.141971	None	2	2086.175788	None	2086.175788	None	2086.175788	None	None	None	None	None	2086.775625	None	2086.775625	None	right	2086.775625	None	None	None	2086.842755	2088.710008	0.468295963	0.051320067													111	1	21	0	2019_Dec_06_1317	Test	3.1.2	59.98528004		Pictures/IA40_20_L95p.bmp	Pictures/IA40_20_L95p.bmp	Pictures/IA40.bmp	"Trust me"	" gamble!"""""	1	risk					7	0	7	0	0	17	17	0																															2088.726691	None	2090.747831	2092.22775	2092.244416	None	2093.744645	None	2	2095.778638	None	2095.778638	None	2095.778638	None	None	None	None	None	2096.611943	None	2096.611943	None	right	2096.611943	None	None	None	2096.962498	2098.546296	0.712219536	0.318836807													111	1	21	0	2019_Dec_06_1317	Test	3.1.2	59.98528004	Pictures/IA75_G15.bmp	Pictures/IA75_G15.bmp	Pictures/IA75.bmp	"Take a chance!"""""	1	risk					7	0	7	0	0	18	18	5																															2098.562964	None	2100.58401	2102.064024	2102.080707	None	2103.581118	None	2	2105.614667	None	2105.614667	None	2105.614667	None	None	None	None	None	2107.731907	None	2107.731907	None	left	2107.731907	None	2108.749359	None	None	None	1.996033905	0.990767445													111	1	21	0	2019_Dec_06_1317	Test	3.1.2	59.98528004		Pictures/IA50_G10.bmp	Pictures/IA50_G10.bmp	Pictures/IA50.bmp	"Go with the safe option here!"""""	0	safe					7	0	7	0	0	19	19	19																															2109.682981	None	2111.704444	2113.184021	2113.200634	None	2114.701136	None	1	2116.718273	None	2116.718273	None	2116.718273	None	2117.318795	None	2117.318795	2118.318919	2119.386225	None	2119.386225	None	left	2119.386225	None	2119.652641	2121.303156	None	None	0.508300591	0.240291822													111	1	21	0	2019_Dec_06_1317	Test	3.1.2	59.98528004												7	0	7	0																																																																									2121.41935	None	return	72.18230727	2121.41935	None	111	1	21	0	2019_Dec_06_1317	Test	3.1.2	59.98528004		Pictures/IA75_G30.bmp	Pictures/IA75_G30.bmp	Pictures/IA75.bmp	"Be bold"	" gamble!"""""	1	risk					8	0	8	0	0	0	0	16													2193.70796	None	2193.70796	None	2193.70796	None	left	1.077727009	2193.70796	None	2193.70796	None	2193.70796	None	return	1.685661128	2193.70796	None	2195.458646	None	2197.446225	2198.926416	2198.943078	None	2200.443542	None	2	2202.460707	None	2202.460707	None	2202.460707	None	None	None	None	None	2203.227237	None	2203.227237	None	left	2203.227237	None	2203.27775	2205.161627	None	None	0.652767605	0.022184257													111	1	21	0	2019_Dec_06_1317	Test	3.1.2	59.98528004	Pictures/IA25_L20.bmp	Pictures/IA25_L20.bmp	Pictures/IA25.bmp	"Don't be tempted to gamble."""""	0	safe					8	0	8	0	0	1	1	17																															2205.178314	None	2207.199681	2208.679371	2208.695917	None	2210.19645	None	2	2212.230294	None	2212.230294	None	2212.230294	None	None	None	None	None	2212.834516	None	2212.834516	None	right	2212.834516	None	None	None	2212.848198	2214.781205	0.499081721	-0.001235051													111	1	21	0	2019_Dec_06_1317	Test	3.1.2	59.98528004		Pictures/IA40_20_L95p.bmp	Pictures/IA40_20_L95p.bmp	Pictures/IA40.bmp	"Trust me"	" gamble!"""""	1	risk					8	0	8	0	0	2	2	0																															2214.797876	None	2216.816559	2218.298913	2218.315584	None	2219.815977	None	2	2221.833242	None	2221.833242	None	2221.833242	None	None	None	None	None	2222.453945	None	2222.453945	None	right	2222.453945	None	None	None	2222.453945	2224.384077	0.496022553	0.02560234													111	1	21	0	2019_Dec_06_1317	Test	3.1.2	59.98528004	Pictures/IA80_40_G95p.bmp	Pictures/IA80_40_G95p.bmp	Pictures/IA80.bmp	"Think of the payoff"	" gamble!"""""	1	risk					8	0	8	0	0	3	3	18																															2224.400728	None	2226.421547	2227.901826	2227.918439	None	2229.418889	None	2	2231.436034	None	2231.436034	None	2231.436034	None	None	None	None	None	2232.352634	None	2232.352634	None	left	2232.352634	None	2232.386497	2234.287062	None	None	0.797127318	0.008299502													111	1	21	0	2019_Dec_06_1317	Test	3.1.2	59.98528004	Pictures/IA75_L60.bmp	Pictures/IA75_L60.bmp	Pictures/IA75.bmp	"Why not take the gamble?"""""	1	risk					8	0	8	0	0	4	4	2																															2234.303736	None	2236.324946	2237.804777	2237.821341	None	2239.321846	None	2	2241.339002	None	2241.339002	None	2241.339002	None	None	None	None	None	2241.890755	None	2241.890755	None	right	2241.890755	None	None	None	2241.955984	2243.823232	0.446053856	0.038288744													111	1	21	0	2019_Dec_06_1317	Test	3.1.2	59.98528004		Pictures/IA25_L15.bmp	Pictures/IA25_L15.bmp	Pictures/IA25.bmp	"There's not much on the line here"	" gamble!"""""	1	risk					8	0	8	0	0	5	5	14																															2243.839921	None	2245.861379	2247.340964	2247.357607	None	2248.858059	None	2	2250.875209	None	2250.875209	None	2250.875209	None	None	None	None	None	2251.630149	None	2251.630149	None	left	2251.630149	None	2252.8259	None	None	None	0.646328609	1.170763856													111	1	21	0	2019_Dec_06_1317	Test	3.1.2	59.98528004	Pictures/IA20_10_L95p.bmp	Pictures/IA20_10_L95p.bmp	Pictures/IA20.bmp	"Don't be tempted to gamble."""""	0	safe					8	0	8	0	0	6	6	12																															2253.592819	None	2255.613808	2257.093895	2257.110557	None	2258.611006	None	1	2260.628144	None	2260.628144	None	2260.628144	None	2261.644966	None	2261.644966	2262.628861	2263.712043	None	2263.712043	None	left	2263.712043	None	2264.612827	2265.613113	None	None	0.924667826	0.872659166													111	1	21	0	2019_Dec_06_1317	Test	3.1.2	59.98528004		Pictures/IA75_G45.bmp	Pictures/IA75_G45.bmp	Pictures/IA75.bmp	"Don't gamble for this one."""""	0	safe					8	0	8	0	0	7	7	7																															2265.629784	None	2267.651417	2269.130828	2269.147448	None	2270.647939	None	2	2272.68175	None	2272.68175	None	2272.68175	None	None	None	None	None	2273.024183	None	2273.024183	None	right	2273.024183	None	None	None	2273.024183	2274.965921	0.222959126	-0.026615635													111	1	21	0	2019_Dec_06_1317	Test	3.1.2	59.98528004		Pictures/IA110_55_G95p.bmp	Pictures/IA110_55_G95p.bmp	Pictures/IA110.bmp	"Take a chance!"""""	1	risk					8	0	8	0	0	8	8	4																															2274.982575	None	2277.004535	2278.483656	2278.500316	None	2280.000759	None	2	2282.017952	None	2282.017952	None	2282.017952	None	None	None	None	None	2282.717778	None	2282.717778	None	left	2282.717778	None	2283.851933	None	None	None	0.590610754	1.106723794													111	1	21	0	2019_Dec_06_1317	Test	3.1.2	59.98528004		Pictures/IA110_55_L95p.bmp	Pictures/IA110_55_L95p.bmp	Pictures/IA110.bmp	"Trust me"	" gamble!"""""	1	risk					8	0	8	0	0	9	9	10																															2284.668844	None	2286.690957	2288.169911	2288.186532	None	2289.686995	None	2	2291.704168	None	2291.704168	None	2291.704168	None	None	None	None	None	2292.113163	None	2292.113163	None	right	2292.113163	None	None	None	2292.113163	2294.054984	0.296286171	0.013434091													111	1	21	0	2019_Dec_06_1317	Test	3.1.2	59.98528004	Pictures/IA25_G20.bmp	Pictures/IA25_G20.bmp	Pictures/IA25.bmp	"I wouldn't gamble for this one. """""	0	safe					8	0	8	0	0	10	10	5																															2294.071658	None	2296.093514	2297.572706	2297.589389	None	2299.089749	None	2	2301.123394	None	2301.123394	None	2301.123394	None	None	None	None	None	2302.010485	None	2302.010485	None	left	2302.010485	None	2302.107395	2303.941262	None	None	0.756978378	0.077847373													111	1	21	0	2019_Dec_06_1317	Test	3.1.2	59.98528004		Pictures/IA50_G40.bmp	Pictures/IA50_G40.bmp	Pictures/IA50.bmp	"It would probably be best to play it safe."""""	0	safe					8	0	8	0	0	11	11	13																															2303.95797	None	2305.979818	2307.459006	2307.475679	None	2308.976111	None	2	2310.993247	None	2310.993247	None	2310.993247	None	None	None	None	None	2311.659795	None	2311.659795	None	left	2311.659795	None	2311.710286	2313.59418	None	None	0.534961012	0.020223292													111	1	21	0	2019_Dec_06_1317	Test	3.1.2	59.98528004		Pictures/IA25_G15.bmp	Pictures/IA25_G15.bmp	Pictures/IA25.bmp	"I think you should take a gamble."""""	1	risk					8	0	8	0	0	12	12	3																															2313.610849	None	2315.630795	2317.111894	2317.128545	None	2318.628841	None	2	2320.646143	None	2320.646143	None	2320.646143	None	None	None	None	None	2320.812519	None	2320.812519	None	right	2320.812519	None	None	None	2321.57986	2322.746946	0.065932603	0.747566988													111	1	21	0	2019_Dec_06_1317	Test	3.1.2	59.98528004		Pictures/IA100_G60.bmp	Pictures/IA100_G60.bmp	Pictures/IA100.bmp	"Be cautious"	" don't gamble for this one."""""	0	safe					8	0	8	0	0	13	13	6																															2322.76357	None	2324.782889	2326.264663	2326.2812	None	2327.78165	None	2	2329.798935	None	2329.798935	None	2329.798935	None	None	None	None	None	2330.665528	None	2330.665528	None	left	2330.665528	None	2330.766013	2332.599831	None	None	0.736977152	0.078451058													111	1	21	0	2019_Dec_06_1317	Test	3.1.2	59.98528004	Pictures/IA100_L60.bmp	Pictures/IA100_L60.bmp	Pictures/IA100.bmp	"You'd have a lot to lose"	" don't gamble."""""	0	safe					8	0	8	0	0	14	14	9																															2332.616538	None	2334.638128	2336.117623	2336.134486	None	2337.6347	None	2	2339.66824	None	2339.66824	None	2339.66824	None	None	None	None	None	2340.022057	None	2340.022057	None	right	2340.022057	None	None	None	2340.102135	2341.969379	0.22761537	0.057803849													111	1	21	0	2019_Dec_06_1317	Test	3.1.2	59.98528004	Pictures/IA100_L80.bmp	Pictures/IA100_L80.bmp	Pictures/IA100.bmp	"Go all in!"""""	1	risk					8	0	8	0	0	15	15	8																															2341.986015	None	2344.007104	2345.487079	2345.503682	None	2347.004036	None	2	2349.022923	None	2349.022923	None	2349.022923	None	None	None	None	None	2349.38778	None	2349.38778	None	right	2349.38778	None	None	None	2349.454782	2351.322186	0.264819907	0.04395144													111	1	21	0	2019_Dec_06_1317	Test	3.1.2	59.98528004		Pictures/IA100_G20.bmp	Pictures/IA100_G20.bmp	Pictures/IA100.bmp	"Go ahead and gamble!"""""	1	risk					8	0	8	0	0	16	16	15																															2351.338827	None	2353.360208	2354.839912	2354.856436	None	2356.357034	None	2	2358.390909	None	2358.390909	None	2358.390909	None	None	None	None	None	2358.97399	None	2358.97399	None	left	2358.97399	None	2359.040973	2360.908373	None	None	0.47273947	0.0416468													111	1	21	0	2019_Dec_06_1317	Test	3.1.2	59.98528004		Pictures/IA20_10_G95p.bmp	Pictures/IA20_10_G95p.bmp	Pictures/IA20.bmp	"Take a leap"	" I think you should gamble."""""	1	risk					8	0	8	0	0	17	17	11																															2360.925059	None	2362.943962	2364.426102	2364.442704	None	2365.943104	None	2	2367.96033	None	2367.96033	None	2367.96033	None	None	None	None	None	2368.46018	None	2368.46018	None	left	2368.46018	None	2368.994088	2370.394579	None	None	0.383136879	0.507283253													111	1	21	0	2019_Dec_06_1317	Test	3.1.2	59.98528004	Pictures/IA50_G10.bmp	Pictures/IA50_G10.bmp	Pictures/IA50.bmp	"Go with the safe option here!"""""	0	safe					8	0	8	0	0	18	18	19																															2370.4112	None	2372.431973	2373.912304	2373.928837	None	2375.429367	None	1	2377.446503	None	2377.446503	None	2377.446503	None	2378.163339	None	2378.163339	2379.163862	2380.232751	None	2380.232751	None	right	2380.232751	None	None	None	2380.89766	2382.148111	0.63287648	0.638563746													111	1	21	0	2019_Dec_06_1317	Test	3.1.2	59.98528004		Pictures/IA40_20_G95p.bmp	Pictures/IA40_20_G95p.bmp	Pictures/IA40.bmp	"Hold back"	" stay with the safe choice."""""	0	safe					8	0	8	0	0	19	19	1																															2382.164753	None	2384.182736	2385.665835	2385.682396	None	2387.182773	None	2	2389.200073	None	2389.200073	None	2389.200073	None	None	None	None	None	2391.383713	None	2391.383713	None	right	2391.383713	None	None	None	2392.517901	None	2.063147441	1.111502578													111	1	21	0	2019_Dec_06_1317	Test	3.1.2	59.98528004											8	0	8	0																																																																									2393.434308	None	return	6.012768202	2393.434308	None	111	1	21	0	2019_Dec_06_1317	Test	3.1.2	59.98528004		Pictures/IA50_G10.bmp	Pictures/IA50_G10.bmp	Pictures/IA50.bmp	"Go with the safe option here!"""""	0	safe					9	0	9	0	0	0	0	2													2399.569484	None	2399.569484	None	2399.569484	None	left	1.381621602	2399.569484	None	2399.569484	None	2399.569484	None	return	1.661669237	2399.569484	None	2401.287044	None	2403.28897	2404.771571	2404.788238	None	2406.288499	None	2	2408.305814	None	2408.305814	None	2408.305814	None	None	None	None	None	2408.722239	None	2408.722239	None	right	2408.722239	None	None	None	2408.756108	2410.656651	0.293199011	0.004593107													111	1	21	0	2019_Dec_06_1317	Test	3.1.2	59.98528004		Pictures/IA75_G45.bmp	Pictures/IA75_G45.bmp	Pictures/IA75.bmp	"Don't gamble for this one."""""	0	safe					9	0	9	0	0	1	1	3																															2410.673331	None	2412.694712	2414.174374	2414.191048	None	2415.691461	None	1	2417.725313	None	2417.725313	None	2417.725313	None	2418.110367	None	2418.110367	2419.109193	2420.192591	None	2420.192591	None	left	2420.192591	None	2420.426159	2422.093431	None	None	0.289620755	0.206956653													111	1	21	0	2019_Dec_06_1317	Test	3.1.2	59.98528004		Pictures/IA50_L20.bmp	Pictures/IA50_L20.bmp	Pictures/IA50.bmp	"Certainty is boring"	" take a risk!"""""	1	risk					9	0	9	0	0	2	2	7																															2422.110105	None	2424.131465	2425.611154	2425.627805	None	2427.128251	None	2	2429.161777	None	2429.161777	None	2429.161777	None	None	None	None	None	2429.778614	None	2429.778614	None	left	2429.778614	None	2430.312532	2431.71297	None	None	0.492978002	0.516076962													111	1	21	0	2019_Dec_06_1317	Test	3.1.2	59.98528004	Pictures/IA50_G40.bmp	Pictures/IA50_G40.bmp	Pictures/IA50.bmp	"It would probably be best to play it safe."""""	0	safe					9	0	9	0	0	3	3	6																															2431.729634	None	2433.750674	2435.230702	2435.247285	None	2436.747806	None	2	2438.764961	None	2438.764961	None	2438.764961	None	None	None	None	None	2439.548182	None	2439.548182	None	right	2439.548182	None	None	None	2439.698684	2441.482567	0.665632222	0.122414317													111	1	21	0	2019_Dec_06_1317	Test	3.1.2	59.98528004		Pictures/IA80_40_G95p.bmp	Pictures/IA80_40_G95p.bmp	Pictures/IA80.bmp	"Think of the payoff"	" gamble!"""""	1	risk					9	0	9	0	0	4	4	18																															2441.499277	None	2443.518789	2445.000294	2445.016983	None	2446.517246	None	2	2448.534525	None	2448.534525	None	2448.534525	None	None	None	None	None	2449.368956	None	2449.368956	None	left	2449.368956	None	2449.501657	2451.302178	None	None	0.711982541	0.101498389													111	1	21	0	2019_Dec_06_1317	Test	3.1.2	59.98528004	Pictures/IA100_G20.bmp	Pictures/IA100_G20.bmp	Pictures/IA100.bmp	"Go ahead and gamble!"""""	1	risk					9	0	9	0	0	5	5	16																															2451.318849	None	2453.339558	2454.819864	2454.836544	None	2456.336991	None	2	2458.354154	None	2458.354154	None	2458.354154	None	None	None	None	None	2458.854014	None	2458.854014	None	right	2458.854014	None	None	None	2458.870932	2460.788358	0.372265262	0.000142446													111	1	21	0	2019_Dec_06_1317	Test	3.1.2	59.98528004		Pictures/IA40_20_G95p.bmp	Pictures/IA40_20_G95p.bmp	Pictures/IA40.bmp	"Hold back"	" stay with the safe choice."""""	0	safe					9	0	9	0	0	6	6	8																															2460.805086	None	2462.82595	2464.306102	2464.322766	None	2465.823182	None	2	2467.85702	None	2467.85702	None	2467.85702	None	None	None	None	None	2468.456891	None	2468.456891	None	left	2468.456891	None	2468.757356	2470.407933	None	None	0.477284991	0.277346759													111	1	21	0	2019_Dec_06_1317	Test	3.1.2	59.98528004	Pictures/IA75_L60.bmp	Pictures/IA75_L60.bmp	Pictures/IA75.bmp	"Why not take the gamble?"""""	1	risk					9	0	9	0	0	7	7	19																															2470.424599	None	2472.442824	2473.925601	2473.942325	None	2475.442743	None	2	2477.45994	None	2477.45994	None	2477.45994	None	None	None	None	None	2478.565164	None	2478.565164	None	right	2478.565164	None	None	None	2478.643719	2480.510942	0.994217562	0.056999558													111	1	21	0	2019_Dec_06_1317	Test	3.1.2	59.98528004		Pictures/IA80_40_L95p.bmp	Pictures/IA80_40_L95p.bmp	Pictures/IA80.bmp	"Let's stay with the certain option."""""	0	safe					9	0	9	0	0	8	8	14																															2480.527615	None	2482.547246	2484.028644	2484.045276	None	2485.545623	None	2	2487.562861	None	2487.562861	None	2487.562861	None	None	None	None	None	2488.429523	None	2488.429523	None	right	2488.429523	None	None	None	2488.496562	2490.36392	0.74711228	0.048494784													111	1	21	0	2019_Dec_06_1317	Test	3.1.2	59.98528004		Pictures/IA75_L15.bmp	Pictures/IA75_L15.bmp	Pictures/IA75.bmp	"Trust me"	" gamble!"""""	1	risk					9	0	9	0	0	9	9	9																															2490.380569	None	2492.401228	2493.881619	2493.898176	None	2495.398717	None	2	2497.415817	None	2497.415817	None	2497.415817	None	None	None	None	None	2498.838136	None	2498.838136	None	left	2498.838136	None	2499.866677	None	None	None	1.310029102	1.007762686													111	1	21	0	2019_Dec_06_1317	Test	3.1.2	59.98528004	Pictures/IA25_L5.bmp	Pictures/IA25_L5.bmp	Pictures/IA25.bmp	"It would be smarter to choose the safe option."""""	0	safe					9	0	9	0	0	10	10	13																															2500.800377	None	2502.821886	2504.301424	2504.318092	None	2505.81847	None	2	2507.839502	None	2507.839502	None	2507.839502	None	None	None	None	None	2508.21879	None	2508.21879	None	left	2508.21879	None	2508.352639	2510.153174	None	None	0.262273606	0.115012411													111	1	21	0	2019_Dec_06_1317	Test	3.1.2	59.98528004		Pictures/IA50_L10.bmp	Pictures/IA50_L10.bmp	Pictures/IA50.bmp	"Play it safe"	" don’t gamble!"""""	0	safe					9	0	9	0	0	11	11	5																															2510.169861	None	2512.189217	2513.670931	2513.687557	None	2515.187858	None	2	2517.20519	None	2517.20519	None	2517.20519	None	None	None	None	None	2517.354868	None	2517.354868	None	right	2517.354868	None	None	None	2517.371677	2519.289228	0.04041175	-0.013406099													111	1	21	0	2019_Dec_06_1317	Test	3.1.2	59.98528004	Pictures/IA25_L20.bmp	Pictures/IA25_L20.bmp	Pictures/IA25.bmp	"Don't be tempted to gamble."""""	0	safe					9	0	9	0	0	12	12	0																															2519.305938	None	2521.326539	2522.806966	2522.823633	None	2524.32408	None	2	2526.357912	None	2526.357912	None	2526.357912	None	None	None	None	None	2526.679265	None	2526.679265	None	right	2526.679265	None	None	None	2526.679265	2528.608732	0.20766795	0.034253292													111	1	21	0	2019_Dec_06_1317	Test	3.1.2	59.98528004		Pictures/IA50_L40.bmp	Pictures/IA50_L40.bmp	Pictures/IA50.bmp	"That gamble doesn't sound too good"	" play it safe."""""	0	safe					9	0	9	0	0	13	13	10																															2528.62539	None	2530.646943	2532.126441	2532.143111	None	2533.643538	None	1	2535.660704	None	2535.660704	None	2535.660704	None	2536.562104	None	2536.562104	2537.561419	2538.613755	None	2538.613755	None	left	2538.613755	None	2538.678224	2540.528972	None	None	0.800802612	0.047691426													111	1	21	0	2019_Dec_06_1317	Test	3.1.2	59.98528004	Pictures/IA100_L40.bmp	Pictures/IA100_L40.bmp	Pictures/IA100.bmp	"Think of the payoff"	" gamble!"""""	1	risk					9	0	9	0	0	14	14	15																															2540.545638	None	2542.566396	2544.046697	2544.06337	None	2545.563769	None	2	2547.597629	None	2547.597629	None	2547.597629	None	None	None	None	None	2548.180801	None	2548.180801	None	right	2548.180801	None	None	None	2548.197471	2550.115138	0.464429393	0.000283026													111	1	21	0	2019_Dec_06_1317	Test	3.1.2	59.98528004	Pictures/IA110_55_G95p.bmp	Pictures/IA110_55_G95p.bmp	Pictures/IA110.bmp	"Take a chance!"""""	1	risk					9	0	9	0	0	15	15	12																															2550.131853	None	2552.150126	2553.632916	2553.649581	None	2555.1499	None	2	2557.167163	None	2557.167163	None	2557.167163	None	None	None	None	None	2557.883848	None	2557.883848	None	left	2557.883848	None	2557.883848	2559.818094	None	None	0.614049967	0.029783037													111	1	21	0	2019_Dec_06_1317	Test	3.1.2	59.98528004		Pictures/IA25_G15.bmp	Pictures/IA25_G15.bmp	Pictures/IA25.bmp	"I think you should take a gamble."""""	1	risk					9	0	9	0	0	16	16	11																															2559.834755	None	2561.856273	2563.335806	2563.352428	None	2564.852919	None	2	2566.886765	None	2566.886765	None	2566.886765	None	None	None	None	None	2567.245163	None	2567.245163	None	right	2567.245163	None	None	None	2567.245163	2569.187564	0.238334277	-0.014203548													111	1	21	0	2019_Dec_06_1317	Test	3.1.2	59.98528004		Pictures/IA100_L60.bmp	Pictures/IA100_L60.bmp	Pictures/IA100.bmp	"You'd have a lot to lose"	" don't gamble."""""	0	safe					9	0	9	0	0	17	17	1																															2569.204249	None	2571.22514	2572.705299	2572.721901	None	2574.22229	None	2	2576.240526	None	2576.240526	None	2576.240526	None	None	None	None	None	2577.723008	None	2577.723008	None	right	2577.723008	None	None	None	2577.77329	2579.657377	1.356414254	0.017706538													111	1	21	0	2019_Dec_06_1317	Test	3.1.2	59.98528004	Pictures/IA100_L80.bmp	Pictures/IA100_L80.bmp	Pictures/IA100.bmp	"Go all in!"""""	1	risk					9	0	9	0	0	18	18	17																															2579.674055	None	2581.694548	2583.175114	2583.191731	None	2584.692138	None	2	2586.710575	None	2586.710575	None	2586.710575	None	None	None	None	None	2587.159152	None	2587.159152	None	right	2587.159152	None	None	None	2587.192775	2589.093554	0.326255197	0.013472346													111	1	21	0	2019_Dec_06_1317	Test	3.1.2	59.98528004		Pictures/IA75_G30.bmp	Pictures/IA75_G30.bmp	Pictures/IA75.bmp	"Be bold"	" gamble!"""""	1	risk					9	0	9	0	0	19	19	4																															2589.110234	None	2591.13162	2592.611242	2592.627951	None	2594.128374	None	2	2596.162201	None	2596.162201	None	2596.162201	None	None	None	None	None	2597.245518	None	2597.245518	None	left	2597.245518	None	2597.329219	2599.179914	None	None	0.978540724	0.055163311													111	1	21	0	2019_Dec_06_1317	Test	3.1.2	59.98528004											9	0	9	0																																																																									2599.296155	None	return	1.836450817	2599.296155	None	111	1	21	0	2019_Dec_06_1317	Test	3.1.2	59.98528004		