Choice,Choice2,Amount,AdviceVar1,GambleAdviceNum,GambleAdviceType,practice.thisRepN,practice.thisTrialN,practice.thisN,practice.thisIndex,trials_2.thisRepN,trials_2.thisTrialN,trials_2.thisN,trials_2.thisIndex,trials.thisRepN,trials.thisTrialN,trials.thisN,trials.thisIndex,text.started,text.stopped,key_resp_4.keys,key_resp_4.rt,key_resp_4.started,key_resp_4.stopped,instructions.started,instructions.stopped,space.keys,space.rt,space.started,space.stopped,chooseInst.started,chooseInst.stopped,Ad1.started,Ad1.stopped,Ad2.started,Ad2.stopped,key_resp_3.keys,key_resp_3.rt,key_resp_3.started,key_resp_3.stopped,Ad1pic.started,Ad1pic.stopped,Ad2pic.started,Ad2pic.stopped,enter.keys,enter.rt,enter.started,enter.stopped,iSi.started,iSi.stopped,receiveMoneyPicture.started,receiveMoneyPicture.stopped,ISI2.started,ISI2.stopped,ChoicePic.started,ChoicePic.stopped,response.keys,response.started,response.stopped,yesNo.started,yesNo.stopped,ask.started,ask.stopped,getAdv.started,getAdv.stopped,textForCode.started,textForCode.stopped,blank.started,blank.stopped,ChoicePic2.started,ChoicePic2.stopped,resp.keys,resp.started,resp.stopped,checkL1.started,checkL1.stopped,checkR1.started,checkR1.stopped,response.rt,resp.rt,EndPrac.started,EndPrac.stopped,key_resp.keys,key_resp.rt,key_resp.started,key_resp.stopped,endText.started,endText.stopped,key_resp_2.keys,key_resp_2.rt,key_resp_2.started,key_resp_2.stopped,participant,session,age,gender (0=male, 1 = female, 2 = other),date,expName,psychopyVersion,frameRate,
,,,,,,,,,,,,,,,,,,24.990510233564805,None,space,146.67605037612907,24.990510233564805,None,,,,,,,,,,,,,,,,,,,,,,,,,,,,,,,,,,,,,,,,,,,,,,,,,,,,,,,,,,,,,,,,,,,,,111,001,21,0,2019_Dec_06_1317,Test,3.1.2,59.98528004301064,
,,,,,,,,,,,,,,,,,,,,,,,,171.68456634672293,None,space,3.6297799893196725,171.68456634672293,None,,,,,,,,,,,,,,,,,,,,,,,,,,,,,,,,,,,,,,,,,,,,,,,,,,,,,,,,,,,,,,,111,001,21,0,2019_Dec_06_1317,Test,3.1.2,59.98528004301064,
,,,,,,,,,,,,,,,,,,,,,,,,,,,,,,177.93598139866447,None,177.93598139866447,None,177.93598139866447,None,left,8.322344462473097,177.93598139866447,None,,,,,,,,,,,,,,,,,,,,,,,,,,,,,,,,,,,,,,,,,,,,,,,,,,,,,111,001,21,0,2019_Dec_06_1317,Test,3.1.2,59.98528004301064,
,,,,,,,,,,,,,,,,,,,,,,,,,,,,,,,,,,,,,,,,177.93598139866447,None,177.93598139866447,None,return,11.146235459542368,177.93598139866447,None,,,,,,,,,,,,,,,,,,,,,,,,,,,,,,,,,,,,,,,,,,,,,111,001,21,0,2019_Dec_06_1317,Test,3.1.2,59.98528004301064,
Pictures/IA100_G20.bmp,Pictures/IA100_G20.bmp,Pictures/IA100.bmp,"

"Go ahead and gamble!"",1,risk,0,0,0,4,,,,,,,,,,,,,,,,,,,,,,,,,,,,,,,,,,,,,,,189.18973219214786,None,191.25693965607059,192.62420997663332,192.64085438999666,None,194.2083584091206,None,None,196.59158641637225,None,196.59158641637225,None,196.59158641637225,None,None,None,None,None,199.59250578414822,None,199.59250578414822,None,None,199.59250578414822,None,None,None,None,None,,,,,,,,,,,,,,,111,001,21,0,2019_Dec_06_1317,Test,3.1.2,59.98528004301064,
Pictures/IA50_G40.bmp,Pictures/IA50_G40.bmp,Pictures/IA50.bmp,"

"It would probably be best to play it safe."",0,safe,0,1,1,3,,,,,,,,,,,,,,,,,,,,,,,,,,,,,,,,,,,,,,,201.3766845097416,None,203.4273172282244,204.87791038527916,204.89455604271268,None,206.4283361216054,None,None,208.41214983704242,None,208.41214983704242,None,208.41214983704242,None,None,None,None,None,211.546098549632,None,211.546098549632,None,None,211.546098549632,None,None,None,None,None,,,,,,,,,,,,,,,111,001,21,0,2019_Dec_06_1317,Test,3.1.2,59.98528004301064,
Pictures/IA50_G20.bmp,Pictures/IA50_G20.bmp,Pictures/IA50.bmp,"

"Let's venture and take a risk!"",1,risk,0,2,2,1,,,,,,,,,,,,,,,,,,,,,,,,,,,,,,,,,,,,,,,213.4303418735633,None,215.46422349967486,216.9315366473494,216.948174529345,None,218.4819278607314,None,2,220.46580035847876,None,220.46580035847876,None,220.46580035847876,None,None,None,None,None,221.48240620567026,None,221.48240620567026,None,right,221.48240620567026,None,None,None,222.4664777546277,None,0.8400356052852658,0.9673730185463683,,,,,,,,,,,,,111,001,21,0,2019_Dec_06_1317,Test,3.1.2,59.98528004301064,
Pictures/IA100_G40.bmp,Pictures/IA100_G40.bmp,Pictures/IA100.bmp,"

"Try your luck and gamble!"",1,risk,0,3,3,5,,,,,,,,,,,,,,,,,,,,,,,,,,,,,,,,,,,,,,,223.38343887712722,None,225.40448823156373,226.88450582271446,226.90108523341712,None,228.434949287039,None,2,230.4205948956428,None,230.4205948956428,None,230.4205948956428,None,None,None,None,None,231.26866346132022,None,231.26866346132022,None,right,231.26866346132022,None,None,None,232.15274785530096,233.16972972266876,0.6850201212781712,0.85294749744412,,,,,,,,,,,,,111,001,21,0,2019_Dec_06_1317,Test,3.1.2,59.98528004301064,
Pictures/IA50_G30.bmp,Pictures/IA50_G30.bmp,Pictures/IA50.bmp,"

"I think you should gamble."",1,risk,0,4,4,2,,,,,,,,,,,,,,,,,,,,,,,,,,,,,,,,,,,,,,,233.18639684031086,None,235.20765146630765,236.68745352232008,236.70411379757672,None,238.2378944985045,None,2,240.23834516288457,None,240.23834516288457,None,240.23834516288457,None,None,None,None,None,240.80490804300632,None,240.80490804300632,None,left,240.80490804300632,None,241.32212177393194,242.70592889579768,None,None,0.4112149183905558,0.4926604531586918,,,,,,,,,,,,,111,001,21,0,2019_Dec_06_1317,Test,3.1.2,59.98528004301064,
Pictures/IA50_G10.bmp,Pictures/IA50_G10.bmp,Pictures/IA50.bmp,"

"Go with the safe option here!"",0,safe,0,5,5,0,,,,,,,,,,,,,,,,,,,,,,,,,,,,,,,,,,,,,,,242.7225848168091,None,244.74398717612587,246.2236290581177,246.24030706137285,None,247.77408838433553,None,2,249.7742933448783,None,249.7742933448783,None,249.7742933448783,None,None,None,None,None,250.90791704416415,None,250.90791704416415,None,right,250.90791704416415,None,None,None,251.3251775210225,252.8422954585534,1.0030915141048808,0.3975183290398263,,,,,,,,,,,,,111,001,21,0,2019_Dec_06_1317,Test,3.1.2,59.98528004301064,
,,,,,,,,,,,,,,,,,,,,,,,,,,,,,,,,,,,,,,,,,,,,,,,,,,,,,,,,,,,,,,,,,,,,,,,,,,,,,,,,252.8589706626508,None,space,30.94202011474681,252.8589706626508,None,,,,,,,111,001,21,0,2019_Dec_06_1317,Test,3.1.2,59.98528004301064,
Pictures/IA110_55_L95p.bmp,Pictures/IA110_55_L95p.bmp,Pictures/IA110.bmp,"

"Trust me, gamble!"",1,risk,,,,,0,0,0,0,0,0,0,3,,,,,,,,,,,,,283.90131103213344,None,283.90131103213344,None,283.90131103213344,None,left,3.9874610178420653,283.90131103213344,None,283.90131103213344,None,283.90131103213344,None,return,5.55550807354814,283.90131103213344,None,289.4897141842338,None,291.52392486687677,293.004354867253,293.0210397128935,None,294.5881446965449,None,2,296.5396527116218,None,296.5396527116218,None,296.5396527116218,None,None,None,None,None,297.40881728436307,None,297.40881728436307,None,right,297.40881728436307,None,None,None,298.80609737398584,None,0.7572131959755097,1.3679791294805455,,,,,,,,,,,,,111,001,21,0,2019_Dec_06_1317,Test,3.1.2,59.98528004301064,
Pictures/IA50_G40.bmp,Pictures/IA50_G40.bmp,Pictures/IA50.bmp,"

"It would probably be best to play it safe."",0,safe,,,,,0,0,0,0,0,1,1,13,,,,,,,,,,,,,,,,,,,,,,,,,,,,,,,299.3729314613811,None,301.3938399248831,302.87393775855276,302.89064997373464,None,304.3909101398864,None,2,306.4096408587443,None,306.4096408587443,None,306.4096408587443,None,None,None,None,None,307.3103127498831,None,307.3103127498831,None,right,307.3103127498831,None,None,None,308.39231842719687,None,0.7750721327372503,1.0503985222936763,,,,,,,,,,,,,111,001,21,0,2019_Dec_06_1317,Test,3.1.2,59.98528004301064,
Pictures/IA25_G20.bmp,Pictures/IA25_G20.bmp,Pictures/IA25.bmp,"

"I wouldn't gamble for this one. "",0,safe,,,,,0,0,0,0,0,2,2,15,,,,,,,,,,,,,,,,,,,,,,,,,,,,,,,309.2759033270477,None,311.2962211682876,312.7769537887066,312.79348219253666,None,314.3290770586327,None,2,316.31111455303835,None,316.31111455303835,None,316.31111455303835,None,None,None,None,None,317.19994787346445,None,317.19994787346445,None,right,317.19994787346445,None,None,None,317.3449784511514,319.14554095743017,0.7775462770736112,0.1206788392701128,,,,,,,,,,,,,111,001,21,0,2019_Dec_06_1317,Test,3.1.2,59.98528004301064,
Pictures/IA50_L30.bmp,Pictures/IA50_L30.bmp,Pictures/IA50.bmp,"

"Take a leap, I think you should gamble."",1,risk,,,,,0,0,0,0,0,3,3,18,,,,,,,,,,,,,,,,,,,,,,,,,,,,,,,319.16219781149414,None,321.1833507347634,322.66323272227726,322.67992347725044,None,324.21370511123075,None,1,326.2141511103481,None,326.2141511103481,None,326.2141511103481,None,327.39867780233783,None,327.39867780233783,328.398222472695,329.46503836556565,None,329.46503836556565,None,right,329.46503836556565,None,None,None,330.76567287239914,None,1.0983561791249485,1.2714498672421541,,,,,,,,,,,,,111,001,21,0,2019_Dec_06_1317,Test,3.1.2,59.98528004301064,
Pictures/IA25_L15.bmp,Pictures/IA25_L15.bmp,Pictures/IA25.bmp,"

"There's not much on the line here, gamble!"",1,risk,,,,,0,0,0,0,0,4,4,7,,,,,,,,,,,,,,,,,,,,,,,,,,,,,,,331.39918444987075,None,333.41999618692523,334.9002498403703,334.9168513333166,None,336.4507010801327,None,2,338.45089142285224,None,338.45089142285224,None,338.45089142285224,None,None,None,None,None,339.7512481910444,None,339.7512481910444,None,right,339.7512481910444,None,None,None,340.06830970999795,341.68559146045425,1.1814541499534243,0.2970979266639233,,,,,,,,,,,,,111,001,21,0,2019_Dec_06_1317,Test,3.1.2,59.98528004301064,
Pictures/IA25_G5.bmp,Pictures/IA25_G5.bmp,Pictures/IA25.bmp,"

"Let's stay with the certain option."",0,safe,,,,,0,0,0,0,0,5,5,17,,,,,,,,,,,,,,,,,,,,,,,,,,,,,,,341.7023033646186,None,343.7233477427749,345.203343873717,345.22003587276026,None,346.7537748973409,None,1,348.73893842879556,None,348.73893842879556,None,348.73893842879556,None,349.98790732797704,None,349.98790732797704,350.9717393934475,352.0551860149109,None,352.0551860149109,None,right,352.0551860149109,None,None,None,353.0390457609401,None,1.1493058244560643,0.952936518525803,,,,,,,,,,,,,111,001,21,0,2019_Dec_06_1317,Test,3.1.2,59.98528004301064,
Pictures/IA100_L20.bmp,Pictures/IA100_L20.bmp,Pictures/IA100.bmp,"

"Try to win as much money as you can, gamble!"",1,risk,,,,,0,0,0,0,0,6,6,11,,,,,,,,,,,,,,,,,,,,,,,,,,,,,,,353.9726578281709,None,355.993289486084,357.47371357712757,357.49027183863916,None,358.99080974343235,None,2,361.0088269881095,None,361.0088269881095,None,361.0088269881095,None,None,None,None,None,362.10794267200754,None,362.10794267200754,None,right,362.10794267200754,None,None,None,362.42519297859303,364.0423413025352,0.9832806314153686,0.3001347016860336,,,,,,,,,,,,,111,001,21,0,2019_Dec_06_1317,Test,3.1.2,59.98528004301064,
Pictures/IA100_L80.bmp,Pictures/IA100_L80.bmp,Pictures/IA100.bmp,"

"Go all in!"",1,risk,,,,,0,0,0,0,0,7,7,5,,,,,,,,,,,,,,,,,,,,,,,,,,,,,,,364.05901432951,None,366.0774915690927,367.56006012590615,367.5766358043986,None,369.1104286350095,None,2,371.09426692083025,None,371.09426692083025,None,371.09426692083025,None,None,None,None,None,372.01112260839193,None,372.01112260839193,None,right,372.01112260839193,None,None,None,372.1447854958848,373.9453141012542,0.8096849610278696,0.11691024003403072,,,,,,,,,,,,,111,001,21,0,2019_Dec_06_1317,Test,3.1.2,59.98528004301064,
Pictures/IA50_G10.bmp,Pictures/IA50_G10.bmp,Pictures/IA50.bmp,"

"Go with the safe option here!"",0,safe,,,,,0,0,0,0,0,8,8,9,,,,,,,,,,,,,,,,,,,,,,,,,,,,,,,373.96199583671955,None,375.9803041937913,377.4630407000632,377.4797243016335,None,378.9801415316307,None,2,380.9973435993995,None,380.9973435993995,None,380.9973435993995,None,None,None,None,None,381.8472300624554,None,381.8472300624554,None,right,381.8472300624554,None,None,None,381.9310583024104,383.78145794436705,0.7225362980766477,0.05656444453984477,,,,,,,,,,,,,111,001,21,0,2019_Dec_06_1317,Test,3.1.2,59.98528004301064,
Pictures/IA100_L40.bmp,Pictures/IA100_L40.bmp,Pictures/IA100.bmp,"

"Think of the payoff, gamble!"",1,risk,,,,,0,0,0,0,0,9,9,8,,,,,,,,,,,,,,,,,,,,,,,,,,,,,,,383.7982665749787,None,385.8173291495258,387.2993185917252,387.31600530347066,None,388.84959472862636,None,2,390.83360003085295,None,390.83360003085295,None,390.83360003085295,None,None,None,None,None,391.3833807168519,None,391.3833807168519,None,right,391.3833807168519,None,None,None,391.4338529502967,393.3177942762203,0.4221502942381221,0.03241797768316701,,,,,,,,,,,,,111,001,21,0,2019_Dec_06_1317,Test,3.1.2,59.98528004301064,
Pictures/IA40_20_L95p.bmp,Pictures/IA40_20_L95p.bmp,Pictures/IA40.bmp,"

"Trust me, gamble!"",1,risk,,,,,0,0,0,0,0,10,10,2,,,,,,,,,,,,,,,,,,,,,,,,,,,,,,,393.33447414558043,None,395.3724951038067,396.83550501313596,396.85218612656615,None,398.3859649613888,None,2,400.3697799208959,None,400.3697799208959,None,400.3697799208959,None,None,None,None,None,400.85291795078035,None,400.85291795078035,None,right,400.85291795078035,None,None,None,400.91988779732117,402.78717662342603,0.3738576715425097,0.04266444973382022,,,,,,,,,,,,,111,001,21,0,2019_Dec_06_1317,Test,3.1.2,59.98528004301064,
Pictures/IA75_G30.bmp,Pictures/IA75_G30.bmp,Pictures/IA75.bmp,"

"Be bold, gamble!"",1,risk,,,,,0,0,0,0,0,11,11,19,,,,,,,,,,,,,,,,,,,,,,,,,,,,,,,402.80397872266974,None,404.82685001771245,406.30502762924095,406.3217015892684,None,407.8554710935656,None,2,409.8556552159349,None,409.8556552159349,None,409.8556552159349,None,None,None,None,None,410.53920111418927,None,410.53920111418927,None,left,410.53920111418927,None,410.60612088690993,412.47352385644297,None,None,0.575829024963241,0.044064339571377786,,,,,,,,,,,,,111,001,21,0,2019_Dec_06_1317,Test,3.1.2,59.98528004301064,
Pictures/IA25_G10.bmp,Pictures/IA25_G10.bmp,Pictures/IA25.bmp,"

"What's life without a little risk?"",1,risk,,,,,0,0,0,0,0,12,12,10,,,,,,,,,,,,,,,,,,,,,,,,,,,,,,,412.4902133673462,None,414.512334177124,415.9912815570034,416.0078320430772,None,417.5419253166082,None,2,419.5421993230392,None,419.5421993230392,None,419.5421993230392,None,None,None,None,None,419.92534770980694,None,419.92534770980694,None,right,419.92534770980694,None,None,None,419.92534770980694,421.8597093292502,0.2571900251707575,0.024886999561203993,,,,,,,,,,,,,111,001,21,0,2019_Dec_06_1317,Test,3.1.2,59.98528004301064,
Pictures/IA50_L20.bmp,Pictures/IA50_L20.bmp,Pictures/IA50.bmp,"

"Certainty is boring, take a risk!"",1,risk,,,,,0,0,0,0,0,13,13,6,,,,,,,,,,,,,,,,,,,,,,,,,,,,,,,421.8763680494195,None,423.8989205515087,425.3774004720625,425.3941055338413,None,426.93152234054367,None,2,428.9116032237588,None,428.9116032237588,None,428.9116032237588,None,None,None,None,None,429.68169378894925,None,429.68169378894925,None,right,429.68169378894925,None,None,None,429.69539006728235,431.6293140850813,0.655662866965713,-0.002579268256567957,,,,,,,,,,,,,111,001,21,0,2019_Dec_06_1317,Test,3.1.2,59.98528004301064,
Pictures/IA25_G15.bmp,Pictures/IA25_G15.bmp,Pictures/IA25.bmp,"

"I think you should take a gamble."",1,risk,,,,,0,0,0,0,0,14,14,4,,,,,,,,,,,,,,,,,,,,,,,,,,,,,,,431.6459675179527,None,433.66575165313577,435.14701797961163,435.1637065574622,None,436.6990171535491,None,2,438.6812670729179,None,438.6812670729179,None,438.6812670729179,None,None,None,None,None,439.40113515172845,None,439.40113515172845,None,right,439.40113515172845,None,None,None,439.4147885096446,441.34888607521714,0.6059097060169734,-0.0021282928589698713,,,,,,,,,,,,,111,001,21,0,2019_Dec_06_1317,Test,3.1.2,59.98528004301064,
Pictures/IA50_G20.bmp,Pictures/IA50_G20.bmp,Pictures/IA50.bmp,"

"Let's venture and take a risk!"",1,risk,,,,,0,0,0,0,0,15,15,0,,,,,,,,,,,,,,,,,,,,,,,,,,,,,,,441.36554417335117,None,443.3883924530977,444.86660769774574,444.8832720162301,None,446.3835474222402,None,2,448.4008804283832,None,448.4008804283832,None,448.4008804283832,None,None,None,None,None,449.86762130382897,None,449.86762130382897,None,left,449.86762130382897,None,449.901430773877,451.80201464705885,None,None,1.342140727339256,0.00317828799165909,,,,,,,,,,,,,111,001,21,0,2019_Dec_06_1317,Test,3.1.2,59.98528004301064,
Pictures/IA75_G15.bmp,Pictures/IA75_G15.bmp,Pictures/IA75.bmp,"

"Take a chance!"",1,risk,,,,,0,0,0,0,0,16,16,1,,,,,,,,,,,,,,,,,,,,,,,,,,,,,,,451.81868331978865,None,453.84021755053175,455.3197219627817,455.33627431496063,None,456.8873650067352,None,2,458.870609871136,None,458.870609871136,None,458.870609871136,None,None,None,None,None,459.6205555208252,None,459.6205555208252,None,right,459.6205555208252,None,None,None,459.7043943353759,461.55490127837527,0.6403063771342659,0.058333512168474044,,,,,,,,,,,,,111,001,21,0,2019_Dec_06_1317,Test,3.1.2,59.98528004301064,
Pictures/IA80_40_L95p.bmp,Pictures/IA80_40_L95p.bmp,Pictures/IA80.bmp,"

"Let's stay with the certain option."",0,safe,,,,,0,0,0,0,0,17,17,16,,,,,,,,,,,,,,,,,,,,,,,,,,,,,,,461.571612249487,None,463.5924893002199,465.0726642662336,465.0893379152434,None,466.5897672749237,None,2,468.62329527411987,None,468.62329527411987,None,468.62329527411987,None,None,None,None,None,469.5902163842162,None,469.5902163842162,None,right,469.5902163842162,None,None,None,469.6405069834319,471.52458951130745,0.8474729671349905,0.03234706568969159,,,,,,,,,,,,,111,001,21,0,2019_Dec_06_1317,Test,3.1.2,59.98528004301064,
Pictures/IA25_L10.bmp,Pictures/IA25_L10.bmp,Pictures/IA25.bmp,"

"Dont be afraid to take the risk!"",1,risk,,,,,0,0,0,0,0,18,18,14,,,,,,,,,,,,,,,,,,,,,,,,,,,,,,,471.54127373491303,None,473.5621063101411,475.0423313499747,475.0589707870578,None,476.5927642397038,None,2,478.57756232557756,None,478.57756232557756,None,478.57756232557756,None,None,None,None,None,479.1467302884097,None,479.1467302884097,None,right,479.1467302884097,None,None,None,479.26025665787427,481.0941474901043,0.4370673163200536,0.08385343237387133,,,,,,,,,,,,,111,001,21,0,2019_Dec_06_1317,Test,3.1.2,59.98528004301064,
Pictures/IA75_L30.bmp,Pictures/IA75_L30.bmp,Pictures/IA75.bmp,"

"Hold back, stay with the safe choice."",0,safe,,,,,0,0,0,0,0,19,19,12,,,,,,,,,,,,,,,,,,,,,,,,,,,,,,,481.11077573055684,None,483.13148296572615,484.6118675575452,484.62875891881606,None,486.16298530784354,None,2,488.147313757269,None,488.147313757269,None,488.147313757269,None,None,None,None,None,489.0627197921905,None,489.0627197921905,None,right,489.0627197921905,None,None,None,489.91345999832686,490.9971215328934,0.7952018083801704,0.8237560154675521,,,,,,,,,,,,,111,001,21,0,2019_Dec_06_1317,Test,3.1.2,59.98528004301064,
,,,,,,,,,,0,0,0,0,,,,,,,,,,,,,,,,,,,,,,,,,,,,,,,,,,,,,,,,,,,,,,,,,,,,,,,,,,,,,,,,,,,,,,,,,491.38006060487317,None,return,31.682074785405575,491.38006060487317,None,111,001,21,0,2019_Dec_06_1317,Test,3.1.2,59.98528004301064,
Pictures/IA75_L45.bmp,Pictures/IA75_L45.bmp,Pictures/IA75.bmp,"

"Don't gamble for this one, play it safe."",0,safe,,,,,1,0,1,0,0,0,0,15,,,,,,,,,,,,,523.1897387235157,None,523.1897387235157,None,523.1897387235157,None,left,3.3923405094403734,523.1897387235157,None,523.1897387235157,None,523.1897387235157,None,return,3.7523177802802365,523.1897387235157,None,526.9926786476834,None,529.0250512168094,530.4756468620043,530.492313668629,None,532.0592572341897,None,2,534.0136959673158,None,534.0136959673158,None,534.0136959673158,None,None,None,None,None,535.4100221662183,None,535.4100221662183,None,None,535.4100221662183,None,None,None,None,None,1.2482065952508492,,,,,,,,,,,,,,111,001,21,0,2019_Dec_06_1317,Test,3.1.2,59.98528004301064,
Pictures/IA50_G20.bmp,Pictures/IA50_G20.bmp,Pictures/IA50.bmp,"

"Let's venture and take a risk!"",1,risk,,,,,1,0,1,0,0,1,1,4,,,,,,,,,,,,,,,,,,,,,,,,,,,,,,,537.3610275769901,None,539.4003809342531,540.8620820818766,540.8787510656238,None,542.3957088291342,None,2,544.3962922979935,None,544.3962922979935,None,544.3962922979935,None,None,None,None,None,545.0970452402968,None,545.0970452402968,None,left,545.0970452402968,None,545.9802830446002,547.0306143871104,None,None,0.6093312097057151,0.8527136122725096,,,,,,,,,,,,,111,001,21,0,2019_Dec_06_1317,Test,3.1.2,59.98528004301064,
Pictures/IA50_L30.bmp,Pictures/IA50_L30.bmp,Pictures/IA50.bmp,"

"Take a leap, I think you should gamble."",1,risk,,,,,1,0,1,0,0,2,2,18,,,,,,,,,,,,,,,,,,,,,,,,,,,,,,,547.0472762174549,None,549.0977223254282,550.5483011756772,550.564869700767,None,552.0650297192786,None,2,554.0852219094423,None,554.0852219094423,None,554.0852219094423,None,None,None,None,None,554.9670763078365,None,554.9670763078365,None,right,554.9670763078365,None,None,None,555.0329504396699,556.9002240259166,0.7525078119824684,0.03867565009659302,,,,,,,,,,,,,111,001,21,0,2019_Dec_06_1317,Test,3.1.2,59.98528004301064,
Pictures/IA80_40_G95p.bmp,Pictures/IA80_40_G95p.bmp,Pictures/IA80.bmp,"

"Think of the payoff, gamble!"",1,risk,,,,,1,0,1,0,0,3,3,11,,,,,,,,,,,,,,,,,,,,,,,,,,,,,,,556.9169160249597,None,558.9520756220428,560.4179584001632,560.4346273839104,None,561.9850095777844,None,2,563.952151821334,None,563.952151821334,None,563.952151821334,None,None,None,None,None,564.6854315974514,None,564.6854315974514,None,left,564.6854315974514,None,564.7524418762692,566.6198056575953,None,None,0.6134428612615466,0.048146755480956926,,,,,,,,,,,,,111,001,21,0,2019_Dec_06_1317,Test,3.1.2,59.98528004301064,
Pictures/IA100_G40.bmp,Pictures/IA100_G40.bmp,Pictures/IA100.bmp,"

"Try your luck and gamble!"",1,risk,,,,,1,0,1,0,0,4,4,2,,,,,,,,,,,,,,,,,,,,,,,,,,,,,,,566.6364880150956,None,568.6702607850767,570.137541897947,570.1542052833789,None,571.671106130684,None,2,573.6751300753004,None,573.6751300753004,None,573.6751300753004,None,None,None,None,None,574.1561099546444,None,574.1561099546444,None,right,574.1561099546444,None,None,None,574.1561099546444,576.0893351160859,0.362311146276852,0.033144203582196496,,,,,,,,,,,,,111,001,21,0,2019_Dec_06_1317,Test,3.1.2,59.98528004301064,
Pictures/IA75_L15.bmp,Pictures/IA75_L15.bmp,Pictures/IA75.bmp,"

"Trust me, gamble!"",1,risk,,,,,1,0,1,0,0,5,5,6,,,,,,,,,,,,,,,,,,,,,,,,,,,,,,,576.1059471836276,None,578.1397858893218,579.6070446089312,579.6236526332453,None,581.1251985458065,None,2,583.1579807250006,None,583.1579807250006,None,583.1579807250006,None,None,None,None,None,583.7256334104967,None,583.7256334104967,None,right,583.7256334104967,None,None,None,584.1417484098453,585.6588280922216,0.4554179717738407,0.3996491100390358,,,,,,,,,,,,,111,001,21,0,2019_Dec_06_1317,Test,3.1.2,59.98528004301064,
Pictures/IA50_G40.bmp,Pictures/IA50_G40.bmp,Pictures/IA50.bmp,"

"It would probably be best to play it safe."",0,safe,,,,,1,0,1,0,0,6,6,7,,,,,,,,,,,,,,,,,,,,,,,,,,,,,,,585.6755253785628,None,587.696930537037,589.1765357189621,589.1931782662203,None,590.693672939579,None,2,592.7107527774641,None,592.7107527774641,None,592.7107527774641,None,None,None,None,None,593.7274808545393,None,593.7274808545393,None,right,593.7274808545393,None,None,None,594.6448478548967,595.6618284781945,0.8864154702600899,0.8937259369633921,,,,,,,,,,,,,111,001,21,0,2019_Dec_06_1317,Test,3.1.2,59.98528004301064,
Pictures/IA25_G10.bmp,Pictures/IA25_G10.bmp,Pictures/IA25.bmp,"

"What's life without a little risk?"",1,risk,,,,,1,0,1,0,0,7,7,14,,,,,,,,,,,,,,,,,,,,,,,,,,,,,,,595.6785425594813,None,597.7005790835123,599.1796141703313,599.1961575030022,None,600.6965339897048,None,1,602.7152127686376,None,602.7152127686376,None,602.7152127686376,None,603.3305459943589,None,603.3305459943589,604.3145021558179,605.3976293622928,None,605.3976293622928,None,left,605.3976293622928,None,605.9816319275652,607.2987080643421,None,None,0.5059213069703219,0.5677008932113949,,,,,,,,,,,,,111,001,21,0,2019_Dec_06_1317,Test,3.1.2,59.98528004301064,
Pictures/IA100_L20.bmp,Pictures/IA100_L20.bmp,Pictures/IA100.bmp,"

"Try to win as much money as you can, gamble!"",1,risk,,,,,1,0,1,0,0,8,8,10,,,,,,,,,,,,,,,,,,,,,,,,,,,,,,,607.3153195098488,None,609.3371448529866,610.8164119588722,610.8329982119602,None,612.3334166860276,None,2,614.3673542952919,None,614.3673542952919,None,614.3673542952919,None,None,None,None,None,615.2006218484206,None,615.2006218484206,None,right,615.2006218484206,None,None,None,615.2510937708479,617.1349769364962,0.7096038787615271,0.028297928654410498,,,,,,,,,,,,,111,001,21,0,2019_Dec_06_1317,Test,3.1.2,59.98528004301064,
Pictures/IA25_G20.bmp,Pictures/IA25_G20.bmp,Pictures/IA25.bmp,"

"I wouldn't gamble for this one. "",0,safe,,,,,1,0,1,0,0,9,9,3,,,,,,,,,,,,,,,,,,,,,,,,,,,,,,,617.1516421880332,None,619.1735316007793,620.6526917166394,620.6693585232639,None,622.1697894380319,None,2,624.2036088606402,None,624.2036088606402,None,624.2036088606402,None,None,None,None,None,625.2743669005207,None,625.2743669005207,None,right,625.2743669005207,None,None,None,625.6708747336523,627.2213253513797,0.9452198629469422,0.3704504746594921,,,,,,,,,,,,,111,001,21,0,2019_Dec_06_1317,Test,3.1.2,59.98528004301064,
Pictures/IA100_G80.bmp,Pictures/IA100_G80.bmp,Pictures/IA100.bmp,"

"Why not gamble?"",1,risk,,,,,1,0,1,0,0,10,10,9,,,,,,,,,,,,,,,,,,,,,,,,,,,,,,,627.238003354635,None,629.2598616656295,630.7390920714482,630.7557392839693,None,632.2896148452393,None,2,634.2750331000392,None,634.2750331000392,None,634.2750331000392,None,None,None,None,None,634.7277794313542,None,634.7277794313542,None,right,634.7277794313542,None,None,None,634.7277794313542,636.6575081338857,0.33774573882669756,0.03447598058392032,,,,,,,,,,,,,111,001,21,0,2019_Dec_06_1317,Test,3.1.2,59.98528004301064,
Pictures/IA100_G20.bmp,Pictures/IA100_G20.bmp,Pictures/IA100.bmp,"

"Go ahead and gamble!"",1,risk,,,,,1,0,1,0,0,11,11,12,,,,,,,,,,,,,,,,,,,,,,,,,,,,,,,636.6741814718779,None,638.69619031535,640.1752232250464,640.1918119662745,None,641.6922979311427,None,2,643.7094377954085,None,643.7094377954085,None,643.7094377954085,None,None,None,None,None,644.9428688815468,None,644.9428688815468,None,right,644.9428688815468,None,None,None,645.0098748061195,646.8772283238676,1.1271200120177127,0.037716472078500374,,,,,,,,,,,,,111,001,21,0,2019_Dec_06_1317,Test,3.1.2,59.98528004301064,
Pictures/IA75_L60.bmp,Pictures/IA75_L60.bmp,Pictures/IA75.bmp,"

"Why not take the gamble?"",1,risk,,,,,1,0,1,0,0,12,12,8,,,,,,,,,,,,,,,,,,,,,,,,,,,,,,,646.8939060161052,None,648.9133116429717,650.3949552336938,650.4116158199682,None,651.9620723470283,None,2,653.9292183227884,None,653.9292183227884,None,653.9292183227884,None,None,None,None,None,654.6136285387184,None,654.6136285387184,None,right,654.6136285387184,None,None,None,654.6291085025035,656.5468070475325,0.5712219225049466,-0.009384642514987718,,,,,,,,,,,,,111,001,21,0,2019_Dec_06_1317,Test,3.1.2,59.98528004301064,
Pictures/IA20_10_G95p.bmp,Pictures/IA20_10_G95p.bmp,Pictures/IA20.bmp,"

"Take a leap, I think you should gamble."",1,risk,,,,,1,0,1,0,0,13,13,19,,,,,,,,,,,,,,,,,,,,,,,,,,,,,,,656.5634722990695,None,658.5851309368189,660.0644282114037,660.0812160038416,None,661.5816307456988,None,2,663.5989833459452,None,663.5989833459452,None,663.5989833459452,None,None,None,None,None,664.9040968160203,None,664.9040968160203,None,left,664.9040968160203,None,665.2494304491746,666.8498873961086,None,None,1.1734401616297419,0.3242730820873021,,,,,,,,,,,,,111,001,21,0,2019_Dec_06_1317,Test,3.1.2,59.98528004301064,
Pictures/IA75_G45.bmp,Pictures/IA75_G45.bmp,Pictures/IA75.bmp,"

"Don't gamble for this one."",0,safe,,,,,1,0,1,0,0,14,14,5,,,,,,,,,,,,,,,,,,,,,,,,,,,,,,,666.866572863784,None,668.8889368892588,670.3675813380781,670.3842210861789,None,671.9212034014121,None,2,673.9040199946941,None,673.9040199946941,None,673.9040199946941,None,None,None,None,None,674.5425355329736,None,674.5425355329736,None,right,674.5425355329736,None,None,None,674.5425355329736,676.486125664139,0.5322349438754372,0.031054787912353277,,,,,,,,,,,,,111,001,21,0,2019_Dec_06_1317,Test,3.1.2,59.98528004301064,
Pictures/IA75_G15.bmp,Pictures/IA75_G15.bmp,Pictures/IA75.bmp,"

"Take a chance!"",1,risk,,,,,1,0,1,0,0,15,15,17,,,,,,,,,,,,,,,,,,,,,,,,,,,,,,,676.5028061555344,None,678.5235625314712,680.0038463536151,680.020539907746,None,681.5208429943149,None,2,683.5380214247526,None,683.5380214247526,None,683.5380214247526,None,None,None,None,None,684.0399228303341,None,684.0399228303341,None,right,684.0399228303341,None,None,None,684.0715088361632,685.972277764767,0.38604800306552534,0.0040310980193680734,,,,,,,,,,,,,111,001,21,0,2019_Dec_06_1317,Test,3.1.2,59.98528004301064,
Pictures/IA25_L15.bmp,Pictures/IA25_L15.bmp,Pictures/IA25.bmp,"

"There's not much on the line here, gamble!"",1,risk,,,,,1,0,1,0,0,16,16,1,,,,,,,,,,,,,,,,,,,,,,,,,,,,,,,685.9889610553197,None,688.010383630775,689.4900108949436,689.5066982287241,None,691.0071163917738,None,2,693.0242820704933,None,693.0242820704933,None,693.0242820704933,None,None,None,None,None,693.7583698701161,None,693.7583698701161,None,right,693.7583698701161,None,None,None,694.3414798151188,695.6918789905491,0.6117559022573005,0.5656024580337089,,,,,,,,,,,,,111,001,21,0,2019_Dec_06_1317,Test,3.1.2,59.98528004301064,
Pictures/IA75_L30.bmp,Pictures/IA75_L30.bmp,Pictures/IA75.bmp,"

"Hold back, stay with the safe choice."",0,safe,,,,,1,0,1,0,0,17,17,0,,,,,,,,,,,,,,,,,,,,,,,,,,,,,,,695.7085566827867,None,697.7308681463015,699.209606833428,699.2262982104363,None,700.7267107751708,None,2,702.7438705445576,None,702.7438705445576,None,702.7438705445576,None,None,None,None,None,703.1936572331944,None,703.1936572331944,None,right,703.1936572331944,None,None,None,703.2103594958159,705.1280689264578,0.33207277934275226,-0.005882896307184637,,,,,,,,,,,,,111,001,21,0,2019_Dec_06_1317,Test,3.1.2,59.98528004301064,
Pictures/IA100_L60.bmp,Pictures/IA100_L60.bmp,Pictures/IA100.bmp,"

"You'd have a lot to lose, don't gamble."",0,safe,,,,,1,0,1,0,0,18,18,13,,,,,,,,,,,,,,,,,,,,,,,,,,,,,,,705.1447133398211,None,707.1665548558698,708.6457949032316,708.6623568969534,None,710.1962321472059,None,1,712.1831911827779,None,712.1831911827779,None,712.1831911827779,None,712.7979431167624,None,712.7979431167624,713.7973226368189,714.8651421832125,None,714.8651421832125,None,right,714.8651421832125,None,None,None,715.8812438710112,None,0.5164812846765017,0.9866072747620365,,,,,,,,,,,,,111,001,21,0,2019_Dec_06_1317,Test,3.1.2,59.98528004301064,
Pictures/IA75_G60.bmp,Pictures/IA75_G60.bmp,Pictures/IA75.bmp,"

"Make it exciting, take a chance!"",1,risk,,,,,1,0,1,0,0,19,19,16,,,,,,,,,,,,,,,,,,,,,,,,,,,,,,,716.7982053045281,None,718.8162841306734,720.2992806475883,720.3161166477413,None,721.8496933211787,None,2,723.8335437366826,None,723.8335437366826,None,723.8335437366826,None,None,None,None,None,724.350030930692,None,724.350030930692,None,right,724.350030930692,None,None,None,724.6172453614071,726.2677304087734,0.3700393095036816,0.23754740295703414,,,,,,,,,,,,,111,001,21,0,2019_Dec_06_1317,Test,3.1.2,59.98528004301064,
,,,,,,,,,,1,0,1,0,,,,,,,,,,,,,,,,,,,,,,,,,,,,,,,,,,,,,,,,,,,,,,,,,,,,,,,,,,,,,,,,,,,,,,,,,726.3839542331506,None,return,13.347498004045065,726.3839542331506,None,111,001,21,0,2019_Dec_06_1317,Test,3.1.2,59.98528004301064,
Pictures/IA75_L30.bmp,Pictures/IA75_L30.bmp,Pictures/IA75.bmp,"

"Hold back, stay with the safe choice."",0,safe,,,,,2,0,2,0,0,0,0,1,,,,,,,,,,,,,739.83823232573,None,739.83823232573,None,739.83823232573,None,right,16.63707055090231,739.83823232573,None,739.83823232573,None,739.83823232573,None,return,32.27677386507389,739.83823232573,None,772.1646934160391,None,774.1702376142717,775.6492182730254,775.6657793336948,None,777.1662954672619,None,1,779.1835709351643,None,779.1835709351643,None,779.1835709351643,None,779.7666622191163,None,779.7666622191163,780.7507343901087,781.8341772793618,None,781.8341772793618,None,None,781.8341772793618,None,None,None,None,None,0.47546056251235314,,,,,,,,,,,,,,111,001,21,0,2019_Dec_06_1317,Test,3.1.2,59.98528004301064,
Pictures/IA100_L40.bmp,Pictures/IA100_L40.bmp,Pictures/IA100.bmp,"

"Think of the payoff, gamble!"",1,risk,,,,,2,0,2,0,0,1,1,12,,,,,,,,,,,,,,,,,,,,,,,,,,,,,,,783.7516378959914,None,785.7711648196893,787.2527070187012,787.2693741363433,None,788.7696486093008,None,2,790.7869806823911,None,790.7869806823911,None,790.7869806823911,None,None,None,None,None,791.453459183461,None,791.453459183461,None,right,791.453459183461,None,None,None,791.7040466177933,793.3878830064074,0.5438467828194007,0.22936111092963074,,,,,,,,,,,,,111,001,21,0,2019_Dec_06_1317,Test,3.1.2,59.98528004301064,
Pictures/IA25_G15.bmp,Pictures/IA25_G15.bmp,Pictures/IA25.bmp,"

"I think you should take a gamble."",1,risk,,,,,2,0,2,0,0,2,2,17,,,,,,,,,,,,,,,,,,,,,,,,,,,,,,,793.4045476359091,None,795.4272907917356,796.9056276442321,796.9222092320573,None,798.4225539949733,None,2,800.4428139869552,None,800.4428139869552,None,800.4428139869552,None,None,None,None,None,800.872962407624,None,800.872962407624,None,right,800.872962407624,None,None,None,800.9065392365702,802.807390273798,0.31188649851196715,0.0015171434411058726,,,,,,,,,,,,,111,001,21,0,2019_Dec_06_1317,Test,3.1.2,59.98528004301064,
Pictures/IA75_G15.bmp,Pictures/IA75_G15.bmp,Pictures/IA75.bmp,"

"Take a chance!"",1,risk,,,,,2,0,2,0,0,3,3,18,,,,,,,,,,,,,,,,,,,,,,,,,,,,,,,802.8240318880038,None,804.8458301726179,806.3250916801882,806.3416558510327,None,807.8419959486858,None,2,809.8625038216277,None,809.8625038216277,None,809.8625038216277,None,None,None,None,None,811.1760797672843,None,811.1760797672843,None,left,811.1760797672843,None,811.2097026268228,813.11043858757,None,None,1.196008836629744,0.010293746712932261,,,,,,,,,,,,,111,001,21,0,2019_Dec_06_1317,Test,3.1.2,59.98528004301064,
Pictures/IA50_L20.bmp,Pictures/IA50_L20.bmp,Pictures/IA50.bmp,"

"Certainty is boring, take a risk!"",1,risk,,,,,2,0,2,0,0,4,4,0,,,,,,,,,,,,,,,,,,,,,,,,,,,,,,,813.1271383620511,None,815.149182039485,816.6282049966209,816.6448627837375,None,818.1452915213825,None,2,820.1625178485177,None,820.1625178485177,None,820.1625178485177,None,None,None,None,None,820.6622738552768,None,820.6622738552768,None,right,820.6622738552768,None,None,None,820.8794785355927,822.5966420060878,0.3679057293468304,0.19615688096700978,,,,,,,,,,,,,111,001,21,0,2019_Dec_06_1317,Test,3.1.2,59.98528004301064,
Pictures/IA75_L60.bmp,Pictures/IA75_L60.bmp,Pictures/IA75.bmp,"

"Why not take the gamble?"",1,risk,,,,,2,0,2,0,0,5,5,7,,,,,,,,,,,,,,,,,,,,,,,,,,,,,,,822.6132792660484,None,824.6356019261938,826.1143729591419,826.1310186165755,None,827.6314818771649,None,2,829.6652966345106,None,829.6652966345106,None,829.6652966345106,None,None,None,None,None,830.8319895821572,None,830.8319895821572,None,left,830.8319895821572,None,831.832759039491,None,None,None,1.0491432556007112,0.9783351419002884,,,,,,,,,,,,,111,001,21,0,2019_Dec_06_1317,Test,3.1.2,59.98528004301064,
Pictures/IA50_G20.bmp,Pictures/IA50_G20.bmp,Pictures/IA50.bmp,"

"Let's venture and take a risk!"",1,risk,,,,,2,0,2,0,0,6,6,2,,,,,,,,,,,,,,,,,,,,,,,,,,,,,,,832.7830503540468,None,834.8049074209713,836.2841008157058,836.3007682443653,None,837.8011957379405,None,2,839.8184015379194,None,839.8184015379194,None,839.8184015379194,None,None,None,None,None,840.671707016524,None,840.671707016524,None,right,840.671707016524,None,None,None,840.6849523194597,842.6193235804461,0.7358537570760291,-0.005677935764197173,,,,,,,,,,,,,111,001,21,0,2019_Dec_06_1317,Test,3.1.2,59.98528004301064,
Pictures/IA50_L40.bmp,Pictures/IA50_L40.bmp,Pictures/IA50.bmp,"

"That gamble doesn't sound too good, play it safe."",0,safe,,,,,2,0,2,0,0,7,7,8,,,,,,,,,,,,,,,,,,,,,,,,,,,,,,,842.6359928752107,None,844.6578213285237,846.1370495572199,846.1536196373971,None,847.7041613832567,None,1,849.6724220457924,None,849.6724220457924,None,849.6724220457924,None,850.7399766052625,None,850.7399766052625,851.7387278699374,852.806488945038,None,852.806488945038,None,right,852.806488945038,None,None,None,853.9559903995113,None,0.9536052061841929,1.1315507675444678,,,,,,,,,,,,,111,001,21,0,2019_Dec_06_1317,Test,3.1.2,59.98528004301064,
Pictures/IA50_G10.bmp,Pictures/IA50_G10.bmp,Pictures/IA50.bmp,"

"Go with the safe option here!"",0,safe,,,,,2,0,2,0,0,8,8,6,,,,,,,,,,,,,,,,,,,,,,,,,,,,,,,854.7396313758203,None,856.7617935509273,858.2406768611987,858.257356108524,None,859.7577851571867,None,2,861.7759103249417,None,861.7759103249417,None,861.7759103249417,None,None,None,None,None,862.7627542840331,None,862.7627542840331,None,right,862.7627542840331,None,None,None,862.7915781433063,864.7092990815964,0.8819937342411777,0.007074093391565839,,,,,,,,,,,,,111,001,21,0,2019_Dec_06_1317,Test,3.1.2,59.98528004301064,
Pictures/IA80_40_L95p.bmp,Pictures/IA80_40_L95p.bmp,Pictures/IA80.bmp,"

"Let's stay with the certain option."",0,safe,,,,,2,0,2,0,0,9,9,19,,,,,,,,,,,,,,,,,,,,,,,,,,,,,,,864.7259587348182,None,866.7482705093504,868.2270135507221,868.2436564089979,None,869.7441022526067,None,2,871.7612582897831,None,871.7612582897831,None,871.7612582897831,None,None,None,None,None,872.3944513853188,None,872.3944513853188,None,right,872.3944513853188,None,None,None,872.4614750378897,874.3288441065137,0.5125652631377307,0.047353971833672404,,,,,,,,,,,,,111,001,21,0,2019_Dec_06_1317,Test,3.1.2,59.98528004301064,
Pictures/IA75_L15.bmp,Pictures/IA75_L15.bmp,Pictures/IA75.bmp,"

"Trust me, gamble!"",1,risk,,,,,2,0,2,0,0,10,10,10,,,,,,,,,,,,,,,,,,,,,,,,,,,,,,,874.3455031377001,None,876.3671219652077,877.8465731934626,877.8631414075347,None,879.363509807782,None,2,881.3819189345287,None,881.3819189345287,None,881.3819189345287,None,None,None,None,None,881.754644191297,None,881.754644191297,None,right,881.754644191297,None,None,None,881.754644191297,883.6983214073667,0.25979666296871073,-0.014407575391260252,,,,,,,,,,,,,111,001,21,0,2019_Dec_06_1317,Test,3.1.2,59.98528004301064,
Pictures/IA110_55_G95p.bmp,Pictures/IA110_55_G95p.bmp,Pictures/IA110.bmp,"

"Take a chance!"",1,risk,,,,,2,0,2,0,0,11,11,5,,,,,,,,,,,,,,,,,,,,,,,,,,,,,,,883.7149795055008,None,885.7336402454176,887.2160520494034,887.2326006693719,None,888.7664973798329,None,2,890.750339397864,None,890.750339397864,None,890.750339397864,None,None,None,None,None,891.9169657877623,None,891.9169657877623,None,left,891.9169657877623,None,891.9839446538111,893.851357264887,None,None,1.0592152468250333,0.0446079981886669,,,,,,,,,,,,,111,001,21,0,2019_Dec_06_1317,Test,3.1.2,59.98528004301064,
Pictures/IA25_L20.bmp,Pictures/IA25_L20.bmp,Pictures/IA25.bmp,"

"Don't be tempted to gamble."",0,safe,,,,,2,0,2,0,0,12,12,9,,,,,,,,,,,,,,,,,,,,,,,,,,,,,,,893.868010386741,None,895.889560790395,897.3691311383583,897.385730454182,None,898.9195338593885,None,2,900.9199310287557,None,900.9199310287557,None,900.9199310287557,None,None,None,None,None,901.5532320473693,None,901.5532320473693,None,left,901.5532320473693,None,901.6037077020068,903.4875809150943,None,None,0.5135471454345861,0.0320920313267834,,,,,,,,,,,,,111,001,21,0,2019_Dec_06_1317,Test,3.1.2,59.98528004301064,
Pictures/IA100_L80.bmp,Pictures/IA100_L80.bmp,Pictures/IA100.bmp,"

"Go all in!"",1,risk,,,,,2,0,2,0,0,13,13,11,,,,,,,,,,,,,,,,,,,,,,,,,,,,,,,903.504279756523,None,905.5261309141148,907.0053009825355,907.0219839620707,None,908.5222674545363,None,2,910.5410208776728,None,910.5410208776728,None,910.5410208776728,None,None,None,None,None,911.3810204049261,None,911.3810204049261,None,right,911.3810204049261,None,None,None,911.3810204049261,913.3072296332513,0.7326051791258124,-0.004446617420171606,,,,,,,,,,,,,111,001,21,0,2019_Dec_06_1317,Test,3.1.2,59.98528004301064,
Pictures/IA110_55_L95p.bmp,Pictures/IA110_55_L95p.bmp,Pictures/IA110.bmp,"

"Trust me, gamble!"",1,risk,,,,,2,0,2,0,0,14,14,16,,,,,,,,,,,,,,,,,,,,,,,,,,,,,,,913.3238451219858,None,915.3418001631597,916.8249381930442,916.841566433497,None,918.3419578490401,None,2,920.3592193211545,None,920.3592193211545,None,920.3592193211545,None,None,None,None,None,921.092403925912,None,921.092403925912,None,right,921.092403925912,None,None,None,921.8264261008388,923.0267944699841,0.6260135672059732,0.7168005130545225,,,,,,,,,,,,,111,001,21,0,2019_Dec_06_1317,Test,3.1.2,59.98528004301064,
Pictures/IA75_G60.bmp,Pictures/IA75_G60.bmp,Pictures/IA75.bmp,"

"Make it exciting, take a chance!"",1,risk,,,,,2,0,2,0,0,15,15,15,,,,,,,,,,,,,,,,,,,,,,,,,,,,,,,923.0434553672759,None,925.0613065285999,926.5443795558234,926.5611937847503,None,928.0612810251636,None,2,930.078753056136,None,930.078753056136,None,930.078753056136,None,None,None,None,None,930.6452978972417,None,930.6452978972417,None,right,930.6452978972417,None,None,None,930.6452978972417,932.5795463063095,0.45056547649596723,-0.032053154137429374,,,,,,,,,,,,,111,001,21,0,2019_Dec_06_1317,Test,3.1.2,59.98528004301064,
Pictures/IA25_L5.bmp,Pictures/IA25_L5.bmp,Pictures/IA25.bmp,"

"It would be smarter to choose the safe option."",0,safe,,,,,2,0,2,0,0,16,16,14,,,,,,,,,,,,,,,,,,,,,,,,,,,,,,,932.5963431182555,None,934.6184088779329,936.0974044655273,936.1140547882236,None,937.6478317569412,None,2,939.6480118360827,None,939.6480118360827,None,939.6480118360827,None,None,None,None,None,940.0480870401178,None,940.0480870401178,None,right,940.0480870401178,None,None,None,940.7487818221458,941.9824950011711,0.2809893964799812,0.6809013163194777,,,,,,,,,,,,,111,001,21,0,2019_Dec_06_1317,Test,3.1.2,59.98528004301064,
Pictures/IA75_L45.bmp,Pictures/IA75_L45.bmp,Pictures/IA75.bmp,"

"Don't gamble for this one, play it safe."",0,safe,,,,,2,0,2,0,0,17,17,13,,,,,,,,,,,,,,,,,,,,,,,,,,,,,,,941.9991139110981,None,944.0191950680086,945.500216312682,945.5168237149611,None,947.017134576968,None,2,949.0369510579727,None,949.0369510579727,None,949.0369510579727,None,None,None,None,None,949.7216455439121,None,949.7216455439121,None,right,949.7216455439121,None,None,None,949.7848362166213,951.668711295814,0.5639444236580857,0.03109055492677726,,,,,,,,,,,,,111,001,21,0,2019_Dec_06_1317,Test,3.1.2,59.98528004301064,
Pictures/IA100_G60.bmp,Pictures/IA100_G60.bmp,Pictures/IA100.bmp,"

"Be cautious, don't gamble for this one."",0,safe,,,,,2,0,2,0,0,18,18,4,,,,,,,,,,,,,,,,,,,,,,,,,,,,,,,951.6854001846822,None,953.7065151638145,955.1864472251483,955.2031277165437,None,956.7535755351133,None,2,958.7209270934512,None,958.7209270934512,None,958.7209270934512,None,None,None,None,None,959.1871656756094,None,959.1871656756094,None,left,959.1871656756094,None,959.2543221326595,961.1215605739268,None,None,0.3438553669027442,0.045596722870641315,,,,,,,,,,,,,111,001,21,0,2019_Dec_06_1317,Test,3.1.2,59.98528004301064,
Pictures/IA80_40_G95p.bmp,Pictures/IA80_40_G95p.bmp,Pictures/IA80.bmp,"

"Think of the payoff, gamble!"",1,risk,,,,,2,0,2,0,0,19,19,3,,,,,,,,,,,,,,,,,,,,,,,,,,,,,,,961.1382311127617,None,963.158079317553,964.6392778422102,964.6558504105277,None,966.15622565316,None,2,968.1734914795196,None,968.1734914795196,None,968.1734914795196,None,None,None,None,None,968.7233499198975,None,968.7233499198975,None,left,968.7233499198975,None,969.1739835092293,970.6577560148454,None,None,0.4271477236782175,0.42137275044910893,,,,,,,,,,,,,111,001,21,0,2019_Dec_06_1317,Test,3.1.2,59.98528004301064,
,,,,,,,,,,2,0,2,0,,,,,,,,,,,,,,,,,,,,,,,,,,,,,,,,,,,,,,,,,,,,,,,,,,,,,,,,,,,,,,,,,,,,,,,,,970.7739599341015,None,return,22.47434027742156,970.7739599341015,None,111,001,21,0,2019_Dec_06_1317,Test,3.1.2,59.98528004301064,
Pictures/IA75_L45.bmp,Pictures/IA75_L45.bmp,Pictures/IA75.bmp,"

"Don't gamble for this one, play it safe."",0,safe,,,,,3,0,3,0,0,0,0,8,,,,,,,,,,,,,993.3807603942831,None,993.3807603942831,None,993.3807603942831,None,right,2.8517743393754245,993.3807603942831,None,993.3807603942831,None,993.3807603942831,None,return,10.179479188729374,993.3807603942831,None,1003.6174988406823,None,1005.6223911462022,1007.1019957060922,1007.1185608099892,None,1008.619111155483,None,2,1010.6363154003744,None,1010.6363154003744,None,1010.6363154003744,None,None,None,None,None,1011.5274182156116,None,1011.5274182156116,None,right,1011.5274182156116,None,None,None,1011.5274182156116,1013.4706139765673,0.7558412977143689,0.010084120907549732,,,,,,,,,,,,,111,001,21,0,2019_Dec_06_1317,Test,3.1.2,59.98528004301064,
Pictures/IA110_55_L95p.bmp,Pictures/IA110_55_L95p.bmp,Pictures/IA110.bmp,"

"Trust me, gamble!"",1,risk,,,,,3,0,3,0,0,1,1,7,,,,,,,,,,,,,,,,,,,,,,,,,,,,,,,1013.4872695865614,None,1015.5076458990942,1016.9883415084288,1017.0049171869213,None,1018.5052470209965,None,2,1020.5225647872811,None,1020.5225647872811,None,1020.5225647872811,None,None,None,None,None,1021.6059106390695,None,1021.6059106390695,None,right,1021.6059106390695,None,None,None,1021.6564012225477,1023.5402968288964,0.9655031812426387,0.026016615177695712,,,,,,,,,,,,,111,001,21,0,2019_Dec_06_1317,Test,3.1.2,59.98528004301064,
Pictures/IA50_G30.bmp,Pictures/IA50_G30.bmp,Pictures/IA50.bmp,"

"I think you should gamble."",1,risk,,,,,3,0,3,0,0,2,2,14,,,,,,,,,,,,,,,,,,,,,,,,,,,,,,,1023.5591572420584,None,1025.579486279929,1027.0596049517721,1027.0746681520864,None,1028.5751220821503,None,1,1030.608930308128,None,1030.608930308128,None,1030.608930308128,None,1031.092284495186,None,1031.092284495186,1032.0761352217073,1033.1596011262568,None,1033.1596011262568,None,right,1033.1596011262568,None,None,None,1033.7599206034488,1035.06031624883,0.3989060891940426,0.576245477416478,,,,,,,,,,,,,111,001,21,0,2019_Dec_06_1317,Test,3.1.2,59.98528004301064,
Pictures/IA25_G10.bmp,Pictures/IA25_G10.bmp,Pictures/IA25.bmp,"

"What's life without a little risk?"",1,risk,,,,,3,0,3,0,0,3,3,1,,,,,,,,,,,,,,,,,,,,,,,,,,,,,,,1035.0770863132698,None,1037.098940581037,1038.578139885104,1038.5946956584753,None,1040.095238539549,None,2,1042.129086264751,None,1042.129086264751,None,1042.129086264751,None,None,None,None,None,1043.4124748503464,None,1043.4124748503464,None,left,1043.4124748503464,None,1044.2964758916328,1045.3468423791223,None,None,1.1586553219917732,0.8592605309752344,,,,,,,,,,,,,111,001,21,0,2019_Dec_06_1317,Test,3.1.2,59.98528004301064,
Pictures/IA100_L20.bmp,Pictures/IA100_L20.bmp,Pictures/IA100.bmp,"

"Try to win as much money as you can, gamble!"",1,risk,,,,,3,0,3,0,0,4,4,9,,,,,,,,,,,,,,,,,,,,,,,,,,,,,,,1045.3634939458884,None,1047.385223184614,1048.8645640016507,1048.8812357845559,None,1050.3816611010084,None,2,1052.415210560413,None,1052.415210560413,None,1052.415210560413,None,None,None,None,None,1053.1351710114259,None,1053.1351710114259,None,right,1053.1351710114259,None,None,None,1053.2325390879037,1055.0830995259162,0.5843282006112531,0.08043410580762611,,,,,,,,,,,,,111,001,21,0,2019_Dec_06_1317,Test,3.1.2,59.98528004301064,
Pictures/IA25_L15.bmp,Pictures/IA25_L15.bmp,Pictures/IA25.bmp,"

"There's not much on the line here, gamble!"",1,risk,,,,,3,0,3,0,0,5,5,18,,,,,,,,,,,,,,,,,,,,,,,,,,,,,,,1055.099780328329,None,1057.1189156809746,1058.6008115069017,1058.6174388143017,None,1060.1178041043736,None,2,1062.1350503366298,None,1062.1350503366298,None,1062.1350503366298,None,None,None,None,None,1062.6182791836286,None,1062.6182791836286,None,right,1062.6182791836286,None,None,None,1062.6182791836286,1064.5525910402698,0.3444472332348596,0.0019556781380742905,,,,,,,,,,,,,111,001,21,0,2019_Dec_06_1317,Test,3.1.2,59.98528004301064,
Pictures/IA100_L40.bmp,Pictures/IA100_L40.bmp,Pictures/IA100.bmp,"

"Think of the payoff, gamble!"",1,risk,,,,,3,0,3,0,0,6,6,10,,,,,,,,,,,,,,,,,,,,,,,,,,,,,,,1064.5692671774195,None,1066.5913152090989,1068.0703356780946,1068.0868668810822,None,1069.587339472197,None,1,1071.6082703289603,None,1071.6082703289603,None,1071.6082703289603,None,1072.037936361462,None,1072.037936361462,1073.0384884175523,1074.0900028706915,None,1074.0900028706915,None,right,1074.0900028706915,None,None,None,1074.455577212742,1076.00603529489,0.33512634931048524,0.34136909288326933,,,,,,,,,,,,,111,001,21,0,2019_Dec_06_1317,Test,3.1.2,59.98528004301064,
Pictures/IA50_L40.bmp,Pictures/IA50_L40.bmp,Pictures/IA50.bmp,"

"That gamble doesn't sound too good, play it safe."",0,safe,,,,,3,0,3,0,0,7,7,5,,,,,,,,,,,,,,,,,,,,,,,,,,,,,,,1076.02271889646,None,1078.0448437494656,1079.523761582681,1079.5404324325332,None,1081.0408829414046,None,2,1083.0746656639462,None,1083.0746656639462,None,1083.0746656639462,None,None,None,None,None,1084.2913913772882,None,1084.2913913772882,None,right,1084.2913913772882,None,None,None,1084.5419427335892,1086.2257688586246,1.0925880482811863,0.22780571233420233,,,,,,,,,,,,,111,001,21,0,2019_Dec_06_1317,Test,3.1.2,59.98528004301064,
Pictures/IA50_G40.bmp,Pictures/IA50_G40.bmp,Pictures/IA50.bmp,"

"It would probably be best to play it safe."",0,safe,,,,,3,0,3,0,0,8,8,11,,,,,,,,,,,,,,,,,,,,,,,,,,,,,,,1086.2424633458081,None,1088.2614836219732,1089.7434932803112,1089.7601709725486,None,1091.260613705982,None,2,1093.2778126635758,None,1093.2778126635758,None,1093.2778126635758,None,None,None,None,None,1093.6941963820577,None,1093.6941963820577,None,right,1093.6941963820577,None,None,None,1093.7275741597941,1095.6286105634613,0.289336484562682,0.01676882036963434,,,,,,,,,,,,,111,001,21,0,2019_Dec_06_1317,Test,3.1.2,59.98528004301064,
Pictures/IA100_L80.bmp,Pictures/IA100_L80.bmp,Pictures/IA100.bmp,"

"Go all in!"",1,risk,,,,,3,0,3,0,0,9,9,2,,,,,,,,,,,,,,,,,,,,,,,,,,,,,,,1095.6452783031382,None,1097.6676286438424,1099.1463247215693,1099.1629666467925,None,1100.6634236870318,None,2,1102.6972524401658,None,1102.6972524401658,None,1102.6972524401658,None,None,None,None,None,1103.230394622134,None,1103.230394622134,None,right,1103.230394622134,None,None,None,1103.480965572538,1105.1647997840296,0.4217826715348565,0.22456490982199284,,,,,,,,,,,,,111,001,21,0,2019_Dec_06_1317,Test,3.1.2,59.98528004301064,
Pictures/IA50_G20.bmp,Pictures/IA50_G20.bmp,Pictures/IA50.bmp,"

"Let's venture and take a risk!"",1,risk,,,,,3,0,3,0,0,10,10,16,,,,,,,,,,,,,,,,,,,,,,,,,,,,,,,1105.181469700829,None,1107.2029267992284,1108.6824931039641,1108.699136584275,None,1110.1995880261989,None,2,1112.2334609438199,None,1112.2334609438199,None,1112.2334609438199,None,None,None,None,None,1112.6999570484813,None,1112.6999570484813,None,right,1112.6999570484813,None,None,None,1112.817094020284,1114.6343071602764,0.3574284822998379,0.09893560475643426,,,,,,,,,,,,,111,001,21,0,2019_Dec_06_1317,Test,3.1.2,59.98528004301064,
Pictures/IA100_L60.bmp,Pictures/IA100_L60.bmp,Pictures/IA100.bmp,"

"You'd have a lot to lose, don't gamble."",0,safe,,,,,3,0,3,0,0,11,11,17,,,,,,,,,,,,,,,,,,,,,,,,,,,,,,,1114.6509882737068,None,1116.6688711588172,1118.1520247395774,1118.1686315198212,None,1119.6690198251895,None,1,1121.6862573489552,None,1121.6862573489552,None,1121.6862573489552,None,1122.2027495192447,None,1122.2027495192447,1123.1868814056002,1124.2702832405412,None,1124.2702832405412,None,right,1124.2702832405412,None,None,None,1124.8873438575442,1126.1710960226146,0.40850502277749,0.6004790291774498,,,,,,,,,,,,,111,001,21,0,2019_Dec_06_1317,Test,3.1.2,59.98528004301064,
Pictures/IA75_L30.bmp,Pictures/IA75_L30.bmp,Pictures/IA75.bmp,"

"Hold back, stay with the safe choice."",0,safe,,,,,3,0,3,0,0,12,12,6,,,,,,,,,,,,,,,,,,,,,,,,,,,,,,,1126.18778149029,None,1128.2101778615865,1129.688821066336,1129.70548040854,None,1131.2058531630328,None,2,1133.2269127810473,None,1133.2269127810473,None,1133.2269127810473,None,None,None,None,None,1133.7948783501643,None,1133.7948783501643,None,left,1133.7948783501643,None,1133.8232338170587,1135.7406449819036,None,None,0.451728370986757,0.003559595465731036,,,,,,,,,,,,,111,001,21,0,2019_Dec_06_1317,Test,3.1.2,59.98528004301064,
Pictures/IA50_L10.bmp,Pictures/IA50_L10.bmp,Pictures/IA50.bmp,"

"Play it safe, don’t gamble!"",0,safe,,,,,3,0,3,0,0,13,13,19,,,,,,,,,,,,,,,,,,,,,,,,,,,,,,,1135.7573447563846,None,1137.7794204686224,1139.2583625612042,1139.275025946636,None,1140.811783085188,None,2,1142.809270063662,None,1142.809270063662,None,1142.809270063662,None,None,None,None,None,1143.6473322628112,None,1143.6473322628112,None,right,1143.6473322628112,None,None,None,1143.660824513654,1145.5935498699482,0.7332247260169424,-0.009078290262095834,,,,,,,,,,,,,111,001,21,0,2019_Dec_06_1317,Test,3.1.2,59.98528004301064,
Pictures/IA100_G40.bmp,Pictures/IA100_G40.bmp,Pictures/IA100.bmp,"

"Try your luck and gamble!"",1,risk,,,,,3,0,3,0,0,14,14,0,,,,,,,,,,,,,,,,,,,,,,,,,,,,,,,1145.610283856356,None,1147.6280202522166,1149.11129233065,1149.1279463855567,None,1150.6283231832767,None,2,1152.645609536792,None,1152.645609536792,None,1152.645609536792,None,None,None,None,None,1153.565706337884,None,1153.565706337884,None,left,1153.565706337884,None,1153.6125993817595,1155.4965478610861,None,None,0.8008747678643431,0.024581269343343592,,,,,,,,,,,,,111,001,21,0,2019_Dec_06_1317,Test,3.1.2,59.98528004301064,
Pictures/IA75_L15.bmp,Pictures/IA75_L15.bmp,Pictures/IA75.bmp,"

"Trust me, gamble!"",1,risk,,,,,3,0,3,0,0,15,15,12,,,,,,,,,,,,,,,,,,,,,,,,,,,,,,,1155.5132547889698,None,1157.5351354932254,1159.0142952980682,1159.0309524631498,None,1160.5314007948987,None,1,1162.5485748710912,None,1162.5485748710912,None,1162.5485748710912,None,1162.9652046044275,None,1162.9652046044275,1163.949105404769,1165.0159971859134,None,1165.0159971859134,None,right,1165.0159971859134,None,None,None,1165.7996649097286,1166.9333445921675,0.3057737602607631,0.7582666123007584,,,,,,,,,,,,,111,001,21,0,2019_Dec_06_1317,Test,3.1.2,59.98528004301064,
Pictures/IA75_G30.bmp,Pictures/IA75_G30.bmp,Pictures/IA75.bmp,"

"Be bold, gamble!"",1,risk,,,,,3,0,3,0,0,16,16,4,,,,,,,,,,,,,,,,,,,,,,,,,,,,,,,1166.950009532687,None,1168.9683881797173,1170.4510627935033,1170.467723690795,None,1171.9681611369306,None,1,1174.0016866479868,None,1174.0016866479868,None,1174.0016866479868,None,1175.2020158289256,None,1175.2020158289256,1176.186144294088,1177.2526668974415,None,1177.2526668974415,None,left,1177.2526668974415,None,1177.6532335091515,1179.1703393169992,None,None,1.1163728017670564,0.36942504991066016,,,,,,,,,,,,,111,001,21,0,2019_Dec_06_1317,Test,3.1.2,59.98528004301064,
Pictures/IA80_40_L95p.bmp,Pictures/IA80_40_L95p.bmp,Pictures/IA80.bmp,"

"Let's stay with the certain option."",0,safe,,,,,3,0,3,0,0,17,17,13,,,,,,,,,,,,,,,,,,,,,,,,,,,,,,,1179.1870185643247,None,1181.1883133302417,1182.6879268909788,1182.6879268909788,None,1184.2051661253408,None,2,1186.2235401071084,None,1186.2235401071084,None,1186.2235401071084,None,None,None,None,None,1187.3723383509791,None,1187.3723383509791,None,right,1187.3723383509791,None,None,None,1187.439499473292,1189.3064673293206,1.0303494001871059,0.04164555635270517,,,,,,,,,,,,,111,001,21,0,2019_Dec_06_1317,Test,3.1.2,59.98528004301064,
Pictures/IA80_40_G95p.bmp,Pictures/IA80_40_G95p.bmp,Pictures/IA80.bmp,"

"Think of the payoff, gamble!"",1,risk,,,,,3,0,3,0,0,18,18,15,,,,,,,,,,,,,,,,,,,,,,,,,,,,,,,1189.3233907253957,None,1191.343320416776,1192.8244365217915,1192.841003802811,None,1194.3415413965868,None,2,1196.3586551353815,None,1196.3586551353815,None,1196.3586551353815,None,None,None,None,None,1197.0085713317117,None,1197.0085713317117,None,right,1197.0085713317117,None,None,None,1197.1590562235692,1198.9427335889277,0.5192508956527035,0.12527101288765152,,,,,,,,,,,,,111,001,21,0,2019_Dec_06_1317,Test,3.1.2,59.98528004301064,
Pictures/IA50_L30.bmp,Pictures/IA50_L30.bmp,Pictures/IA50.bmp,"

"Take a leap, I think you should gamble."",1,risk,,,,,3,0,3,0,0,19,19,3,,,,,,,,,,,,,,,,,,,,,,,,,,,,,,,1198.9593745810985,None,1200.9657597706932,1202.4606486643506,1202.4772999200995,None,1203.9777585154266,None,2,1206.0116550703788,None,1206.0116550703788,None,1206.0116550703788,None,None,None,None,None,1206.4330542573166,None,1206.4330542573166,None,right,1206.4330542573166,None,None,None,1206.5285596498939,1208.3789782639187,0.29810780053708186,0.06864529789731932,,,,,,,,,,,,,111,001,21,0,2019_Dec_06_1317,Test,3.1.2,59.98528004301064,
,,,,,,,,,,3,0,3,0,,,,,,,,,,,,,,,,,,,,,,,,,,,,,,,,,,,,,,,,,,,,,,,,,,,,,,,,,,,,,,,,,,,,,,,,,1208.4786935895868,None,return,36.01451798660946,1208.4786935895868,None,111,001,21,0,2019_Dec_06_1317,Test,3.1.2,59.98528004301064,
Pictures/IA25_L10.bmp,Pictures/IA25_L10.bmp,Pictures/IA25.bmp,"

"Dont be afraid to take the risk!"",1,risk,,,,,4,0,4,0,0,0,0,6,,,,,,,,,,,,,1244.60881989691,None,1244.60881989691,None,1244.60881989691,None,left,1.2683754591007528,1244.60881989691,None,1244.60881989691,None,1244.60881989691,None,return,1.5484498420496493,1244.60881989691,None,1246.206754180775,None,1248.211577751424,1249.6914995491802,1249.7081666668223,None,1251.2084473601299,None,2,1253.2270219481952,None,1253.2270219481952,None,1253.2270219481952,None,None,None,None,None,1253.9923147571903,None,1253.9923147571903,None,right,1253.9923147571903,None,None,None,1254.0090101774263,1255.9267118326302,0.6501423060642537,-0.011290868867718018,,,,,,,,,,,,,111,001,21,0,2019_Dec_06_1317,Test,3.1.2,59.98528004301064,
Pictures/IA110_55_L95p.bmp,Pictures/IA110_55_L95p.bmp,Pictures/IA110.bmp,"

"Trust me, gamble!"",1,risk,,,,,4,0,4,0,0,1,1,15,,,,,,,,,,,,,,,,,,,,,,,,,,,,,,,1255.943392635043,None,1257.9640759218637,1259.4444465178944,1259.4609761657948,None,1260.9613769118637,None,2,1262.9786131915594,None,1262.9786131915594,None,1262.9786131915594,None,None,None,None,None,1263.5644768856446,None,1263.5644768856446,None,right,1263.5644768856446,None,None,None,1263.6288279647047,1265.4962604809016,0.48235955304289746,0.03245343368007525,,,,,,,,,,,,,111,001,21,0,2019_Dec_06_1317,Test,3.1.2,59.98528004301064,
Pictures/IA110_55_G95p.bmp,Pictures/IA110_55_G95p.bmp,Pictures/IA110.bmp,"

"Take a chance!"",1,risk,,,,,4,0,4,0,0,2,2,1,,,,,,,,,,,,,,,,,,,,,,,,,,,,,,,1265.512935062964,None,1267.5336382549058,1269.0139889458155,1269.0306367803714,None,1270.5309258711522,None,2,1272.548144733867,None,1272.548144733867,None,1272.548144733867,None,None,None,None,None,1273.5315258239398,None,1273.5315258239398,None,left,1273.5315258239398,None,1273.5651486834786,1275.4658917976285,None,None,0.8807701913347046,0.017180296542619544,,,,,,,,,,,,,111,001,21,0,2019_Dec_06_1317,Test,3.1.2,59.98528004301064,
Pictures/IA100_L60.bmp,Pictures/IA100_L60.bmp,Pictures/IA100.bmp,"

"You'd have a lot to lose, don't gamble."",0,safe,,,,,4,0,4,0,0,3,3,2,,,,,,,,,,,,,,,,,,,,,,,,,,,,,,,1275.4825760212339,None,1277.5043771050055,1278.9836426558036,1279.0003047971654,None,1280.5007462865287,None,2,1282.51849761123,None,1282.51849761123,None,1282.51849761123,None,None,None,None,None,1283.5035130983474,None,1283.5035130983474,None,right,1283.5035130983474,None,None,None,1283.5035130983474,1285.4355759873329,0.8542901600590085,0.015600638581190651,,,,,,,,,,,,,111,001,21,0,2019_Dec_06_1317,Test,3.1.2,59.98528004301064,
Pictures/IA75_G15.bmp,Pictures/IA75_G15.bmp,Pictures/IA75.bmp,"

"Take a chance!"",1,risk,,,,,4,0,4,0,0,4,4,0,,,,,,,,,,,,,,,,,,,,,,,,,,,,,,,1285.452266120271,None,1287.469190760416,1288.953306940387,1288.9699700148012,None,1290.4704083939896,None,1,1292.5042374581408,None,1292.5042374581408,None,1292.5042374581408,None,1293.4875358175545,None,1293.4875358175545,1294.4882906570651,1295.571734168353,None,1295.571734168353,None,right,1295.571734168353,None,None,None,1295.9053838064997,1297.4725373088836,0.916433947810674,0.312917210558453,,,,,,,,,,,,,111,001,21,0,2019_Dec_06_1317,Test,3.1.2,59.98528004301064,
Pictures/IA25_G5.bmp,Pictures/IA25_G5.bmp,Pictures/IA25.bmp,"

"Let's stay with the certain option."",0,safe,,,,,4,0,4,0,0,5,5,8,,,,,,,,,,,,,,,,,,,,,,,,,,,,,,,1297.489179856142,None,1299.511387128789,1300.990237160186,1301.0067857801546,None,1302.507179994856,None,1,1304.5264745884692,None,1304.5264745884692,None,1304.5264745884692,None,1305.4613848428103,None,1305.4613848428103,1306.4585533393483,1307.5417153797853,None,1307.5417153797853,None,right,1307.5417153797853,None,None,None,1308.2257259382077,1309.4427866174137,0.8460335780730475,0.6627817468795456,,,,,,,,,,,,,111,001,21,0,2019_Dec_06_1317,Test,3.1.2,59.98528004301064,
Pictures/IA75_G30.bmp,Pictures/IA75_G30.bmp,Pictures/IA75.bmp,"

"Be bold, gamble!"",1,risk,,,,,4,0,4,0,0,6,6,11,,,,,,,,,,,,,,,,,,,,,,,,,,,,,,,1309.4594406723204,None,1311.4810156463582,1312.960489267874,1312.9770363327552,None,1314.477440188999,None,2,1316.4969073973339,None,1316.4969073973339,None,1316.4969073973339,None,None,None,None,None,1317.632856574584,None,1317.632856574584,None,left,1317.632856574584,None,1317.6615939709877,1319.579038103689,None,None,1.0194015836391372,0.011366757141558992,,,,,,,,,,,,,111,001,21,0,2019_Dec_06_1317,Test,3.1.2,59.98528004301064,
Pictures/IA50_G30.bmp,Pictures/IA50_G30.bmp,Pictures/IA50.bmp,"

"I think you should gamble."",1,risk,,,,,4,0,4,0,0,7,7,18,,,,,,,,,,,,,,,,,,,,,,,,,,,,,,,1319.5957997706555,None,1321.6177084664878,1323.096885999329,1323.1135235703068,None,1324.6138639789779,None,2,1326.634917376642,None,1326.634917376642,None,1326.634917376642,None,None,None,None,None,1327.531085423138,None,1327.531085423138,None,right,1327.531085423138,None,None,None,1327.6315854459976,1329.465456684124,0.7773581114768149,0.07315069762785242,,,,,,,,,,,,,111,001,21,0,2019_Dec_06_1317,Test,3.1.2,59.98528004301064,
Pictures/IA75_L45.bmp,Pictures/IA75_L45.bmp,Pictures/IA75.bmp,"

"Don't gamble for this one, play it safe."",0,safe,,,,,4,0,4,0,0,8,8,12,,,,,,,,,,,,,,,,,,,,,,,,,,,,,,,1329.4821284670288,None,1331.5037833725683,1332.9831798617402,1332.999824275104,None,1334.500285047553,None,2,1336.517454458483,None,1336.517454458483,None,1336.517454458483,None,None,None,None,None,1337.384081128297,None,1337.384081128297,None,right,1337.384081128297,None,None,None,1337.384081128297,1339.318427507882,0.7507194612678632,0.021871995765195607,,,,,,,,,,,,,111,001,21,0,2019_Dec_06_1317,Test,3.1.2,59.98528004301064,
Pictures/IA25_G15.bmp,Pictures/IA25_G15.bmp,Pictures/IA25.bmp,"

"I think you should take a gamble."",1,risk,,,,,4,0,4,0,0,9,9,9,,,,,,,,,,,,,,,,,,,,,,,,,,,,,,,1339.3350893382262,None,1341.3574132424415,1342.8361320244471,1342.852795409879,None,1344.3531830932125,None,2,1346.3870591210084,None,1346.3870591210084,None,1346.3870591210084,None,None,None,None,None,1347.1369375909144,None,1347.1369375909144,None,right,1347.1369375909144,None,None,None,1347.1705377461744,1349.0713477290901,0.632937750155179,0.010870373186889992,,,,,,,,,,,,,111,001,21,0,2019_Dec_06_1317,Test,3.1.2,59.98528004301064,
Pictures/IA40_20_G95p.bmp,Pictures/IA40_20_G95p.bmp,Pictures/IA40.bmp,"

"Hold back, stay with the safe choice."",0,safe,,,,,4,0,4,0,0,10,10,17,,,,,,,,,,,,,,,,,,,,,,,,,,,,,,,1349.0880192009772,None,1351.1099701951916,1352.5890506905675,1352.6057202963498,None,1354.1561715361127,None,1,1356.124786136581,None,1356.124786136581,None,1356.124786136581,None,1356.5897650978009,None,1356.5897650978009,1357.590548550923,1358.6575750026514,None,1358.6575750026514,None,left,1358.6575750026514,None,1358.9742928472501,1360.5747961357938,None,None,0.375136264548928,0.2902521201287982,,,,,,,,,,,,,111,001,21,0,2019_Dec_06_1317,Test,3.1.2,59.98528004301064,
Pictures/IA50_L10.bmp,Pictures/IA50_L10.bmp,Pictures/IA50.bmp,"

"Play it safe, don’t gamble!"",0,safe,,,,,4,0,4,0,0,11,11,7,,,,,,,,,,,,,,,,,,,,,,,,,,,,,,,1360.5914778712595,None,1362.6132080430375,1364.0925180693403,1364.1091907852974,None,1365.609620767013,None,2,1367.6267920440478,None,1367.6267920440478,None,1367.6267920440478,None,None,None,None,None,1368.6121851064286,None,1368.6121851064286,None,right,1368.6121851064286,None,None,None,1368.7272587880334,1370.561109187986,0.8729903992002619,0.09556635201033714,,,,,,,,,,,,,111,001,21,0,2019_Dec_06_1317,Test,3.1.2,59.98528004301064,
Pictures/IA100_L40.bmp,Pictures/IA100_L40.bmp,Pictures/IA100.bmp,"

"Think of the payoff, gamble!"",1,risk,,,,,4,0,4,0,0,12,12,5,,,,,,,,,,,,,,,,,,,,,,,,,,,,,,,1370.577815804853,None,1372.5969968770733,1374.078860046161,1374.0955358722936,None,1375.5958616631415,None,2,1377.6131259344133,None,1377.6131259344133,None,1377.6131259344133,None,None,None,None,None,1378.7846119729925,None,1378.7846119729925,None,right,1378.7846119729925,None,None,None,1379.1636962938842,1380.730852906443,1.0624986587367857,0.362960861866668,,,,,,,,,,,,,111,001,21,0,2019_Dec_06_1317,Test,3.1.2,59.98528004301064,
Pictures/IA50_L40.bmp,Pictures/IA50_L40.bmp,Pictures/IA50.bmp,"

"That gamble doesn't sound too good, play it safe."",0,safe,,,,,4,0,4,0,0,13,13,14,,,,,,,,,,,,,,,,,,,,,,,,,,,,,,,1380.7474727494227,None,1382.7654476957177,1384.2485487145182,1384.2652192533528,None,1385.7655711696716,None,2,1387.7995140662338,None,1387.7995140662338,None,1387.7995140662338,None,None,None,None,None,1388.9519067395318,None,1388.9519067395318,None,right,1388.9519067395318,None,None,None,1389.0332614571853,1390.900569877394,1.019923471030097,0.05959406615897933,,,,,,,,,,,,,111,001,21,0,2019_Dec_06_1317,Test,3.1.2,59.98528004301064,
Pictures/IA20_10_G95p.bmp,Pictures/IA20_10_G95p.bmp,Pictures/IA20.bmp,"

"Take a leap, I think you should gamble."",1,risk,,,,,4,0,4,0,0,14,14,19,,,,,,,,,,,,,,,,,,,,,,,,,,,,,,,1390.9172326407906,None,1392.936864377391,1394.4182831024495,1394.4348886386233,None,1395.9352750778867,None,1,1397.9525325067734,None,1397.9525325067734,None,1397.9525325067734,None,1399.102525679939,None,1399.102525679939,1400.086665341732,1401.169823960976,None,1401.169823960976,None,right,1401.169823960976,None,None,None,1401.653788053382,1403.0708886672369,1.0348619533206147,0.4574772187445433,,,,,,,,,,,,,111,001,21,0,2019_Dec_06_1317,Test,3.1.2,59.98528004301064,
Pictures/IA100_G80.bmp,Pictures/IA100_G80.bmp,Pictures/IA100.bmp,"

"Why not gamble?"",1,risk,,,,,4,0,4,0,0,15,15,10,,,,,,,,,,,,,,,,,,,,,,,,,,,,,,,1403.0875551628442,None,1405.109082551202,1406.5886211753786,1406.6052307547802,None,1408.1055042946855,None,2,1410.1249148978322,None,1410.1249148978322,None,1410.1249148978322,None,None,None,None,None,1410.876161533789,None,1410.876161533789,None,right,1410.876161533789,None,None,None,1410.876161533789,1412.8071327512953,0.6463258101307474,0.00562848397930793,,,,,,,,,,,,,111,001,21,0,2019_Dec_06_1317,Test,3.1.2,59.98528004301064,
Pictures/IA100_G40.bmp,Pictures/IA100_G40.bmp,Pictures/IA100.bmp,"

"Try your luck and gamble!"",1,risk,,,,,4,0,4,0,0,16,16,16,,,,,,,,,,,,,,,,,,,,,,,,,,,,,,,1412.8238247503386,None,1414.8454557075293,1416.3248462873685,1416.3415025193976,None,1417.8419779096698,None,1,1419.8590919594822,None,1419.8590919594822,None,1419.8590919594822,None,1420.44350320177,None,1420.44350320177,1421.4430777298085,1422.5264792537323,None,1422.5264792537323,None,left,1422.5264792537323,None,1422.6600419935853,1424.4272942129282,None,None,0.49603188302762646,0.10862069019140108,,,,,,,,,,,,,111,001,21,0,2019_Dec_06_1317,Test,3.1.2,59.98528004301064,
Pictures/IA20_10_L95p.bmp,Pictures/IA20_10_L95p.bmp,Pictures/IA20.bmp,"

"Don't be tempted to gamble."",0,safe,,,,,4,0,4,0,0,17,17,4,,,,,,,,,,,,,,,,,,,,,,,,,,,,,,,1424.443975015341,None,1426.4663356196234,1427.945018945632,1427.9615980453173,None,1429.5121105555304,None,2,1431.4830615195756,None,1431.4830615195756,None,1431.4830615195756,None,None,None,None,None,1432.6793017532368,None,1432.6793017532368,None,right,1432.6793017532368,None,None,None,1432.7464603874096,1434.6136618175929,1.0799778431119194,0.0356043521301217,,,,,,,,,,,,,111,001,21,0,2019_Dec_06_1317,Test,3.1.2,59.98528004301064,
Pictures/IA50_G40.bmp,Pictures/IA50_G40.bmp,Pictures/IA50.bmp,"

"It would probably be best to play it safe."",0,safe,,,,,4,0,4,0,0,18,18,3,,,,,,,,,,,,,,,,,,,,,,,,,,,,,,,1434.6303351555853,None,1436.6525094603753,1438.1314083215225,1438.148041227238,None,1439.648513818353,None,1,1441.6656499504084,None,1441.6656499504084,None,1441.6656499504084,None,1442.1154269975023,None,1442.1154269975023,1443.0995532855427,1444.1830104816013,None,1444.1830104816013,None,right,1444.1830104816013,None,None,None,1444.6000118808693,1446.0838033585537,0.3371249478655045,0.38774242649014923,,,,,,,,,,,,,111,001,21,0,2019_Dec_06_1317,Test,3.1.2,59.98528004301064,
Pictures/IA25_G20.bmp,Pictures/IA25_G20.bmp,Pictures/IA25.bmp,"

"I wouldn't gamble for this one. "",0,safe,,,,,4,0,4,0,0,19,19,13,,,,,,,,,,,,,,,,,,,,,,,,,,,,,,,1446.10044994904,None,1448.1220625561973,1449.6015265361702,1449.6181550876404,None,1451.1185769828999,None,1,1453.1523873860006,None,1453.1523873860006,None,1453.1523873860006,None,1454.069026294354,None,1454.069026294354,1455.0531130831696,1456.1238608594722,None,1456.1238608594722,None,right,1456.1238608594722,None,None,None,1456.9370463226378,1458.0373603570233,0.7783172894946802,0.7827421356887498,,,,,,,,,,,,,111,001,21,0,2019_Dec_06_1317,Test,3.1.2,59.98528004301064,
,,,,,,,,,,4,0,4,0,,,,,,,,,,,,,,,,,,,,,,,,,,,,,,,,,,,,,,,,,,,,,,,,,,,,,,,,,,,,,,,,,,,,,,,,,1458.1537235172473,None,return,9.688754819605037,1458.1537235172473,None,111,001,21,0,2019_Dec_06_1317,Test,3.1.2,59.98528004301064,
Pictures/IA100_L60.bmp,Pictures/IA100_L60.bmp,Pictures/IA100.bmp,"

"You'd have a lot to lose, don't gamble."",0,safe,,,,,5,0,5,0,0,0,0,2,,,,,,,,,,,,,1467.9567505263194,None,1467.9567505263194,None,1467.9567505263194,None,left,3.669733921405623,1467.9567505263194,None,1467.9567505263194,None,1467.9567505263194,None,return,6.4859713994515005,1467.9567505263194,None,1474.4956148085394,None,1476.4928308907574,1477.9766995007858,1477.9933367607464,None,1479.4938006433708,None,2,1481.5273311307074,None,1481.5273311307074,None,1481.5273311307074,None,None,None,None,None,1482.5275684370717,None,1482.5275684370717,None,left,1482.5275684370717,None,1483.8784789252977,None,None,None,0.8750253868047366,1.3227497182961088,,,,,,,,,,,,,111,001,21,0,2019_Dec_06_1317,Test,3.1.2,59.98528004301064,
Pictures/IA100_L20.bmp,Pictures/IA100_L20.bmp,Pictures/IA100.bmp,"

"Try to win as much money as you can, gamble!"",1,risk,,,,,5,0,5,0,0,1,1,6,,,,,,,,,,,,,,,,,,,,,,,,,,,,,,,1484.4786497361174,None,1486.500089417536,1487.97968091469,1487.996301379705,None,1489.4966445875334,None,2,1491.515042828667,None,1491.515042828667,None,1491.515042828667,None,None,None,None,None,1492.363902000869,None,1492.363902000869,None,right,1492.363902000869,None,None,None,1492.363902000869,1494.2982754389782,0.7031316042621256,-0.03678715174191893,,,,,,,,,,,,,111,001,21,0,2019_Dec_06_1317,Test,3.1.2,59.98528004301064,
Pictures/IA25_L10.bmp,Pictures/IA25_L10.bmp,Pictures/IA25.bmp,"

"Dont be afraid to take the risk!"",1,risk,,,,,5,0,5,0,0,2,2,1,,,,,,,,,,,,,,,,,,,,,,,,,,,,,,,1494.3149434896727,None,1496.3375644156154,1497.8159849318236,1497.8325456814755,None,1499.332931187686,None,1,1501.3529827979323,None,1501.3529827979323,None,1501.3529827979323,None,1502.233450058207,None,1502.233450058207,1503.2176174005594,1504.2874663362418,None,1504.2874663362418,None,right,1504.2874663362418,None,None,None,1504.7347362711425,1506.2018118014353,0.785069479757567,0.42661401762143214,,,,,,,,,,,,,111,001,21,0,2019_Dec_06_1317,Test,3.1.2,59.98528004301064,
Pictures/IA25_G20.bmp,Pictures/IA25_G20.bmp,Pictures/IA25.bmp,"

"I wouldn't gamble for this one. "",0,safe,,,,,5,0,5,0,0,3,3,16,,,,,,,,,,,,,,,,,,,,,,,,,,,,,,,1506.2184879385854,None,1508.2406205670286,1509.7195558172252,1509.736135849963,None,1511.2366482513198,None,2,1513.2705264562387,None,1513.2705264562387,None,1513.2705264562387,None,None,None,None,None,1513.7203131448755,None,1513.7203131448755,None,right,1513.7203131448755,None,None,None,1513.7203131448755,1515.6546788075466,0.3314065798244883,0.029638725164204516,,,,,,,,,,,,,111,001,21,0,2019_Dec_06_1317,Test,3.1.2,59.98528004301064,
Pictures/IA50_G40.bmp,Pictures/IA50_G40.bmp,Pictures/IA50.bmp,"

"It would probably be best to play it safe."",0,safe,,,,,5,0,5,0,0,4,4,19,,,,,,,,,,,,,,,,,,,,,,,,,,,,,,,1515.6713633421696,None,1517.693151052188,1519.1723855012342,1519.1890389341056,None,1520.6895053048702,None,2,1522.7233349910566,None,1522.7233349910566,None,1522.7233349910566,None,None,None,None,None,1523.8066618707767,None,1523.8066618707767,None,left,1523.8066618707767,None,1523.8233299214712,1525.741032509728,None,None,0.9585783762581741,-0.013004575379000016,,,,,,,,,,,,,111,001,21,0,2019_Dec_06_1317,Test,3.1.2,59.98528004301064,
Pictures/IA50_L30.bmp,Pictures/IA50_L30.bmp,Pictures/IA50.bmp,"

"Take a leap, I think you should gamble."",1,risk,,,,,5,0,5,0,0,5,5,18,,,,,,,,,,,,,,,,,,,,,,,,,,,,,,,1525.757675990039,None,1527.7788323345007,1529.2587724822902,1529.2754495524928,None,1530.7756602668592,None,2,1532.7934840586418,None,1532.7934840586418,None,1532.7934840586418,None,None,None,None,None,1533.1761562775932,None,1533.1761562775932,None,right,1533.1761562775932,None,None,None,1533.2099489526954,1535.1105172750017,0.2642591422818441,0.0013712762261093303,,,,,,,,,,,,,111,001,21,0,2019_Dec_06_1317,Test,3.1.2,59.98528004301064,
Pictures/IA50_L10.bmp,Pictures/IA50_L10.bmp,Pictures/IA50.bmp,"

"Play it safe, don’t gamble!"",0,safe,,,,,5,0,5,0,0,6,6,9,,,,,,,,,,,,,,,,,,,,,,,,,,,,,,,1535.1271949672391,None,1537.1455058124511,1538.6282423187226,1538.6449001058395,None,1540.145326666362,None,2,1542.162460621295,None,1542.162460621295,None,1542.162460621295,None,None,None,None,None,1542.6340039181987,None,1542.6340039181987,None,left,1542.6340039181987,None,1542.979505189794,1544.5800308715989,None,None,0.3591795109123268,0.3275359668427882,,,,,,,,,,,,,111,001,21,0,2019_Dec_06_1317,Test,3.1.2,59.98528004301064,
Pictures/IA110_55_L95p.bmp,Pictures/IA110_55_L95p.bmp,Pictures/IA110.bmp,"

"Trust me, gamble!"",1,risk,,,,,5,0,5,0,0,7,7,14,,,,,,,,,,,,,,,,,,,,,,,,,,,,,,,1544.5967070087486,None,1546.6174332159867,1548.0977602695652,1548.114430186365,None,1549.6146956398143,None,2,1551.6333933908159,None,1551.6333933908159,None,1551.6333933908159,None,None,None,None,None,1552.1485248594745,None,1552.1485248594745,None,right,1552.1485248594745,None,None,None,1552.1485248594745,1554.0828995416537,0.39211004546132244,0.015055113859034464,,,,,,,,,,,,,111,001,21,0,2019_Dec_06_1317,Test,3.1.2,59.98528004301064,
Pictures/IA25_L5.bmp,Pictures/IA25_L5.bmp,Pictures/IA25.bmp,"

"It would be smarter to choose the safe option."",0,safe,,,,,5,0,5,0,0,8,8,10,,,,,,,,,,,,,,,,,,,,,,,,,,,,,,,1554.0995507974026,None,1556.1220538477069,1557.6005990819385,1557.6171616976953,None,1559.1176992914711,None,2,1561.151517781027,None,1561.151517781027,None,1561.151517781027,None,None,None,None,None,1562.084806079024,None,1562.084806079024,None,right,1562.084806079024,None,None,None,1562.1183801088127,1564.0191804501856,0.7858016149893956,0.012378186102523614,,,,,,,,,,,,,111,001,21,0,2019_Dec_06_1317,Test,3.1.2,59.98528004301064,
Pictures/IA75_G45.bmp,Pictures/IA75_G45.bmp,Pictures/IA75.bmp,"

"Don't gamble for this one."",0,safe,,,,,5,0,5,0,0,9,9,15,,,,,,,,,,,,,,,,,,,,,,,,,,,,,,,1564.0358677839663,None,1566.05771116612,1567.5369151354498,1567.5534656215236,None,1569.0537136579924,None,2,1571.073134835735,None,1571.073134835735,None,1571.073134835735,None,None,None,None,None,1572.3379982850497,None,1572.3379982850497,None,left,1572.3379982850497,None,1572.538393712719,1574.2889380711254,None,None,1.1520592625211066,0.18323565828222854,,,,,,,,,,,,,111,001,21,0,2019_Dec_06_1317,Test,3.1.2,59.98528004301064,
Pictures/IA100_G20.bmp,Pictures/IA100_G20.bmp,Pictures/IA100.bmp,"

"Go ahead and gamble!"",1,risk,,,,,5,0,5,0,0,10,10,4,,,,,,,,,,,,,,,,,,,,,,,,,,,,,,,1574.3056154523456,None,1576.3240488384586,1577.8066338792005,1577.8233423621718,None,1579.3237658125195,None,2,1581.3409591717977,None,1581.3409591717977,None,1581.3409591717977,None,None,None,None,None,1582.3575783927427,None,1582.3575783927427,None,right,1582.3575783927427,None,None,None,1582.4413288783185,1584.2919188629949,0.9002675683686903,0.06750790684282038,,,,,,,,,,,,,111,001,21,0,2019_Dec_06_1317,Test,3.1.2,59.98528004301064,
Pictures/IA80_40_G95p.bmp,Pictures/IA80_40_G95p.bmp,Pictures/IA80.bmp,"

"Think of the payoff, gamble!"",1,risk,,,,,5,0,5,0,0,11,11,12,,,,,,,,,,,,,,,,,,,,,,,,,,,,,,,1584.3086152162832,None,1586.3290030364642,1587.8096261787177,1587.8263206659012,None,1589.326753446774,None,2,1591.3605955736612,None,1591.3605955736612,None,1591.3605955736612,None,None,None,None,None,1592.379135638782,None,1592.379135638782,None,left,1592.379135638782,None,1592.4441949047246,1594.3282957826336,None,None,0.9124233769471175,0.04585859961889582,,,,,,,,,,,,,111,001,21,0,2019_Dec_06_1317,Test,3.1.2,59.98528004301064,
Pictures/IA25_L15.bmp,Pictures/IA25_L15.bmp,Pictures/IA25.bmp,"

"There's not much on the line here, gamble!"",1,risk,,,,,5,0,5,0,0,12,12,0,,,,,,,,,,,,,,,,,,,,,,,,,,,,,,,1594.3449230900337,None,1596.3628056641269,1597.8460080746368,1597.8625921506023,None,1599.363035506071,None,2,1601.380282360362,None,1601.380282360362,None,1601.380282360362,None,None,None,None,None,1602.2985718386703,None,1602.2985718386703,None,left,1602.2985718386703,None,1603.1809565219287,1604.2479400532402,None,None,0.7965466481177828,0.8542764752883159,,,,,,,,,,,,,111,001,21,0,2019_Dec_06_1317,Test,3.1.2,59.98528004301064,
Pictures/IA50_G10.bmp,Pictures/IA50_G10.bmp,Pictures/IA50.bmp,"

"Go with the safe option here!"",0,safe,,,,,5,0,5,0,0,13,13,17,,,,,,,,,,,,,,,,,,,,,,,,,,,,,,,1604.2645664275879,None,1606.286950669201,1607.765647368963,1607.7822771645033,None,1609.2825902036325,None,2,1611.302620042653,None,1611.302620042653,None,1611.302620042653,None,None,None,None,None,1611.6757894324337,None,1611.6757894324337,None,right,1611.6757894324337,None,None,None,1611.6757894324337,1613.6174291727589,0.2500954046231527,0.023100514951693185,,,,,,,,,,,,,111,001,21,0,2019_Dec_06_1317,Test,3.1.2,59.98528004301064,
Pictures/IA75_L15.bmp,Pictures/IA75_L15.bmp,Pictures/IA75.bmp,"

"Trust me, gamble!"",1,risk,,,,,5,0,5,0,0,14,14,3,,,,,,,,,,,,,,,,,,,,,,,,,,,,,,,1613.6340826056303,None,1615.6537071888279,1617.135141464762,1617.151793031528,None,1618.6521328181639,None,1,1620.6693970894362,None,1620.6693970894362,None,1620.6693970894362,None,1621.5361991731288,None,1621.5361991731288,1622.5200968632953,1623.5868178958235,None,1623.5868178958235,None,right,1623.5868178958235,None,None,None,1623.937143982138,1625.5042651386998,0.7711760163197141,0.3258110637016216,,,,,,,,,,,,,111,001,21,0,2019_Dec_06_1317,Test,3.1.2,59.98528004301064,
Pictures/IA110_55_G95p.bmp,Pictures/IA110_55_G95p.bmp,Pictures/IA110.bmp,"

"Take a chance!"",1,risk,,,,,5,0,5,0,0,15,15,8,,,,,,,,,,,,,,,,,,,,,,,,,,,,,,,1625.5209832632145,None,1627.5428512157519,1629.0220362130135,1629.038703019638,None,1630.5391491742644,None,1,1632.5562115951684,None,1632.5562115951684,None,1632.5562115951684,None,1632.8562918687894,None,1632.8562918687894,1633.8568221536534,1634.9237832917038,None,1634.9237832917038,None,left,1634.9237832917038,None,1635.190491696921,1636.841054809684,None,None,0.22022808158499174,0.24470111683285722,,,,,,,,,,,,,111,001,21,0,2019_Dec_06_1317,Test,3.1.2,59.98528004301064,
Pictures/IA75_G30.bmp,Pictures/IA75_G30.bmp,Pictures/IA75.bmp,"

"Be bold, gamble!"",1,risk,,,,,5,0,5,0,0,16,16,11,,,,,,,,,,,,,,,,,,,,,,,,,,,,,,,1636.857723793431,None,1638.8795640654098,1640.3587842076504,1640.3754062277526,None,1641.8758825510777,None,2,1643.8930339229914,None,1643.8930339229914,None,1643.8930339229914,None,None,None,None,None,1645.4431567282577,None,1645.4431567282577,None,left,1645.4431567282577,None,1645.727001576548,1647.3775404299445,None,None,1.4353187758474633,0.26120184010369485,,,,,,,,,,,,,111,001,21,0,2019_Dec_06_1317,Test,3.1.2,59.98528004301064,
Pictures/IA20_10_L95p.bmp,Pictures/IA20_10_L95p.bmp,Pictures/IA20.bmp,"

"Don't be tempted to gamble."",0,safe,,,,,5,0,5,0,0,17,17,7,,,,,,,,,,,,,,,,,,,,,,,,,,,,,,,1647.3942346061103,None,1649.4160167178138,1650.895282579629,1650.9119422328508,None,1652.412376879829,None,2,1654.4461872829293,None,1654.4461872829293,None,1654.4461872829293,None,None,None,None,None,1654.829353708713,None,1654.829353708713,None,right,1654.829353708713,None,None,None,1654.829353708713,1656.7636649433189,0.2581255658574264,0.010886546097935934,,,,,,,,,,,,,111,001,21,0,2019_Dec_06_1317,Test,3.1.2,59.98528004301064,
Pictures/IA50_G30.bmp,Pictures/IA50_G30.bmp,Pictures/IA50.bmp,"

"I think you should gamble."",1,risk,,,,,5,0,5,0,0,18,18,5,,,,,,,,,,,,,,,,,,,,,,,,,,,,,,,1656.7803759144304,None,1658.8022926967178,1660.2814198447213,1660.2980941157666,None,1661.7985110347463,None,2,1663.8156325489786,None,1663.8156325489786,None,1663.8156325489786,None,None,None,None,None,1664.8182071519723,None,1664.8182071519723,None,left,1664.8182071519723,None,1664.9328183505313,1666.7500327345938,None,None,0.8804955628684183,0.09391671510775268,,,,,,,,,,,,,111,001,21,0,2019_Dec_06_1317,Test,3.1.2,59.98528004301064,
Pictures/IA40_20_G95p.bmp,Pictures/IA40_20_G95p.bmp,Pictures/IA40.bmp,"

"Hold back, stay with the safe choice."",0,safe,,,,,5,0,5,0,0,19,19,13,,,,,,,,,,,,,,,,,,,,,,,,,,,,,,,1666.7666995412183,None,1668.788647736275,1670.2677232553706,1670.2843200830544,None,1671.7848542556371,None,2,1673.802068764107,None,1673.802068764107,None,1673.802068764107,None,None,None,None,None,1674.2851623184865,None,1674.2851623184865,None,left,1674.2851623184865,None,1674.3522503516833,1676.2195183396143,None,None,0.357937617972766,0.05095648771657579,,,,,,,,,,,,,111,001,21,0,2019_Dec_06_1317,Test,3.1.2,59.98528004301064,
,,,,,,,,,,5,0,5,0,,,,,,,,,,,,,,,,,,,,,,,,,,,,,,,,,,,,,,,,,,,,,,,,,,,,,,,,,,,,,,,,,,,,,,,,,1676.3524294977724,None,return,15.6953866460899,1676.3524294977724,None,111,001,21,0,2019_Dec_06_1317,Test,3.1.2,59.98528004301064,
Pictures/IA25_L5.bmp,Pictures/IA25_L5.bmp,Pictures/IA25.bmp,"

"It would be smarter to choose the safe option."",0,safe,,,,,6,0,6,0,0,0,0,6,,,,,,,,,,,,,1692.1571639930048,None,1692.1571639930048,None,1692.1571639930048,None,left,1.1946285408953372,1692.1571639930048,None,1692.1571639930048,None,1692.1571639930048,None,return,1.51459434140952,1692.1571639930048,None,1693.7246160722034,None,1695.7268174541787,1697.2091847826596,1697.2258397706187,None,1698.7262797048943,None,1,1700.7434724421378,None,1700.7434724421378,None,1700.7434724421378,None,1701.0098032720912,None,1701.0098032720912,1701.9939423118494,1703.061967751838,None,1703.061967751838,None,right,1703.061967751838,None,None,None,1703.1442872458251,1704.978178078055,0.16020325616682385,0.057683796578658075,,,,,,,,,,,,,111,001,21,0,2019_Dec_06_1317,Test,3.1.2,59.98528004301064,
Pictures/IA75_G60.bmp,Pictures/IA75_G60.bmp,Pictures/IA75.bmp,"

"Make it exciting, take a chance!"",1,risk,,,,,6,0,6,0,0,1,1,16,,,,,,,,,,,,,,,,,,,,,,,,,,,,,,,1704.994818759208,None,1707.0163427263733,1708.4959068539865,1708.5124293484837,None,1710.012983426188,None,2,1712.0297920567996,None,1712.0297920567996,None,1712.0297920567996,None,None,None,None,None,1712.763366988539,None,1712.763366988539,None,left,1712.763366988539,None,1713.330683153083,1714.6977342062974,None,None,0.6096926120585522,0.5401173717900747,,,,,,,,,,,,,111,001,21,0,2019_Dec_06_1317,Test,3.1.2,59.98528004301064,
Pictures/IA25_L10.bmp,Pictures/IA25_L10.bmp,Pictures/IA25.bmp,"

"Dont be afraid to take the risk!"",1,risk,,,,,6,0,6,0,0,2,2,14,,,,,,,,,,,,,,,,,,,,,,,,,,,,,,,1714.7144165637978,None,1716.7368272418998,1718.2154667144391,1718.2321086396623,None,1719.7325687900766,None,2,1721.7663903898078,None,1721.7663903898078,None,1721.7663903898078,None,None,None,None,None,1722.599658875989,None,1722.599658875989,None,right,1722.599658875989,None,None,None,1722.6163455877345,1724.5340425776758,0.7130235163454017,-0.00039001596451271325,,,,,,,,,,,,,111,001,21,0,2019_Dec_06_1317,Test,3.1.2,59.98528004301064,
Pictures/IA100_L20.bmp,Pictures/IA100_L20.bmp,Pictures/IA100.bmp,"

"Try to win as much money as you can, gamble!"",1,risk,,,,,6,0,6,0,0,3,3,0,,,,,,,,,,,,,,,,,,,,,,,,,,,,,,,1724.5506845028995,None,1726.572223709923,1728.0517816171855,1728.068408613568,None,1729.5688569453168,None,1,1731.5860347537196,None,1731.5860347537196,None,1731.5860347537196,None,1732.7693307494,None,1732.7693307494,1733.7534844069814,1734.8227256144387,None,1734.8227256144387,None,right,1734.8227256144387,None,None,None,1735.7540265105113,None,1.0772607940957641,0.9125313000254209,,,,,,,,,,,,,111,001,21,0,2019_Dec_06_1317,Test,3.1.2,59.98528004301064,
Pictures/IA50_G30.bmp,Pictures/IA50_G30.bmp,Pictures/IA50.bmp,"

"I think you should gamble."",1,risk,,,,,6,0,6,0,0,4,4,8,,,,,,,,,,,,,,,,,,,,,,,,,,,,,,,1736.7543717399535,None,1738.7757974255837,1740.2554063397188,1740.2720575954677,None,1741.7725109034968,None,2,1743.7897089280377,None,1743.7897089280377,None,1743.7897089280377,None,None,None,None,None,1744.5895697788014,None,1744.5895697788014,None,left,1744.5895697788014,None,1745.823753838345,None,None,None,0.67346582057462,1.2016171044701878,,,,,,,,,,,,,111,001,21,0,2019_Dec_06_1317,Test,3.1.2,59.98528004301064,
Pictures/IA80_40_G95p.bmp,Pictures/IA80_40_G95p.bmp,Pictures/IA80.bmp,"

"Think of the payoff, gamble!"",1,risk,,,,,6,0,6,0,0,5,5,13,,,,,,,,,,,,,,,,,,,,,,,,,,,,,,,1746.5406249523758,None,1748.5622335163052,1750.0417018505232,1750.0583801647958,None,1751.5587995719156,None,2,1753.575921086148,None,1753.575921086148,None,1753.575921086148,None,None,None,None,None,1755.1302566236623,None,1755.1302566236623,None,left,1755.1302566236623,None,1755.1594337988336,1757.0771087065314,None,None,1.4391262522731267,0.01257443815438819,,,,,,,,,,,,,111,001,21,0,2019_Dec_06_1317,Test,3.1.2,59.98528004301064,
Pictures/IA25_G5.bmp,Pictures/IA25_G5.bmp,Pictures/IA25.bmp,"

"Let's stay with the certain option."",0,safe,,,,,6,0,6,0,0,6,6,19,,,,,,,,,,,,,,,,,,,,,,,,,,,,,,,1757.0938302522386,None,1759.1122026789185,1760.5948598757236,1760.628211216971,None,1762.1119722149392,None,2,1764.1290949732415,None,1764.1290949732415,None,1764.1290949732415,None,None,None,None,None,1764.5156524229978,None,1764.5156524229978,None,right,1764.5156524229978,None,None,None,1764.5156524229978,1766.4466065345405,0.2537427070283229,-0.00268501421169276,,,,,,,,,,,,,111,001,21,0,2019_Dec_06_1317,Test,3.1.2,59.98528004301064,
Pictures/IA75_L45.bmp,Pictures/IA75_L45.bmp,Pictures/IA75.bmp,"

"Don't gamble for this one, play it safe."",0,safe,,,,,6,0,6,0,0,7,7,3,,,,,,,,,,,,,,,,,,,,,,,,,,,,,,,1766.4632985335838,None,1768.485284050742,1769.9643402867518,1769.9808531397066,None,1771.4814429844246,None,1,1773.514989644672,None,1773.514989644672,None,1773.514989644672,None,1773.998606952548,None,1773.998606952548,1774.9825139732397,1776.0499792706828,None,1776.0499792706828,None,left,1776.0499792706828,None,1777.466590031951,None,None,None,0.3717256464728962,1.3967174589370188,,,,,,,,,,,,,111,001,21,0,2019_Dec_06_1317,Test,3.1.2,59.98528004301064,
Pictures/IA100_L60.bmp,Pictures/IA100_L60.bmp,Pictures/IA100.bmp,"

"You'd have a lot to lose, don't gamble."",0,safe,,,,,6,0,6,0,0,8,8,4,,,,,,,,,,,,,,,,,,,,,,,,,,,,,,,1777.9829717910225,None,1780.0056533653806,1781.4844707399388,1781.5012588433942,None,1783.0015392256846,None,2,1785.0353990805702,None,1785.0353990805702,None,1785.0353990805702,None,None,None,None,None,1786.9023137526037,None,1786.9023137526037,None,right,1786.9023137526037,None,None,None,1787.0028025788329,1788.8366616872763,1.7392565997138263,0.08031654118667575,,,,,,,,,,,,,111,001,21,0,2019_Dec_06_1317,Test,3.1.2,59.98528004301064,
Pictures/IA100_G60.bmp,Pictures/IA100_G60.bmp,Pictures/IA100.bmp,"

"Be cautious, don't gamble for this one."",0,safe,,,,,6,0,6,0,0,9,9,1,,,,,,,,,,,,,,,,,,,,,,,,,,,,,,,1788.853356796495,None,1790.8746711378544,1792.354396061523,1792.3710837063213,None,1793.8713466716308,None,2,1795.8895555030972,None,1795.8895555030972,None,1795.8895555030972,None,None,None,None,None,1796.6081288159908,None,1796.6081288159908,None,left,1796.6081288159908,None,1796.789054547185,1798.5562545155858,None,None,0.5890040379404127,0.15837571724523514,,,,,,,,,,,,,111,001,21,0,2019_Dec_06_1317,Test,3.1.2,59.98528004301064,
Pictures/IA100_G40.bmp,Pictures/IA100_G40.bmp,Pictures/IA100.bmp,"

"Try your luck and gamble!"",1,risk,,,,,6,0,6,0,0,10,10,5,,,,,,,,,,,,,,,,,,,,,,,,,,,,,,,1798.5729197671226,None,1800.5946754423371,1802.073991066955,1802.0906497871242,None,1803.590934212642,None,2,1805.6103326861062,None,1805.6103326861062,None,1805.6103326861062,None,None,None,None,None,1806.780516805365,None,1806.780516805365,None,right,1806.780516805365,None,None,None,1806.8753948756134,1808.7259696204314,1.0600478407141054,0.07387941166689416,,,,,,,,,,,,,111,001,21,0,2019_Dec_06_1317,Test,3.1.2,59.98528004301064,
Pictures/IA100_G80.bmp,Pictures/IA100_G80.bmp,Pictures/IA100.bmp,"

"Why not gamble?"",1,risk,,,,,6,0,6,0,0,11,11,18,,,,,,,,,,,,,,,,,,,,,,,,,,,,,,,1808.7426448245287,None,1810.764121206014,1812.2437074158706,1812.2602603900846,None,1813.760644652225,None,2,1815.7800036264643,None,1815.7800036264643,None,1815.7800036264643,None,None,None,None,None,1816.463961622927,None,1816.463961622927,None,left,1816.463961622927,None,1816.5450022128898,1818.3955393245883,None,None,0.570263055504256,0.0622890329314032,,,,,,,,,,,,,111,001,21,0,2019_Dec_06_1317,Test,3.1.2,59.98528004301064,
Pictures/IA40_20_G95p.bmp,Pictures/IA40_20_G95p.bmp,Pictures/IA40.bmp,"

"Hold back, stay with the safe choice."",0,safe,,,,,6,0,6,0,0,12,12,15,,,,,,,,,,,,,,,,,,,,,,,,,,,,,,,1818.4122260363338,None,1820.430835769378,1821.9132820963077,1821.9299072265853,None,1823.430256654764,None,2,1825.4475041310902,None,1825.4475041310902,None,1825.4475041310902,None,None,None,None,None,1826.180705219776,None,1826.180705219776,None,left,1826.180705219776,None,1826.231195181219,1828.115134641038,None,None,0.6146365464865085,0.02542257172308382,,,,,,,,,,,,,111,001,21,0,2019_Dec_06_1317,Test,3.1.2,59.98528004301064,
Pictures/IA50_G10.bmp,Pictures/IA50_G10.bmp,Pictures/IA50.bmp,"

"Go with the safe option here!"",0,safe,,,,,6,0,6,0,0,13,13,2,,,,,,,,,,,,,,,,,,,,,,,,,,,,,,,1828.1318023807148,None,1830.1502665575617,1831.632843511848,1831.6495202710335,None,1833.1498525932489,None,1,1835.1671268170812,None,1835.1671268170812,None,1835.1671268170812,None,1835.6668862450329,None,1835.6668862450329,1836.6510411466843,1837.7197284319464,None,1837.7197284319464,None,left,1837.7197284319464,None,1838.0347316369816,1839.6352647832068,None,None,0.41491384970368017,0.28623221873976945,,,,,,,,,,,,,111,001,21,0,2019_Dec_06_1317,Test,3.1.2,59.98528004301064,
Pictures/IA50_L30.bmp,Pictures/IA50_L30.bmp,Pictures/IA50.bmp,"

"Take a leap, I think you should gamble."",1,risk,,,,,6,0,6,0,0,14,14,17,,,,,,,,,,,,,,,,,,,,,,,,,,,,,,,1839.6519244364285,None,1841.6697146383194,1843.1529730319826,1843.1695334706164,None,1844.670004506644,None,2,1846.6892651993485,None,1846.6892651993485,None,1846.6892651993485,None,None,None,None,None,1847.8705700608944,None,1847.8705700608944,None,right,1847.8705700608944,None,None,None,1849.0047380408323,None,1.0606182468377483,1.1032428863295536,,,,,,,,,,,,,111,001,21,0,2019_Dec_06_1317,Test,3.1.2,59.98528004301064,
Pictures/IA100_G20.bmp,Pictures/IA100_G20.bmp,Pictures/IA100.bmp,"

"Go ahead and gamble!"",1,risk,,,,,6,0,6,0,0,15,15,11,,,,,,,,,,,,,,,,,,,,,,,,,,,,,,,1849.821642340432,None,1851.8402290581798,1853.3227033766861,1853.339244843252,None,1854.8397217886122,None,2,1856.8569537140625,None,1856.8569537140625,None,1856.8569537140625,None,None,None,None,None,1857.773560898629,None,1857.773560898629,None,right,1857.773560898629,None,None,None,1858.1241572591643,1859.7079501986314,0.7888757121136223,0.32013126183255736,,,,,,,,,,,,,111,001,21,0,2019_Dec_06_1317,Test,3.1.2,59.98528004301064,
Pictures/IA80_40_L95p.bmp,Pictures/IA80_40_L95p.bmp,Pictures/IA80.bmp,"

"Let's stay with the certain option."",0,safe,,,,,6,0,6,0,0,16,16,7,,,,,,,,,,,,,,,,,,,,,,,,,,,,,,,1859.7246449968325,None,1861.7471937667115,1863.2256677779324,1863.2423376947322,None,1864.7427779400255,None,1,1866.75989789917,None,1866.75989789917,None,1866.75989789917,None,1867.093188001069,None,1867.093188001069,1868.0771130607764,1869.1602950063339,None,1869.1602950063339,None,right,1869.1602950063339,None,None,None,1870.1610265195304,None,0.22971598191497833,0.9813150007171316,,,,,,,,,,,,,111,001,21,0,2019_Dec_06_1317,Test,3.1.2,59.98528004301064,
Pictures/IA110_55_L95p.bmp,Pictures/IA110_55_L95p.bmp,Pictures/IA110.bmp,"

"Trust me, gamble!"",1,risk,,,,,6,0,6,0,0,17,17,12,,,,,,,,,,,,,,,,,,,,,,,,,,,,,,,1871.078022475992,None,1873.099863058988,1874.5790732486685,1874.5957462756433,None,1876.0961333369414,None,2,1878.1166303242703,None,1878.1166303242703,None,1878.1166303242703,None,None,None,None,None,1878.502797447044,None,1878.502797447044,None,right,1878.502797447044,None,None,None,1878.502797447044,1880.430841056676,0.27287650458629287,-0.035248548092567944,,,,,,,,,,,,,111,001,21,0,2019_Dec_06_1317,Test,3.1.2,59.98528004301064,
Pictures/IA75_L60.bmp,Pictures/IA75_L60.bmp,Pictures/IA75.bmp,"

"Why not take the gamble?"",1,risk,,,,,6,0,6,0,0,18,18,10,,,,,,,,,,,,,,,,,,,,,,,,,,,,,,,1880.4475022649854,None,1882.466620822685,1883.9485595690294,1883.9651843882893,None,1885.4654971164014,None,2,1887.465910769697,None,1887.465910769697,None,1887.465910769697,None,None,None,None,None,1888.1690050518578,None,1888.1690050518578,None,right,1888.1690050518578,None,None,None,1888.1690050518578,1890.1004135599906,0.5873677747908914,0.03546501628306942,,,,,,,,,,,,,111,001,21,0,2019_Dec_06_1317,Test,3.1.2,59.98528004301064,
Pictures/IA25_L15.bmp,Pictures/IA25_L15.bmp,Pictures/IA25.bmp,"

"There's not much on the line here, gamble!"",1,risk,,,,,6,0,6,0,0,19,19,9,,,,,,,,,,,,,,,,,,,,,,,,,,,,,,,1890.1170595284416,None,1892.1510145546868,1893.6181323833616,1893.6347687102698,None,1895.1351881173891,None,2,1897.1524035589114,None,1897.1524035589114,None,1897.1524035589114,None,None,None,None,None,1898.1690454841346,None,1898.1690454841346,None,right,1898.1690454841346,None,None,None,1898.1690454841346,1900.1034192332613,0.8927760894712264,0.024002465746889357,,,,,,,,,,,,,111,001,21,0,2019_Dec_06_1317,Test,3.1.2,59.98528004301064,
,,,,,,,,,,6,0,6,0,,,,,,,,,,,,,,,,,,,,,,,,,,,,,,,,,,,,,,,,,,,,,,,,,,,,,,,,,,,,,,,,,,,,,,,,,1900.2196219084472,None,return,12.009498474925294,1900.2196219084472,None,111,001,21,0,2019_Dec_06_1317,Test,3.1.2,59.98528004301064,
Pictures/IA50_L40.bmp,Pictures/IA50_L40.bmp,Pictures/IA50.bmp,"

"That gamble doesn't sound too good, play it safe."",0,safe,,,,,7,0,7,0,0,0,0,4,,,,,,,,,,,,,1912.3404652759832,None,1912.3404652759832,None,1912.3404652759832,None,right,4.928567674146052,1912.3404652759832,None,1912.3404652759832,None,1912.3404652759832,None,return,6.61653250926156,1912.3404652759832,None,1919.008881416175,None,1921.0141637376591,1922.4934289774396,1922.5101082247652,None,1924.0104501885235,None,2,1926.0288005329598,None,1926.0288005329598,None,1926.0288005329598,None,None,None,None,None,1926.7942802634816,None,1926.7942802634816,None,right,1926.7942802634816,None,None,None,1926.8111905968208,1928.7286605439758,0.6241471510952579,-0.005568457598656096,,,,,,,,,,,,,111,001,21,0,2019_Dec_06_1317,Test,3.1.2,59.98528004301064,
Pictures/IA25_L5.bmp,Pictures/IA25_L5.bmp,Pictures/IA25.bmp,"

"It would be smarter to choose the safe option."",0,safe,,,,,7,0,7,0,0,1,1,16,,,,,,,,,,,,,,,,,,,,,,,,,,,,,,,1928.7453317048457,None,1930.766622719892,1932.2463476435605,1932.2630508392344,None,1933.7633361978046,None,2,1935.7806828887183,None,1935.7806828887183,None,1935.7806828887183,None,None,None,None,None,1936.3971469741264,None,1936.3971469741264,None,left,1936.3971469741264,None,1936.4307661014545,1938.3315484038117,None,None,0.4881426127276427,0.007514183176226652,,,,,,,,,,,,,111,001,21,0,2019_Dec_06_1317,Test,3.1.2,59.98528004301064,
Pictures/IA25_L10.bmp,Pictures/IA25_L10.bmp,Pictures/IA25.bmp,"

"Dont be afraid to take the risk!"",1,risk,,,,,7,0,7,0,0,2,2,18,,,,,,,,,,,,,,,,,,,,,,,,,,,,,,,1938.3482046358408,None,1940.367944295519,1941.8492395466237,1941.8663551515233,None,1943.3661879796086,None,2,1945.3835511544503,None,1945.3835511544503,None,1945.3835511544503,None,None,None,None,None,1946.1000310084464,None,1946.1000310084464,None,left,1946.1000310084464,None,1946.6840708958207,1948.034471937356,None,None,0.5891583026282206,0.5606986448656244,,,,,,,,,,,,,111,001,21,0,2019_Dec_06_1317,Test,3.1.2,59.98528004301064,
Pictures/IA75_G60.bmp,Pictures/IA75_G60.bmp,Pictures/IA75.bmp,"

"Make it exciting, take a chance!"",1,risk,,,,,7,0,7,0,0,3,3,6,,,,,,,,,,,,,,,,,,,,,,,,,,,,,,,1948.0510084276416,None,1950.0849136910847,1951.5521528165905,1951.568849791914,None,1953.0692847499095,None,2,1955.1028111940182,None,1955.1028111940182,None,1955.1028111940182,None,None,None,None,None,1955.6196062953677,None,1955.6196062953677,None,left,1955.6196062953677,None,1955.8201195986758,1957.55394925376,None,None,0.39771520312706343,0.17691173913863167,,,,,,,,,,,,,111,001,21,0,2019_Dec_06_1317,Test,3.1.2,59.98528004301064,
Pictures/IA75_G30.bmp,Pictures/IA75_G30.bmp,Pictures/IA75.bmp,"

"Be bold, gamble!"",1,risk,,,,,7,0,7,0,0,4,4,8,,,,,,,,,,,,,,,,,,,,,,,,,,,,,,,1957.5706804410106,None,1959.5931163115315,1961.071704155163,1961.0883939770838,None,1962.5886457457627,None,2,1964.6074946512763,None,1964.6074946512763,None,1964.6074946512763,None,None,None,None,None,1964.8056790554274,None,1964.8056790554274,None,right,1964.8056790554274,None,None,None,1964.856071979406,1966.7400792410426,0.09299112698136014,0.022643008186605584,,,,,,,,,,,,,111,001,21,0,2019_Dec_06_1317,Test,3.1.2,59.98528004301064,
Pictures/IA80_40_G95p.bmp,Pictures/IA80_40_G95p.bmp,Pictures/IA80.bmp,"

"Think of the payoff, gamble!"",1,risk,,,,,7,0,7,0,0,5,5,7,,,,,,,,,,,,,,,,,,,,,,,,,,,,,,,1966.7567535120875,None,1968.7761790440754,1970.2578014856063,1970.274465804091,None,1971.7747337456804,None,2,1973.792035339054,None,1973.792035339054,None,1973.792035339054,None,None,None,None,None,1974.6939301510643,None,1974.6939301510643,None,left,1974.6939301510643,None,1974.7424871386484,1976.6430467524642,None,None,0.7962539806353561,0.030184560903762758,,,,,,,,,,,,,111,001,21,0,2019_Dec_06_1317,Test,3.1.2,59.98528004301064,
Pictures/IA100_G80.bmp,Pictures/IA100_G80.bmp,Pictures/IA100.bmp,"

"Why not gamble?"",1,risk,,,,,7,0,7,0,0,6,6,15,,,,,,,,,,,,,,,,,,,,,,,,,,,,,,,1976.6597219565615,None,1978.6778673404551,1980.160772729238,1980.1774252290566,None,1981.6777914521813,None,2,1983.6949733038118,None,1983.6949733038118,None,1983.6949733038118,None,None,None,None,None,1984.4949405225657,None,1984.4949405225657,None,right,1984.4949405225657,None,None,None,1984.5116026639275,1986.429306496254,0.6852359674339823,-0.0028594950381375384,,,,,,,,,,,,,111,001,21,0,2019_Dec_06_1317,Test,3.1.2,59.98528004301064,
Pictures/IA20_10_G95p.bmp,Pictures/IA20_10_G95p.bmp,Pictures/IA20.bmp,"

"Take a leap, I think you should gamble."",1,risk,,,,,7,0,7,0,0,7,7,2,,,,,,,,,,,,,,,,,,,,,,,,,,,,,,,1986.4459841884918,None,1988.4670030632115,1989.9470436696583,1989.9637048779678,None,1991.4641513436113,None,2,1993.481301471455,None,1993.481301471455,None,1993.481301471455,None,None,None,None,None,1994.131136492214,None,1994.131136492214,None,left,1994.131136492214,None,1994.2316181650403,1996.0655690236508,None,None,0.522817644521183,0.07294791420736146,,,,,,,,,,,,,111,001,21,0,2019_Dec_06_1317,Test,3.1.2,59.98528004301064,
Pictures/IA25_G15.bmp,Pictures/IA25_G15.bmp,Pictures/IA25.bmp,"

"I think you should take a gamble."",1,risk,,,,,7,0,7,0,0,8,8,1,,,,,,,,,,,,,,,,,,,,,,,,,,,,,,,1996.082212192944,None,1998.1034229654715,1999.5832471037274,1999.599841132253,None,2001.100345136137,None,1,2003.1338992608048,None,2003.1338992608048,None,2003.1338992608048,None,2004.5511765326091,None,2004.5511765326091,2005.535049341374,2006.618221334371,None,2006.618221334371,None,left,2006.618221334371,None,2007.3189189155569,2008.519264269406,None,None,1.302060211125081,0.6736611395745058,,,,,,,,,,,,,111,001,21,0,2019_Dec_06_1317,Test,3.1.2,59.98528004301064,
Pictures/IA50_G30.bmp,Pictures/IA50_G30.bmp,Pictures/IA50.bmp,"

"I think you should gamble."",1,risk,,,,,7,0,7,0,0,9,9,14,,,,,,,,,,,,,,,,,,,,,,,,,,,,,,,2008.535939784521,None,2010.5571020383154,2012.0369970885654,2012.0536925088013,None,2013.5541181362714,None,2,2015.5876884338495,None,2015.5876884338495,None,2015.5876884338495,None,None,None,None,None,2016.3545014964611,None,2016.3545014964611,None,right,2016.3545014964611,None,None,None,2016.3881576348736,2018.2888687142195,0.6481331329132445,0.0010518612375562952,,,,,,,,,,,,,111,001,21,0,2019_Dec_06_1317,Test,3.1.2,59.98528004301064,
Pictures/IA50_G20.bmp,Pictures/IA50_G20.bmp,Pictures/IA50.bmp,"

"Let's venture and take a risk!"",1,risk,,,,,7,0,7,0,0,10,10,3,,,,,,,,,,,,,,,,,,,,,,,,,,,,,,,2018.3055669336131,None,2020.3241368564154,2021.8065881596253,2021.8232406594443,None,2023.3237129395416,None,2,2025.340824812231,None,2025.340824812231,None,2025.340824812231,None,None,None,None,None,2025.8951942506546,None,2025.8951942506546,None,right,2025.8951942506546,None,None,None,2025.9243421901792,2027.8417586423216,0.43888583573379947,0.012269329971786647,,,,,,,,,,,,,111,001,21,0,2019_Dec_06_1317,Test,3.1.2,59.98528004301064,
Pictures/IA50_G40.bmp,Pictures/IA50_G40.bmp,Pictures/IA50.bmp,"

