Choice	Choice2	Amount	AdviceVar1	GambleAdviceNum	GambleAdviceType	practice.thisRepN	practice.thisTrialN	practice.thisN	practice.thisIndex	trials_2.thisRepN	trials_2.thisTrialN	trials_2.thisN	trials_2.thisIndex	trials.thisRepN	trials.thisTrialN	trials.thisN	trials.thisIndex	text.started	text.stopped	key_resp_4.keys	key_resp_4.rt	key_resp_4.started	key_resp_4.stopped	instructions.started	instructions.stopped	space.keys	space.rt	space.started	space.stopped	chooseInst.started	chooseInst.stopped	Ad1.started	Ad1.stopped	Ad2.started	Ad2.stopped	key_resp_3.keys	key_resp_3.rt	key_resp_3.started	key_resp_3.stopped	Ad1pic.started	Ad1pic.stopped	Ad2pic.started	Ad2pic.stopped	enter.keys	enter.rt	enter.started	enter.stopped	iSi.started	iSi.stopped	receiveMoneyPicture.started	receiveMoneyPicture.stopped	ISI2.started	ISI2.stopped	ChoicePic.started	ChoicePic.stopped	response.keys	response.started	response.stopped	yesNo.started	yesNo.stopped	ask.started	ask.stopped	getAdv.started	getAdv.stopped	textForCode.started	textForCode.stopped	blank.started	blank.stopped	ChoicePic2.started	ChoicePic2.stopped	resp.keys	resp.started	resp.stopped	checkL1.started	checkL1.stopped	checkR1.started	checkR1.stopped	response.rt	resp.rt	EndPrac.started	EndPrac.stopped	key_resp.keys	key_resp.rt	key_resp.started	key_resp.stopped	endText.started	endText.stopped	key_resp_2.keys	key_resp_2.rt	key_resp_2.started	key_resp_2.stopped	participant	session	age	gender (0=male	 1 = female	 2 = other)	date	expName	psychopyVersion	frameRate																		342.4749463	None	space	439.8281852	342.4749463	None																																																																					112	1	20	1	2020_Feb_04_1210	Test	3.2.4	59.8323235																										782.3839052	None	space	2.751223731	782.3839052	None																																																															112	1	20	1	2020_Feb_04_1210	Test	3.2.4	59.8323235																																785.9934214	None	785.9934214	None	785.9934214	None	left	11.54169789	785.9934214	None																																																					112	1	20	1	2020_Feb_04_1210	Test	3.2.4	59.8323235																																										785.9934214	None	785.9934214	None	return	13.65357014	785.9934214	None																																													112	1	20	1	2020_Feb_04_1210	Test	3.2.4	59.8323235		Pictures/IA50_G20.bmp	Pictures/IA50_G20.bmp	Pictures/IA50.bmp	"Let's venture and take a risk!"""""	1	risk	0	0	0	1																																							799.7797426	None	801.7348862	803.2388462	803.2221394	None	804.7428176	None	None	806.8149469	None	806.8149469	None	806.8149469	None	None	None	None	None	809.9064202	None	809.9064202	None	None	809.9064202	None	None	None	None	None															112	1	20	1	2020_Feb_04_1210	Test	3.2.4	59.8323235		Pictures/IA100_G20.bmp	Pictures/IA100_G20.bmp	Pictures/IA100.bmp	"Go ahead and gamble!"""""	1	risk	0	1	1	4																																							811.9116976	None	813.9671133	815.4710651	815.4543677	None	817.0251709	None	None	818.9636194	None	818.9636194	None	818.9636194	None	None	None	None	None	822.0885045	None	822.0885045	None	None	822.0885045	None	None	None	None	None															112	1	20	1	2020_Feb_04_1210	Test	3.2.4	59.8323235		Pictures/IA50_G40.bmp	Pictures/IA50_G40.bmp	Pictures/IA50.bmp	"It would probably be best to play it safe."""""	0	safe	0	2	2	3																																							824.0937805	None	826.1157793	827.6364511	827.6197555	None	829.1905424	None	None	831.1457081	None	831.1457081	None	831.1457081	None	None	None	None	None	834.2538568	None	834.2538568	None	None	834.2538568	None	None	None	None	None															112	1	20	1	2020_Feb_04_1210	Test	3.2.4	59.8323235		Pictures/IA50_G30.bmp	Pictures/IA50_G30.bmp	Pictures/IA50.bmp	"I think you should gamble."""""	1	risk	0	3	3	2																																							836.2591719	None	838.2811614	839.8018308	839.7851394	None	841.3726377	None	1	843.3110799	None	843.3110799	None	843.3110799	None	846.2187403	None	846.2187403	847.2213788	848.3577104	None	848.3577104	None	None	848.3577104	None	None	None	None	None	2.776066865														112	1	20	1	2020_Feb_04_1210	Test	3.2.4	59.8323235		Pictures/IA100_G40.bmp	Pictures/IA100_G40.bmp	Pictures/IA100.bmp	"Try your luck and gamble!"""""	1	risk	0	4	4	5																																							850.3629896	None	852.3849834	853.9056563	853.888961	None	855.4597539	None	None	857.4149151	None	857.4149151	None	857.4149151	None	None	None	None	None	860.506347	None	860.506347	None	left	860.506347	None	861.2416736	862.5116612	None	None		0.692788737													112	1	20	1	2020_Feb_04_1210	Test	3.2.4	59.8323235		Pictures/IA50_G10.bmp	Pictures/IA50_G10.bmp	Pictures/IA50.bmp	"Go with the safe option here!"""""	0	safe	0	5	5	0																																							862.5283841	None	864.5503774	866.071052	866.054334	None	867.6418566	None	1	869.5802996	None	869.5802996	None	869.5802996	None	872.1871568	None	872.1871568	873.1897915	874.2927087	None	874.2927087	None	None	874.2927087	None	None	None	None	None	2.490848656														112	1	20	1	2020_Feb_04_1210	Test	3.2.4	59.8323235																																																																																		876.2979856	None	space	69.25316514	876.2979856	None							112	1	20	1	2020_Feb_04_1210	Test	3.2.4	59.8323235		Pictures/IA75_L15.bmp	Pictures/IA75_L15.bmp	Pictures/IA75.bmp	"Trust me"	1	risk					0	0	0	0	0	0	0	5													945.7309182	None	945.7309182	None	945.7309182	None	left	10.66021471	945.7309182	None	945.7309182	None	945.7309182	None	return	12.54009446	945.7309182	None	958.3474834	None	960.3527682	961.8734382	961.856741	None	963.3941142	None	1	965.3492759	None	965.3492759	None	965.3492759	None	967.538377	None	967.538377	968.5410169	969.6439252	None	969.6439252	None	None	969.6439252	None	None	None	None	None	2.073866889														112	1	20	1	2020_Feb_04_1210	Test	3.2.4	59.8323235		Pictures/IA75_G15.bmp	Pictures/IA75_G15.bmp	Pictures/IA75.bmp	"Take a chance!"""""	1	risk					0	0	0	0	0	1	1	4																															971.6492062	None	973.6712097	975.191869	975.1751588	None	976.7459712	None	1	978.701109	None	978.701109	None	978.701109	None	981.5586479	None	981.5586479	982.561288	983.664196	None	983.664196	None	left	983.664196	None	985.6527639	None	None	None	2.770026864	1.950928646													112	1	20	1	2020_Feb_04_1210	Test	3.2.4	59.8323235		Pictures/IA50_G30.bmp	Pictures/IA50_G30.bmp	Pictures/IA50.bmp	"I think you should gamble."""""	1	risk					0	0	0	0	0	2	2	13																															985.669466	None	987.6914613	989.2121301	989.195433	None	990.6993888	None	1	992.7213892	None	992.7213892	None	992.7213892	None	995.5622043	None	995.5622043	996.5648325	997.6677446	None	997.6677446	None	right	997.6677446	None	None	None	999.5059341	None	2.733755155	1.803385713													112	1	20	1	2020_Feb_04_1210	Test	3.2.4	59.8323235		Pictures/IA50_G10.bmp	Pictures/IA50_G10.bmp	Pictures/IA50.bmp	"Go with the safe option here!"""""	0	safe					0	0	0	0	0	3	3	0																															999.6897459	None	1001.71174	1003.215689	1003.198993	None	1004.75309	None	1	1006.741646	None	1006.741646	None	1006.741646	None	1008.195444	None	1008.195444	1009.198115	1010.301029	None	1010.301029	None	left	1010.301029	None	1010.936041	1012.306318	None	None	1.353495563	0.586108706													112	1	20	1	2020_Feb_04_1210	Test	3.2.4	59.8323235		Pictures/IA40_20_L95p.bmp	Pictures/IA40_20_L95p.bmp	Pictures/IA40.bmp	"Trust me"	1	risk					0	0	0	0	0	4	4	3																															1012.323017	None	1014.378436	1015.882409	1015.865687	None	1017.41978	None	1	1019.374942	None	1019.374942	None	1019.374942	None	1022.399579	None	1022.399579	1023.402217	1024.521842	None	1024.521842	None	right	1024.521842	None	None	None	1025.240408	1026.510407	2.912213941	0.677287257													112	1	20	1	2020_Feb_04_1210	Test	3.2.4	59.8323235		Pictures/IA75_G60.bmp	Pictures/IA75_G60.bmp	Pictures/IA75.bmp	"Make it exciting"	1	risk					0	0	0	0	0	5	5	14																															1026.527106	None	1028.5491	1030.069775	1030.053076	None	1031.623868	None	1	1033.579034	None	1033.579034	None	1033.579034	None	1035.066277	None	1035.066277	1036.068915	1037.171821	None	1037.171821	None	right	1037.171821	None	None	None	1037.673148	1039.177099	1.36412239	0.459313021													112	1	20	1	2020_Feb_04_1210	Test	3.2.4	59.8323235		Pictures/IA75_G30.bmp	Pictures/IA75_G30.bmp	Pictures/IA75.bmp	"Be bold"	1	risk					0	0	0	0	0	6	6	10																															1039.193826	None	1041.215816	1042.736491	1042.719769	None	1044.307294	None	1	1046.245737	None	1046.245737	None	1046.245737	None	1047.432194	None	1047.432194	1048.434832	1049.537745	None	1049.537745	None	left	1049.537745	None	1051.192098	None	None	None	1.073409058	1.613387926													112	1	20	1	2020_Feb_04_1210	Test	3.2.4	59.8323235		Pictures/IA25_G15.bmp	Pictures/IA25_G15.bmp	Pictures/IA25.bmp	"I think you should take a gamble."""""	1	risk					0	0	0	0	0	7	7	16																															1051.543012	None	1053.59843	1055.102403	1055.085681	None	1056.639777	None	1	1058.594938	None	1058.594938	None	1058.594938	None	1060.065478	None	1060.065478	1061.068115	1062.204449	None	1062.204449	None	right	1062.204449	None	None	None	1062.555369	1064.193003	1.340206309	0.31467576													112	1	20	1	2020_Feb_04_1210	Test	3.2.4	59.8323235		Pictures/IA25_L10.bmp	Pictures/IA25_L10.bmp	Pictures/IA25.bmp	"Dont be afraid to take the risk!"""""	1	risk					0	0	0	0	0	8	8	18																															1064.209728	None	1066.231735	1067.752394	1067.735676	None	1069.323201	None	2	1071.261643	None	1071.261643	None	1071.261643	None	None	None	None	None	1072.799014	None	1072.799014	None	right	1072.799014	None	None	None	1073.400613	1074.804295	1.361498871	0.568135619													112	1	20	1	2020_Feb_04_1210	Test	3.2.4	59.8323235		Pictures/IA25_G10.bmp	Pictures/IA25_G10.bmp	Pictures/IA25.bmp	"What's life without a little risk?"""""	1	risk					0	0	0	0	0	9	9	1																															1074.821016	None	1076.843013	1078.363683	1078.346966	None	1079.917783	None	2	1081.872922	None	1081.872922	None	1081.872922	None	None	None	None	None	1083.343464	None	1083.343464	None	left	1083.343464	None	1083.911635	1085.348741	None	None	1.270204587	0.519668469													112	1	20	1	2020_Feb_04_1210	Test	3.2.4	59.8323235		Pictures/IA50_L10.bmp	Pictures/IA50_L10.bmp	Pictures/IA50.bmp	"Play it safe"	0	safe					0	0	0	0	0	10	10	15																															1085.365461	None	1087.387488	1088.908131	1088.891412	None	1090.462227	None	1	1092.417368	None	1092.417368	None	1092.417368	None	1093.653958	None	1093.653958	1094.656596	1095.79293	None	1095.79293	None	right	1095.79293	None	None	None	1096.59505	1097.798218	1.077788073	0.758198365													112	1	20	1	2020_Feb_04_1210	Test	3.2.4	59.8323235		Pictures/IA100_L80.bmp	Pictures/IA100_L80.bmp	Pictures/IA100.bmp	"Go all in!"""""	1	risk					0	0	0	0	0	11	11	9																															1097.81492	None	1099.836914	1101.357586	1101.340894	None	1102.911691	None	1	1104.866842	None	1104.866842	None	1104.866842	None	1106.420929	None	1106.420929	1107.423565	1108.5599	None	1108.5599	None	left	1108.5599	None	1109.027819	1110.565187	None	None	1.460303631	0.431224386													112	1	20	1	2020_Feb_04_1210	Test	3.2.4	59.8323235		Pictures/IA100_G20.bmp	Pictures/IA100_G20.bmp	Pictures/IA100.bmp	"Go ahead and gamble!"""""	1	risk					0	0	0	0	0	12	12	7																															1110.581886	None	1112.603886	1114.124556	1114.107857	None	1115.645229	None	1	1117.633811	None	1117.633811	None	1117.633811	None	1118.770144	None	1118.770144	1119.772786	1120.892399	None	1120.892399	None	left	1120.892399	None	1121.393708	1122.880967	None	None	1.037323697	0.466723231													112	1	20	1	2020_Feb_04_1210	Test	3.2.4	59.8323235		Pictures/IA25_L15.bmp	Pictures/IA25_L15.bmp	Pictures/IA25.bmp	"There's not much on the line here"	1	risk					0	0	0	0	0	13	13	8																															1122.897668	None	1124.919665	1126.440334	1126.423638	None	1127.994429	None	1	1129.949594	None	1129.949594	None	1129.949594	None	1131.169472	None	1131.169472	1132.191284	1133.291721	None	1133.291721	None	left	1133.291721	None	1133.943434	1135.28029	None	None	1.073549146	0.611404983													112	1	20	1	2020_Feb_04_1210	Test	3.2.4	59.8323235		Pictures/IA110_55_G95p.bmp	Pictures/IA110_55_G95p.bmp	Pictures/IA110.bmp	"Take a chance!"""""	1	risk					0	0	0	0	0	14	14	2																															1135.297012	None	1137.352428	1138.856379	1138.83968	None	1140.410485	None	1	1142.348927	None	1142.348927	None	1142.348927	None	1143.368266	None	1143.368266	1144.370904	1145.490527	None	1145.490527	None	left	1145.490527	None	1145.791325	1147.495806	None	None	0.930219383	0.260605989													112	1	20	1	2020_Feb_04_1210	Test	3.2.4	59.8323235		Pictures/IA100_G40.bmp	Pictures/IA100_G40.bmp	Pictures/IA100.bmp	"Try your luck and gamble!"""""	1	risk					0	0	0	0	0	15	15	17																															1147.512527	None	1149.534525	1151.055194	1151.038479	None	1152.542452	None	1	1154.564429	None	1154.564429	None	1154.564429	None	1155.583782	None	1155.583782	1156.586421	1157.722755	None	1157.722755	None	left	1157.722755	None	1158.424609	1159.72803	None	None	0.906722467	0.652377459													112	1	20	1	2020_Feb_04_1210	Test	3.2.4	59.8323235		Pictures/IA25_G5.bmp	Pictures/IA25_G5.bmp	Pictures/IA25.bmp	"Let's stay with the certain option."""""	0	safe					0	0	0	0	0	16	16	12																															1159.744753	None	1161.766748	1163.28742	1163.270703	None	1164.841517	None	1	1166.796662	None	1166.796662	None	1166.796662	None	1168.100103	None	1168.100103	1169.10274	1170.205652	None	1170.205652	None	left	1170.205652	None	1170.690258	1172.210933	None	None	1.162479065	0.44946941													112	1	20	1	2020_Feb_04_1210	Test	3.2.4	59.8323235		Pictures/IA40_20_G95p.bmp	Pictures/IA40_20_G95p.bmp	Pictures/IA40.bmp	"Hold back"	0	safe					0	0	0	0	0	17	17	6																															1172.227629	None	1174.249631	1175.770296	1175.7536	None	1177.324395	None	1	1179.279558	None	1179.279558	None	1179.279558	None	1180.248766	None	1180.248766	1181.251408	1182.38774	None	1182.38774	None	left	1182.38774	None	1182.872345	1184.376313	None	None	0.831577749	0.435398143													112	1	20	1	2020_Feb_04_1210	Test	3.2.4	59.8323235		Pictures/IA25_L5.bmp	Pictures/IA25_L5.bmp	Pictures/IA25.bmp	"It would be smarter to choose the safe option."""""	0	safe					0	0	0	0	0	18	18	19																															1184.393013	None	1186.415009	1187.93568	1187.918983	None	1189.489778	None	1	1191.444941	None	1191.444941	None	1191.444941	None	1192.330612	None	1192.330612	1193.333244	1194.436156	None	1194.436156	None	right	1194.436156	None	None	None	1195.137987	1196.441431	0.74619832	0.666975406													112	1	20	1	2020_Feb_04_1210	Test	3.2.4	59.8323235		Pictures/IA25_G20.bmp	Pictures/IA25_G20.bmp	Pictures/IA25.bmp	"I wouldn't gamble for this one. """""	0	safe					0	0	0	0	0	19	19	11																															1196.458138	None	1198.480131	1200.000799	1199.984105	None	1201.5549	None	1	1203.51006	None	1203.51006	None	1203.51006	None	1204.529401	None	1204.529401	1205.532042	1206.634949	None	1206.634949	None	right	1206.634949	None	None	None	1207.604179	1208.640228	0.889084914	0.932181912													112	1	20	1	2020_Feb_04_1210	Test	3.2.4	59.8323235		Pictures/IA25_L5.bmp	Pictures/IA25_L5.bmp	Pictures/IA25.bmp	"It would be smarter to choose the safe option."""""	0	safe					1	0	1	0	0	0	0	8													1243.766107	None	1243.766107	None	1243.766107	None	left	3.297030741	1243.766107	None	1243.766107	None	1243.766107	None	return	4.248811414	1243.766107	None	1248.077462	None	1250.082756	1251.603428	1251.586709	None	1253.107383	None	1	1255.095966	None	1255.095966	None	1255.095966	None	1255.831222	None	1255.831222	1256.833862	1257.936774	None	1257.936774	None	right	1257.936774	None	None	None	1258.270993	1259.942063	0.599174523	0.294369416													112	1	20	1	2020_Feb_04_1210	Test	3.2.4	59.8323235		Pictures/IA50_L10.bmp	Pictures/IA50_L10.bmp	Pictures/IA50.bmp	"Play it safe"	0	safe					1	0	1	0	0	1	1	15																															1259.958763	None	1261.980758	1263.501432	1263.484768	None	1265.005394	None	1	1267.010678	None	1267.010678	None	1267.010678	None	1267.896355	None	1267.896355	1268.898982	1270.001893	None	1270.001893	None	right	1270.001893	None	None	None	1270.336114	1272.007173	0.780474569	0.285239159													112	1	20	1	2020_Feb_04_1210	Test	3.2.4	59.8323235		Pictures/IA100_L20.bmp	Pictures/IA100_L20.bmp	Pictures/IA100.bmp	"Try to win as much money as you can"	1	risk					1	0	1	0	0	2	2	19																															1272.023894	None	1274.045886	1275.566558	1275.54984	None	1277.137366	None	1	1279.075809	None	1279.075809	None	1279.075809	None	1280.028319	None	1280.028319	1281.030969	1282.133864	None	1282.133864	None	right	1282.133864	None	None	None	1282.651894	1284.139132	0.803326784	0.473277966													112	1	20	1	2020_Feb_04_1210	Test	3.2.4	59.8323235		Pictures/IA40_20_L95p.bmp	Pictures/IA40_20_L95p.bmp	Pictures/IA40.bmp	"Trust me"	1	risk					1	0	1	0	0	3	3	2																															1284.155855	None	1286.177861	1287.698522	1287.681807	None	1289.185779	None	1	1291.291314	None	1291.291314	None	1291.291314	None	1291.70909	None	1291.70909	1292.71173	1293.814639	None	1293.814639	None	right	1293.814639	None	None	None	1294.583317	1295.819918	0.331822723	0.720496906													112	1	20	1	2020_Feb_04_1210	Test	3.2.4	59.8323235		Pictures/IA100_G80.bmp	Pictures/IA100_G80.bmp	Pictures/IA100.bmp	"Why not gamble?"""""	1	risk					1	0	1	0	0	4	4	9																															1295.836618	None	1297.858638	1299.379284	1299.362588	None	1300.950091	None	1	1302.888537	None	1302.888537	None	1302.888537	None	1303.573681	None	1303.573681	1304.576319	1305.67923	None	1305.67923	None	right	1305.67923	None	None	None	1306.464632	1307.667804	0.598611026	0.751921143													112	1	20	1	2020_Feb_04_1210	Test	3.2.4	59.8323235		Pictures/IA50_G20.bmp	Pictures/IA50_G20.bmp	Pictures/IA50.bmp	"Let's venture and take a risk!"""""	1	risk					1	0	1	0	0	5	5	4																															1307.684499	None	1309.706493	1311.227167	1311.21047	None	1312.747844	None	1	1314.736431	None	1314.736431	None	1314.736431	None	1315.939583	None	1315.939583	1316.942221	1318.061879	None	1318.061879	None	left	1318.061879	None	1318.496328	1320.06712	None	None	1.102707857	0.393240987													112	1	20	1	2020_Feb_04_1210	Test	3.2.4	59.8323235		Pictures/IA25_L20.bmp	Pictures/IA25_L20.bmp	Pictures/IA25.bmp	"Don't be tempted to gamble."""""	0	safe					1	0	1	0	0	6	6	12																															1320.083842	None	1322.105839	1323.626515	1323.609792	None	1325.180606	None	2	1327.135752	None	1327.135752	None	1327.135752	None	None	None	None	None	1328.171822	None	1328.171822	None	left	1328.171822	None	1328.606286	1330.17709	None	None	0.863389806	0.387309964													112	1	20	1	2020_Feb_04_1210	Test	3.2.4	59.8323235		Pictures/IA50_G10.bmp	Pictures/IA50_G10.bmp	Pictures/IA50.bmp	"Go with the safe option here!"""""	0	safe					1	0	1	0	0	7	7	16																															1330.193809	None	1332.21581	1333.736478	1333.719762	None	1335.257154	None	2	1337.245718	None	1337.245718	None	1337.245718	None	None	None	None	None	1338.08125	None	1338.08125	None	left	1338.08125	None	1339.284429	None	None	None	0.673424374	1.165895343													112	1	20	1	2020_Feb_04_1210	Test	3.2.4	59.8323235		Pictures/IA110_55_L95p.bmp	Pictures/IA110_55_L95p.bmp	Pictures/IA110.bmp	"Trust me"	1	risk					1	0	1	0	0	8	8	1																															1340.103261	None	1342.125235	1343.645907	1343.629213	None	1345.200004	None	2	1347.155168	None	1347.155168	None	1347.155168	None	None	None	None	None	1347.790172	None	1347.790172	None	right	1347.790172	None	None	None	1348.107675	1349.778743	0.483965681	0.280955128													112	1	20	1	2020_Feb_04_1210	Test	3.2.4	59.8323235		Pictures/IA75_G45.bmp	Pictures/IA75_G45.bmp	Pictures/IA75.bmp	"Don't gamble for this one."""""	0	safe					1	0	1	0	0	9	9	6																															1349.79545	None	1351.817439	1353.338109	1353.321414	None	1354.908917	None	2	1356.847356	None	1356.847356	None	1356.847356	None	None	None	None	None	1357.849999	None	1357.849999	None	left	1357.849999	None	1359.203561	None	None	None	0.815784557	1.317128782													112	1	20	1	2020_Feb_04_1210	Test	3.2.4	59.8323235		Pictures/IA25_G20.bmp	Pictures/IA25_G20.bmp	Pictures/IA25.bmp	"I wouldn't gamble for this one. """""	0	safe					1	0	1	0	0	10	10	5																															1359.855282	None	1361.877273	1363.397946	1363.381248	None	1364.885197	None	2	1366.907206	None	1366.907206	None	1366.907206	None	None	None	None	None	1367.341673	None	1367.341673	None	right	1367.341673	None	None	None	1367.79286	1369.330244	0.259936266	0.401463922													112	1	20	1	2020_Feb_04_1210	Test	3.2.4	59.8323235		Pictures/IA100_L40.bmp	Pictures/IA100_L40.bmp	Pictures/IA100.bmp	"Think of the payoff"	1	risk					1	0	1	0	0	11	11	14																															1369.346962	None	1371.368957	1372.889635	1372.872914	None	1374.443731	None	2	1376.398868	None	1376.398868	None	1376.398868	None	None	None	None	None	1376.916898	None	1376.916898	None	right	1376.916898	None	None	None	1378.320604	None	0.336277653	1.362240901													112	1	20	1	2020_Feb_04_1210	Test	3.2.4	59.8323235		Pictures/IA100_L80.bmp	Pictures/IA100_L80.bmp	Pictures/IA100.bmp	"Go all in!"""""	1	risk					1	0	1	0	0	12	12	0																															1378.922178	None	1380.944174	1382.464844	1382.448147	None	1383.968816	None	2	1385.974099	None	1385.974099	None	1385.974099	None	None	None	None	None	1386.726079	None	1386.726079	None	left	1386.726079	None	1387.64516	1388.714641	None	None	0.609043728	0.88105104													112	1	20	1	2020_Feb_04_1210	Test	3.2.4	59.8323235		Pictures/IA75_L15.bmp	Pictures/IA75_L15.bmp	Pictures/IA75.bmp	"Trust me"	1	risk					1	0	1	0	0	13	13	3																															1388.731365	None	1390.753361	1392.274033	1392.257316	None	1393.794707	None	2	1395.783283	None	1395.783283	None	1395.783283	None	None	None	None	None	1396.485131	None	1396.485131	None	right	1396.485131	None	None	None	1396.769209	1398.473688	0.527858792	0.242001016													112	1	20	1	2020_Feb_04_1210	Test	3.2.4	59.8323235		Pictures/IA75_G30.bmp	Pictures/IA75_G30.bmp	Pictures/IA75.bmp	"Be bold"	1	risk					1	0	1	0	0	14	14	17																															1398.490408	None	1400.512413	1402.01636	1401.999657	None	1403.55375	None	2	1405.542313	None	1405.542313	None	1405.542313	None	None	None	None	None	1406.244172	None	1406.244172	None	left	1406.244172	None	1407.113126	1408.249463	None	None	0.544829354	0.826953594													112	1	20	1	2020_Feb_04_1210	Test	3.2.4	59.8323235		Pictures/IA50_G40.bmp	Pictures/IA50_G40.bmp	Pictures/IA50.bmp	"It would probably be best to play it safe."""""	0	safe					1	0	1	0	0	15	15	7																															1408.266156	None	1410.288156	1411.808823	1411.792131	None	1413.329497	None	2	1415.318081	None	1415.318081	None	1415.318081	None	None	None	None	None	1416.420974	None	1416.420974	None	right	1416.420974	None	None	None	1416.855461	1418.426254	0.889061338	0.386164086													112	1	20	1	2020_Feb_04_1210	Test	3.2.4	59.8323235		Pictures/IA25_G5.bmp	Pictures/IA25_G5.bmp	Pictures/IA25.bmp	"Let's stay with the certain option."""""	0	safe					1	0	1	0	0	16	16	18																															1418.442975	None	1420.464971	1421.985641	1421.968925	None	1423.489603	None	2	1425.494889	None	1425.494889	None	1425.494889	None	None	None	None	None	1426.413979	None	1426.413979	None	left	1426.413979	None	1426.798322	1428.402548	None	None	0.744276688	0.337155626													112	1	20	1	2020_Feb_04_1210	Test	3.2.4	59.8323235		Pictures/IA25_L10.bmp	Pictures/IA25_L10.bmp	Pictures/IA25.bmp	"Dont be afraid to take the risk!"""""	1	risk					1	0	1	0	0	17	17	13																															1428.419247	None	1430.441244	1431.961916	1431.945222	None	1433.48259	None	2	1435.471207	None	1435.471207	None	1435.471207	None	None	None	None	None	1436.139601	None	1436.139601	None	right	1436.139601	None	None	None	1436.423679	1438.12816	0.51192273	0.243528681													112	1	20	1	2020_Feb_04_1210	Test	3.2.4	59.8323235		Pictures/IA100_L60.bmp	Pictures/IA100_L60.bmp	Pictures/IA100.bmp	"You'd have a lot to lose"	0	safe					1	0	1	0	0	18	18	11																															1438.144857	None	1440.166877	1441.687512	1441.670836	None	1443.241654	None	2	1445.196786	None	1445.196786	None	1445.196786	None	None	None	None	None	1445.948769	None	1445.948769	None	None	1445.948769	None	None	None	None	None	0.578358674														112	1	20	1	2020_Feb_04_1210	Test	3.2.4	59.8323235		Pictures/IA75_L60.bmp	Pictures/IA75_L60.bmp	Pictures/IA75.bmp	"Why not take the gamble?"""""	1	risk					1	0	1	0	0	19	19	10																															1447.954049	None	1449.976041	1451.496713	1451.480034	None	1453.067525	None	2	1455.005963	None	1455.005963	None	1455.005963	None	None	None	None	None	1455.808075	None	1455.808075	None	left	1455.808075	None	1456.877567	None	None	None	0.649176348	1.023072126													112	1	20	1	2020_Feb_04_1210	Test	3.2.4	59.8323235		Pictures/IA100_G40.bmp	Pictures/IA100_G40.bmp	Pictures/IA100.bmp	"Try your luck and gamble!"""""	1	risk					2	0	2	0	0	0	0	5													1462.158136	None	1462.158136	None	1462.158136	None	left	1.488991115	1462.158136	None	1462.158136	None	1462.158136	None	return	2.280783453	1462.158136	None	1464.497634	None	1466.502926	1468.023598	1468.006881	None	1469.510843	None	2	1471.51613	None	1471.51613	None	1471.51613	None	None	None	None	None	1472.418503	None	1472.418503	None	left	1472.418503	None	1473.354309	1474.423792	None	None	0.747012869	0.900629911													112	1	20	1	2020_Feb_04_1210	Test	3.2.4	59.8323235		Pictures/IA100_G20.bmp	Pictures/IA100_G20.bmp	Pictures/IA100.bmp	"Go ahead and gamble!"""""	1	risk					2	0	2	0	0	1	1	4																															1474.440494	None	1476.462496	1477.983168	1477.966468	None	1479.503838	None	2	1481.49242	None	1481.49242	None	1481.49242	None	None	None	None	None	1481.876752	None	1481.876752	None	left	1481.876752	None	1482.77914	1483.882035	None	None	0.218711339	0.858387234													112	1	20	1	2020_Feb_04_1210	Test	3.2.4	59.8323235		Pictures/IA40_20_G95p.bmp	Pictures/IA40_20_G95p.bmp	Pictures/IA40.bmp	"Hold back"	0	safe					2	0	2	0	0	2	2	6																															1483.898755	None	1485.920754	1487.441422	1487.424706	None	1488.962098	None	2	1490.950659	None	1490.950659	None	1490.950659	None	None	None	None	None	1491.451992	None	1491.451992	None	left	1491.451992	None	1491.88646	1493.457272	None	None	0.320486184	0.387147876													112	1	20	1	2020_Feb_04_1210	Test	3.2.4	59.8323235		Pictures/IA25_G15.bmp	Pictures/IA25_G15.bmp	Pictures/IA25.bmp	"I think you should take a gamble."""""	1	risk					2	0	2	0	0	3	3	10																															1493.473971	None	1495.495967	1497.016642	1496.999948	None	1498.537319	None	2	1500.525903	None	1500.525903	None	1500.525903	None	None	None	None	None	1500.943669	None	1500.943669	None	right	1500.943669	None	None	None	1501.244456	1502.932237	0.241245657	0.255476108													112	1	20	1	2020_Feb_04_1210	Test	3.2.4	59.8323235		Pictures/IA75_L45.bmp	Pictures/IA75_L45.bmp	Pictures/IA75.bmp	"Don't gamble for this one"	0	safe					2	0	2	0	0	4	4	18																															1502.948933	None	1504.970935	1506.4749	1506.458183	None	1508.045696	None	2	1510.000862	None	1510.000862	None	1510.000862	None	None	None	None	None	1510.71942	None	1510.71942	None	left	1510.71942	None	1511.287572	1512.724688	None	None	0.542281803	0.519732865													112	1	20	1	2020_Feb_04_1210	Test	3.2.4	59.8323235		Pictures/IA75_G15.bmp	Pictures/IA75_G15.bmp	Pictures/IA75.bmp	"Take a chance!"""""	1	risk					2	0	2	0	0	5	5	0																															1512.74141	None	1514.763405	1516.284076	1516.267358	None	1517.804752	None	2	1519.793315	None	1519.793315	None	1519.793315	None	None	None	None	None	1520.36148	None	1520.36148	None	left	1520.36148	None	1520.662283	1522.350047	None	None	0.413819199	0.253655192													112	1	20	1	2020_Feb_04_1210	Test	3.2.4	59.8323235		Pictures/IA80_40_L95p.bmp	Pictures/IA80_40_L95p.bmp	Pictures/IA80.bmp	"Let's stay with the certain option."""""	0	safe					2	0	2	0	0	6	6	13																															1522.366767	None	1524.405476	1525.926147	1525.909429	None	1527.463519	None	2	1529.418685	None	1529.418685	None	1529.418685	None	None	None	None	None	1530.137242	None	1530.137242	None	right	1530.137242	None	None	None	1530.387902	1532.14251	0.540456833	0.213886101													112	1	20	1	2020_Feb_04_1210	Test	3.2.4	59.8323235		Pictures/IA100_L80.bmp	Pictures/IA100_L80.bmp	Pictures/IA100.bmp	"Go all in!"""""	1	risk					2	0	2	0	0	7	7	3																															1532.159233	None	1534.18123	1535.701903	1535.685182	None	1537.222579	None	2	1539.211139	None	1539.211139	None	1539.211139	None	None	None	None	None	1540.096818	None	1540.096818	None	left	1540.096818	None	1540.397594	1542.085387	None	None	0.699994589	0.254316031													112	1	20	1	2020_Feb_04_1210	Test	3.2.4	59.8323235		Pictures/IA25_G20.bmp	Pictures/IA25_G20.bmp	Pictures/IA25.bmp	"I wouldn't gamble for this one. """""	0	safe					2	0	2	0	0	8	8	7																															1542.102098	None	1544.124082	1545.644757	1545.628059	None	1547.165429	None	2	1549.154016	None	1549.154016	None	1549.154016	None	None	None	None	None	1549.688743	None	1549.688743	None	right	1549.688743	None	None	None	1549.956121	1551.69401	0.365123133	0.222391032													112	1	20	1	2020_Feb_04_1210	Test	3.2.4	59.8323235		Pictures/IA50_L40.bmp	Pictures/IA50_L40.bmp	Pictures/IA50.bmp	"That gamble doesn't sound too good"	0	safe					2	0	2	0	0	9	9	15																															1551.710734	None	1553.732763	1555.23671	1555.219985	None	1556.807495	None	2	1558.762661	None	1558.762661	None	1558.762661	None	None	None	None	None	1559.263983	None	1559.263983	None	left	1559.263983	None	1559.581481	1561.252561	None	None	0.308480465	0.279140374													112	1	20	1	2020_Feb_04_1210	Test	3.2.4	59.8323235		Pictures/IA40_20_L95p.bmp	Pictures/IA40_20_L95p.bmp	Pictures/IA40.bmp	"Trust me"	1	risk					2	0	2	0	0	10	10	19																															1561.269248	None	1563.291243	1564.811915	1564.79522	None	1566.332592	None	2	1568.321175	None	1568.321175	None	1568.321175	None	None	None	None	None	1568.755642	None	1568.755642	None	right	1568.755642	None	None	None	1569.056443	1570.760922	0.253970677	0.259492883													112	1	20	1	2020_Feb_04_1210	Test	3.2.4	59.8323235		Pictures/IA25_L10.bmp	Pictures/IA25_L10.bmp	Pictures/IA25.bmp	"Dont be afraid to take the risk!"""""	1	risk					2	0	2	0	0	11	11	16																															1570.777643	None	1572.799644	1574.32031	1574.303598	None	1575.807563	None	2	1577.82956	None	1577.82956	None	1577.82956	None	None	None	None	None	1578.865609	None	1578.865609	None	left	1578.865609	None	1579.350217	1580.854194	None	None	0.873582392	0.445525402													112	1	20	1	2020_Feb_04_1210	Test	3.2.4	59.8323235		Pictures/IA75_G30.bmp	Pictures/IA75_G30.bmp	Pictures/IA75.bmp	"Be bold"	1	risk					2	0	2	0	0	12	12	8																															1580.870899	None	1582.892885	1584.413557	1584.39686	None	1585.917522	None	2	1587.922806	None	1587.922806	None	1587.922806	None	None	None	None	None	1588.942166	None	1588.942166	None	left	1588.942166	None	1589.644004	1590.947451	None	None	0.86834886	0.664968832													112	1	20	1	2020_Feb_04_1210	Test	3.2.4	59.8323235		Pictures/IA100_G60.bmp	Pictures/IA100_G60.bmp	Pictures/IA100.bmp	"Be cautious"	0	safe					2	0	2	0	0	13	13	9																															1590.964149	None	1592.986143	1594.506818	1594.49012	None	1596.060912	None	2	1598.016079	None	1598.016079	None	1598.016079	None	None	None	None	None	1598.667792	None	1598.667792	None	right	1598.667792	None	None	None	1598.985292	1600.656361	0.471067492	0.28334377													112	1	20	1	2020_Feb_04_1210	Test	3.2.4	59.8323235		Pictures/IA100_L40.bmp	Pictures/IA100_L40.bmp	Pictures/IA100.bmp	"Think of the payoff"	1	risk					2	0	2	0	0	14	14	14																															1600.673061	None	1602.695054	1604.215728	1604.199029	None	1605.702978	None	2	1607.724989	None	1607.724989	None	1607.724989	None	None	None	None	None	1608.47697	None	1608.47697	None	right	1608.47697	None	None	None	1608.72763	1610.465532	0.570153836	0.210172909													112	1	20	1	2020_Feb_04_1210	Test	3.2.4	59.8323235		Pictures/IA100_L20.bmp	Pictures/IA100_L20.bmp	Pictures/IA100.bmp	"Try to win as much money as you can"	1	risk					2	0	2	0	0	15	15	12																															1610.482236	None	1612.504234	1614.024904	1614.008212	None	1615.528867	None	2	1617.534153	None	1617.534153	None	1617.534153	None	None	None	None	None	1618.152458	None	1618.152458	None	right	1618.152458	None	None	None	1618.436538	1620.141015	0.424993825	0.246682175													112	1	20	1	2020_Feb_04_1210	Test	3.2.4	59.8323235		Pictures/IA75_G60.bmp	Pictures/IA75_G60.bmp	Pictures/IA75.bmp	"Make it exciting"	1	risk					2	0	2	0	0	16	16	1																															1620.157739	None	1622.17975	1623.700405	1623.683687	None	1625.204371	None	2	1627.209655	None	1627.209655	None	1627.209655	None	None	None	None	None	1627.710965	None	1627.710965	None	right	1627.710965	None	None	None	1627.961628	1629.699536	0.33348477	0.216165283													112	1	20	1	2020_Feb_04_1210	Test	3.2.4	59.8323235		Pictures/IA25_G5.bmp	Pictures/IA25_G5.bmp	Pictures/IA25.bmp	"Let's stay with the certain option."""""	0	safe					2	0	2	0	0	17	17	2																															1629.716253	None	1631.738249	1633.258922	1633.242212	None	1634.762885	None	2	1636.768166	None	1636.768166	None	1636.768166	None	None	None	None	None	1637.57027	None	1637.57027	None	left	1637.57027	None	1637.871071	1639.575552	None	None	0.622982873	0.260875083													112	1	20	1	2020_Feb_04_1210	Test	3.2.4	59.8323235		Pictures/IA110_55_G95p.bmp	Pictures/IA110_55_G95p.bmp	Pictures/IA110.bmp	"Take a chance!"""""	1	risk					2	0	2	0	0	18	18	17																															1639.592273	None	1641.614268	1643.118219	1643.101522	None	1644.638903	None	2	1646.644188	None	1646.644188	None	1646.644188	None	None	None	None	None	1647.329317	None	1647.329317	None	left	1647.329317	None	1647.579973	1649.317885	None	None	0.52295783	0.213818076													112	1	20	1	2020_Feb_04_1210	Test	3.2.4	59.8323235		Pictures/IA75_L15.bmp	Pictures/IA75_L15.bmp	Pictures/IA75.bmp	"Trust me"	1	risk					2	0	2	0	0	19	19	11																															1649.33462	None	1651.356602	1652.877272	1652.860556	None	1654.364527	None	2	1656.386513	None	1656.386513	None	1656.386513	None	None	None	None	None	1658.024171	None	1658.024171	None	right	1658.024171	None	None	None	1659.227325	None	1.468630838	1.158966043													112	1	20	1	2020_Feb_04_1210	Test	3.2.4	59.8323235		Pictures/IA50_L40.bmp	Pictures/IA50_L40.bmp	Pictures/IA50.bmp	"That gamble doesn't sound too good"	0	safe					3	0	3	0	0	0	0	8													1668.785866	None	1668.785866	None	1668.785866	None	left	1.421272705	1668.785866	None	1668.785866	None	1668.785866	None	return	2.669031521	1668.785866	None	1671.509689	None	1673.514979	1675.035651	1675.018932	None	1676.50619	None	2	1678.528189	None	1678.528189	None	1678.528189	None	None	None	None	None	1678.929246	None	1678.929246	None	left	1678.929246	None	1679.530816	1680.934515	None	None	0.214952199	0.557892004													112	1	20	1	2020_Feb_04_1210	Test	3.2.4	59.8323235		Pictures/IA75_G15.bmp	Pictures/IA75_G15.bmp	Pictures/IA75.bmp	"Take a chance!"""""	1	risk					3	0	3	0	0	1	1	12																															1680.951239	None	1682.973232	1684.493903	1684.477187	None	1685.981155	None	2	1688.003141	None	1688.003141	None	1688.003141	None	None	None	None	None	1688.387505	None	1688.387505	None	left	1688.387505	None	1689.156176	1690.392777	None	None	0.2200023	0.72363092													112	1	20	1	2020_Feb_04_1210	Test	3.2.4	59.8323235		Pictures/IA50_G10.bmp	Pictures/IA50_G10.bmp	Pictures/IA50.bmp	"Go with the safe option here!"""""	0	safe					3	0	3	0	0	2	2	16																															1690.409476	None	1692.431471	1693.952143	1693.935448	None	1695.456112	None	2	1697.461393	None	1697.461393	None	1697.461393	None	None	None	None	None	1698.330359	None	1698.330359	None	left	1698.330359	None	1698.948652	1700.318921	None	None	0.689763055	0.580774635													112	1	20	1	2020_Feb_04_1210	Test	3.2.4	59.8323235		Pictures/IA50_G20.bmp	Pictures/IA50_G20.bmp	Pictures/IA50.bmp	"Let's venture and take a risk!"""""	1	risk					3	0	3	0	0	3	3	6																															1700.335639	None	1702.357634	1703.878306	1703.861588	None	1705.382274	None	2	1707.387556	None	1707.387556	None	1707.387556	None	None	None	None	None	1707.755188	None	1707.755188	None	left	1707.755188	None	1708.055969	1709.76047	None	None	0.203589836	0.251951822													112	1	20	1	2020_Feb_04_1210	Test	3.2.4	59.8323235		Pictures/IA100_L80.bmp	Pictures/IA100_L80.bmp	Pictures/IA100.bmp	"Go all in!"""""	1	risk					3	0	3	0	0	4	4	2																															1709.777169	None	1711.799167	1713.319839	1713.303168	None	1714.807089	None	2	1716.829095	None	1716.829095	None	1716.829095	None	None	None	None	None	1717.230111	None	1717.230111	None	left	1717.230111	None	1717.51422	1719.218721	None	None	0.258057885	0.241023105													112	1	20	1	2020_Feb_04_1210	Test	3.2.4	59.8323235		Pictures/IA25_G20.bmp	Pictures/IA25_G20.bmp	Pictures/IA25.bmp	"I wouldn't gamble for this one. """""	0	safe					3	0	3	0	0	5	5	3																															1719.235429	None	1721.257418	1722.778086	1722.761391	None	1724.298767	None	2	1726.287349	None	1726.287349	None	1726.287349	None	None	None	None	None	1726.771958	None	1726.771958	None	right	1726.771958	None	None	None	1727.056039	1728.760515	0.271799065	0.243177579													112	1	20	1	2020_Feb_04_1210	Test	3.2.4	59.8323235		Pictures/IA80_40_G95p.bmp	Pictures/IA80_40_G95p.bmp	Pictures/IA80.bmp	"Think of the payoff"	1	risk					3	0	3	0	0	6	6	1																															1728.777237	None	1730.799231	1732.319904	1732.303189	None	1733.924132	None	2	1735.829153	None	1735.829153	None	1735.829153	None	None	None	None	None	1736.530996	None	1736.530996	None	left	1736.530996	None	1736.781649	1738.519558	None	None	0.521990946	0.212130856													112	1	20	1	2020_Feb_04_1210	Test	3.2.4	59.8323235		Pictures/IA100_G60.bmp	Pictures/IA100_G60.bmp	Pictures/IA100.bmp	"Be cautious"	0	safe					3	0	3	0	0	7	7	18																															1738.536283	None	1740.558304	1742.062225	1742.045531	None	1743.582912	None	2	1745.588236	None	1745.588236	None	1745.588236	None	None	None	None	None	1746.524017	None	1746.524017	None	left	1746.524017	None	1746.808111	1748.512563	None	None	0.722896346	0.243151602													112	1	20	1	2020_Feb_04_1210	Test	3.2.4	59.8323235		Pictures/IA80_40_L95p.bmp	Pictures/IA80_40_L95p.bmp	Pictures/IA80.bmp	"Let's stay with the certain option."""""	0	safe					3	0	3	0	0	8	8	19																															1748.529286	None	1750.551262	1752.07193	1752.055247	None	1753.575893	None	2	1755.58118	None	1755.58118	None	1755.58118	None	None	None	None	None	1756.299742	None	1756.299742	None	right	1756.299742	None	None	None	1756.400017	1758.305019	0.505974309	0.059387283													112	1	20	1	2020_Feb_04_1210	Test	3.2.4	59.8323235		Pictures/IA25_G10.bmp	Pictures/IA25_G10.bmp	Pictures/IA25.bmp	"What's life without a little risk?"""""	1	risk					3	0	3	0	0	9	9	11																															1758.321742	None	1760.343735	1761.847685	1761.830989	None	1763.385083	None	2	1765.373641	None	1765.373641	None	1765.373641	None	None	None	None	None	1766.242617	None	1766.242617	None	right	1766.242617	None	None	None	1767.445769	None	0.697495432	1.156525017													112	1	20	1	2020_Feb_04_1210	Test	3.2.4	59.8323235		Pictures/IA100_L20.bmp	Pictures/IA100_L20.bmp	Pictures/IA100.bmp	"Try to win as much money as you can"	1	risk					3	0	3	0	0	10	10	0																															1768.264607	None	1770.286598	1771.807268	1771.790549	None	1773.311234	None	2	1775.316517	None	1775.316517	None	1775.316517	None	None	None	None	None	1776.068499	None	1776.068499	None	right	1776.068499	None	None	None	1776.185471	1778.057066	0.570630315	0.082633818													112	1	20	1	2020_Feb_04_1210	Test	3.2.4	59.8323235		Pictures/IA50_L20.bmp	Pictures/IA50_L20.bmp	Pictures/IA50.bmp	"Certainty is boring"	1	risk					3	0	3	0	0	11	11	13																															1778.073769	None	1780.095763	1781.616434	1781.599738	None	1783.18724	None	2	1785.125684	None	1785.125684	None	1785.125684	None	None	None	None	None	1786.679781	None	1786.679781	None	right	1786.679781	None	None	None	1787.481899	1788.685067	1.385450722	0.759350951													112	1	20	1	2020_Feb_04_1210	Test	3.2.4	59.8323235		Pictures/IA100_L60.bmp	Pictures/IA100_L60.bmp	Pictures/IA100.bmp	"You'd have a lot to lose"	0	safe					3	0	3	0	0	12	12	9																															1788.701768	None	1790.723763	1792.244447	1792.227743	None	1793.765147	None	2	1795.753696	None	1795.753696	None	1795.753696	None	None	None	None	None	1796.80647	None	1796.80647	None	right	1796.80647	None	None	None	1797.073825	1798.811736	0.869443791	0.224667786													112	1	20	1	2020_Feb_04_1210	Test	3.2.4	59.8323235		Pictures/IA40_20_G95p.bmp	Pictures/IA40_20_G95p.bmp	Pictures/IA40.bmp	"Hold back"	0	safe					3	0	3	0	0	13	13	5																															1798.828459	None	1800.850456	1802.371157	1802.354407	None	1803.8918	None	2	1805.880363	None	1805.880363	None	1805.880363	None	None	None	None	None	1806.649066	None	1806.649066	None	left	1806.649066	None	1806.799458	1808.637623	None	None	0.590779068	0.110059358													112	1	20	1	2020_Feb_04_1210	Test	3.2.4	59.8323235		Pictures/IA75_G45.bmp	Pictures/IA75_G45.bmp	Pictures/IA75.bmp	"Don't gamble for this one."""""	0	safe					3	0	3	0	0	14	14	15																															1808.654344	None	1810.676339	1812.197012	1812.180299	None	1813.700976	None	2	1815.706263	None	1815.706263	None	1815.706263	None	None	None	None	None	1816.7256	None	1816.7256	None	left	1816.7256	None	1818.363257	None	None	None	0.868879388	1.601527863													112	1	20	1	2020_Feb_04_1210	Test	3.2.4	59.8323235		Pictures/IA75_L45.bmp	Pictures/IA75_L45.bmp	Pictures/IA75.bmp	"Don't gamble for this one"	0	safe					3	0	3	0	0	15	15	10																															1818.747608	None	1820.769598	1822.290269	1822.273554	None	1824.061608	None	2	1825.799519	None	1825.799519	None	1825.799519	None	None	None	None	None	1826.651766	None	1826.651766	None	left	1826.651766	None	1826.752015	1828.657044	None	None	0.679616786	0.051355242													112	1	20	1	2020_Feb_04_1210	Test	3.2.4	59.8323235		Pictures/IA25_L10.bmp	Pictures/IA25_L10.bmp	Pictures/IA25.bmp	"Dont be afraid to take the risk!"""""	1	risk					3	0	3	0	0	16	16	4																															1828.673744	None	1830.695742	1832.21641	1832.199717	None	1833.737084	None	2	1835.725671	None	1835.725671	None	1835.725671	None	None	None	None	None	1836.477655	None	1836.477655	None	right	1836.477655	None	None	None	1836.527782	1838.466219	0.577469776	0.001482281													112	1	20	1	2020_Feb_04_1210	Test	3.2.4	59.8323235		Pictures/IA50_G30.bmp	Pictures/IA50_G30.bmp	Pictures/IA50.bmp	"I think you should gamble."""""	1	risk					3	0	3	0	0	17	17	14																															1838.48292	None	1840.504915	1842.025586	1842.008891	None	1843.546265	None	2	1845.534848	None	1845.534848	None	1845.534848	None	None	None	None	None	1846.236692	None	1846.236692	None	left	1846.236692	None	1846.504065	1848.241989	None	None	0.520290201	0.218431895													112	1	20	1	2020_Feb_04_1210	Test	3.2.4	59.8323235		Pictures/IA50_G40.bmp	Pictures/IA50_G40.bmp	Pictures/IA50.bmp	"It would probably be best to play it safe."""""	0	safe					3	0	3	0	0	18	18	17																															1848.258676	None	1850.28067	1851.801342	1851.784646	None	1853.322016	None	2	1855.310602	None	1855.310602	None	1855.310602	None	None	None	None	None	1856.363365	None	1856.363365	None	right	1856.363365	None	None	None	1856.898117	1858.368653	0.864537507	0.499762961													112	1	20	1	2020_Feb_04_1210	Test	3.2.4	59.8323235		Pictures/IA25_G5.bmp	Pictures/IA25_G5.bmp	Pictures/IA25.bmp	"Let's stay with the certain option."""""	0	safe					3	0	3	0	0	19	19	7																															1858.385356	None	1860.407349	1861.928024	1861.911324	None	1863.415274	None	2	1865.437281	None	1865.437281	None	1865.437281	None	None	None	None	None	1866.222685	None	1866.222685	None	left	1866.222685	None	1867.258744	None	None	None	0.569861059	0.992441851													112	1	20	1	2020_Feb_04_1210	Test	3.2.4	59.8323235		Pictures/IA75_L15.bmp	Pictures/IA75_L15.bmp	Pictures/IA75.bmp	"Trust me"	1	risk					4	0	4	0	0	0	0	15													1872.071414	None	1872.071414	None	1872.071414	None	left	0.815719482	1872.071414	None	1872.071414	None	1872.071414	None	return	1.895504488	1872.071414	None	1874.009862	None	1876.015137	1877.53581	1877.519115	None	1879.056482	None	2	1881.045074	None	1881.045074	None	1881.045074	None	None	None	None	None	1881.76362	None	1881.76362	None	right	1881.76362	None	None	None	1882.532316	1883.768898	0.562066174	0.723517461													112	1	20	1	2020_Feb_04_1210	Test	3.2.4	59.8323235		Pictures/IA25_G20.bmp	Pictures/IA25_G20.bmp	Pictures/IA25.bmp	"I wouldn't gamble for this one. """""	0	safe					4	0	4	0	0	1	1	5																															1883.785616	None	1885.807617	1887.328284	1887.311568	None	1888.848959	None	2	1890.837524	None	1890.837524	None	1890.837524	None	None	None	None	None	1891.305433	None	1891.305433	None	left	1891.305433	None	1891.539368	1893.310718	None	None	0.297629147	0.197701462													112	1	20	1	2020_Feb_04_1210	Test	3.2.4	59.8323235		Pictures/IA75_G15.bmp	Pictures/IA75_G15.bmp	Pictures/IA75.bmp	"Take a chance!"""""	1	risk					4	0	4	0	0	2	2	17																															1893.327422	None	1895.349408	1896.870079	1896.853381	None	1898.374042	None	2	1900.379329	None	1900.379329	None	1900.379329	None	None	None	None	None	1901.047755	None	1901.047755	None	left	1901.047755	None	1901.198149	1903.053045	None	None	0.515810662	0.111371283													112	1	20	1	2020_Feb_04_1210	Test	3.2.4	59.8323235		Pictures/IA25_G5.bmp	Pictures/IA25_G5.bmp	Pictures/IA25.bmp	"Let's stay with the certain option."""""	0	safe					4	0	4	0	0	3	3	14																															1903.069747	None	1905.091741	1906.61242	1906.595716	None	1908.099665	None	2	1910.121678	None	1910.121678	None	1910.121678	None	None	None	None	None	1910.957194	None	1910.957194	None	right	1910.957194	None	None	None	1912.477868	None	0.661466903	1.481934054													112	1	20	1	2020_Feb_04_1210	Test	3.2.4	59.8323235		Pictures/IA25_L10.bmp	Pictures/IA25_L10.bmp	Pictures/IA25.bmp	"Dont be afraid to take the risk!"""""	1	risk					4	0	4	0	0	4	4	19																															1912.962491	None	1914.984482	1916.488432	1916.471734	None	1917.992413	None	2	1920.014391	None	1920.014391	None	1920.014391	None	None	None	None	None	1920.448879	None	1920.448879	None	left	1920.448879	None	1922.086515	None	None	None	0.264755737	1.598247263													112	1	20	1	2020_Feb_04_1210	Test	3.2.4	59.8323235		Pictures/IA80_40_L95p.bmp	Pictures/IA80_40_L95p.bmp	Pictures/IA80.bmp	"Let's stay with the certain option."""""	0	safe					4	0	4	0	0	5	5	18																															1922.470863	None	1924.492856	1926.013524	1925.996829	None	1927.534202	None	2	1929.522787	None	1929.522787	None	1929.522787	None	None	None	None	None	1930.475297	None	1930.475297	None	right	1930.475297	None	None	None	1930.625688	1932.480573	0.780357246	0.115834491													112	1	20	1	2020_Feb_04_1210	Test	3.2.4	59.8323235		Pictures/IA100_G20.bmp	Pictures/IA100_G20.bmp	Pictures/IA100.bmp	"Go ahead and gamble!"""""	1	risk					4	0	4	0	0	6	6	12																															1932.497274	None	1934.51927	1936.039941	1936.023246	None	1937.560617	None	2	1939.549201	None	1939.549201	None	1939.549201	None	None	None	None	None	1940.234337	None	1940.234337	None	left	1940.234337	None	1940.434866	1942.222908	None	None	0.52993918	0.164785985													112	1	20	1	2020_Feb_04_1210	Test	3.2.4	59.8323235		Pictures/IA75_L30.bmp	Pictures/IA75_L30.bmp	Pictures/IA75.bmp	"Hold back"	0	safe					4	0	4	0	0	7	7	1																															1942.239619	None	1944.261603	1945.782275	1945.765578	None	1947.369794	None	2	1949.291535	None	1949.291535	None	1949.291535	None	None	None	None	None	1949.993374	None	1949.993374	None	right	1949.993374	None	None	None	1950.076927	1951.981959	0.523607848	0.045759391													112	1	20	1	2020_Feb_04_1210	Test	3.2.4	59.8323235		Pictures/IA25_G10.bmp	Pictures/IA25_G10.bmp	Pictures/IA25.bmp	"What's life without a little risk?"""""	1	risk					4	0	4	0	0	8	8	4																															1951.998652	None	1954.020648	1955.524621	1955.5079	None	1957.028573	None	2	1959.050581	None	1959.050581	None	1959.050581	None	None	None	None	None	1959.802558	None	1959.802558	None	left	1959.802558	None	1959.986376	1961.807835	None	None	0.580552267	0.148570341													112	1	20	1	2020_Feb_04_1210	Test	3.2.4	59.8323235		Pictures/IA50_L10.bmp	Pictures/IA50_L10.bmp	Pictures/IA50.bmp	"Play it safe"	0	safe					4	0	4	0	0	9	9	9																															1961.82455	None	1963.846549	1965.367216	1965.350499	None	1966.887895	None	2	1968.876457	None	1968.876457	None	1968.876457	None	None	None	None	None	1969.544895	None	1969.544895	None	left	1969.544895	None	1969.645145	1971.550174	None	None	0.490682914	0.05424101													112	1	20	1	2020_Feb_04_1210	Test	3.2.4	59.8323235		Pictures/IA25_L20.bmp	Pictures/IA25_L20.bmp	Pictures/IA25.bmp	"Don't be tempted to gamble."""""	0	safe					4	0	4	0	0	10	10	0																															1971.566873	None	1973.588869	1975.09284	1975.076121	None	1976.630215	None	2	1978.6188	None	1978.6188	None	1978.6188	None	None	None	None	None	1979.621441	None	1979.621441	None	left	1979.621441	None	1979.738413	1981.610008	None	None	0.812349706	0.073695693													112	1	20	1	2020_Feb_04_1210	Test	3.2.4	59.8323235		Pictures/IA75_G45.bmp	Pictures/IA75_G45.bmp	Pictures/IA75.bmp	"Don't gamble for this one."""""	0	safe					4	0	4	0	0	11	11	11																															1981.626711	None	1983.648711	1985.169377	1985.15268	None	1986.690063	None	2	1988.678636	None	1988.678636	None	1988.678636	None	None	None	None	None	1989.413897	None	1989.413897	None	left	1989.413897	None	1990.449967	None	None	None	0.560515482	1.001240216													112	1	20	1	2020_Feb_04_1210	Test	3.2.4	59.8323235		Pictures/IA25_G15.bmp	Pictures/IA25_G15.bmp	Pictures/IA25.bmp	"I think you should take a gamble."""""	1	risk					4	0	4	0	0	12	12	7																															1991.435896	None	1993.457892	1994.978565	1994.961847	None	1996.499239	None	2	1998.487805	None	1998.487805	None	1998.487805	None	None	None	None	None	1999.557298	None	1999.557298	None	left	1999.557298	None	1999.690969	2001.562566	None	None	0.887348014	0.089840821													112	1	20	1	2020_Feb_04_1210	Test	3.2.4	59.8323235		Pictures/IA75_L45.bmp	Pictures/IA75_L45.bmp	Pictures/IA75.bmp	"Don't gamble for this one"	0	safe					4	0	4	0	0	13	13	13																															2001.579288	None	2003.601282	2005.121972	2005.105237	None	2006.642629	None	2	2008.63121	None	2008.63121	None	2008.63121	None	None	None	None	None	2009.583702	None	2009.583702	None	left	2009.583702	None	2010.252152	2011.588992	None	None	0.783908587	0.631424685													112	1	20	1	2020_Feb_04_1210	Test	3.2.4	59.8323235		Pictures/IA75_G60.bmp	Pictures/IA75_G60.bmp	Pictures/IA75.bmp	"Make it exciting"	1	risk					4	0	4	0	0	14	14	3																															2011.605691	None	2013.627688	2015.148358	2015.131662	None	2016.669035	None	2	2018.657626	None	2018.657626	None	2018.657626	None	None	None	None	None	2019.509864	None	2019.509864	None	left	2019.509864	None	2019.626836	2021.498395	None	None	0.645514343	0.073269774													112	1	20	1	2020_Feb_04_1210	Test	3.2.4	59.8323235		Pictures/IA75_L60.bmp	Pictures/IA75_L60.bmp	Pictures/IA75.bmp	"Why not take the gamble?"""""	1	risk					4	0	4	0	0	15	15	10																															2021.515133	None	2023.537125	2025.0578	2025.041103	None	2026.595186	None	2	2028.56705	None	2028.56705	None	2028.56705	None	None	None	None	None	2029.887203	None	2029.887203	None	left	2029.887203	None	2030.672603	2031.875764	None	None	1.168091174	0.743933966													112	1	20	1	2020_Feb_04_1210	Test	3.2.4	59.8323235		Pictures/IA100_L40.bmp	Pictures/IA100_L40.bmp	Pictures/IA100.bmp	"Think of the payoff"	1	risk					4	0	4	0	0	16	16	6																															2031.892483	None	2033.914478	2035.435153	2035.418437	None	2036.939115	None	2	2038.944401	None	2038.944401	None	2038.944401	None	None	None	None	None	2039.830058	None	2039.830058	None	left	2039.830058	None	2041.584676	None	None	None	0.69473781	1.70508234													112	1	20	1	2020_Feb_04_1210	Test	3.2.4	59.8323235		Pictures/IA110_55_L95p.bmp	Pictures/IA110_55_L95p.bmp	Pictures/IA110.bmp	"Trust me"	1	risk					4	0	4	0	0	17	17	2																															2041.852057	None	2043.874051	2045.394723	2045.378008	None	2046.915398	None	2	2048.903961	None	2048.903961	None	2048.903961	None	None	None	None	None	2049.655955	None	2049.655955	None	right	2049.655955	None	None	None	2049.856468	2051.661224	0.599175621	0.15117183													112	1	20	1	2020_Feb_04_1210	Test	3.2.4	59.8323235		Pictures/IA50_L20.bmp	Pictures/IA50_L20.bmp	Pictures/IA50.bmp	"Certainty is boring"	1	risk					4	0	4	0	0	18	18	8																															2051.677902	None	2053.699944	2055.220613	2055.203896	None	2056.707866	None	2	2058.729849	None	2058.729849	None	2058.729849	None	None	None	None	None	2059.632225	None	2059.632225	None	left	2059.632225	None	2060.517894	2061.620804	None	None	0.741295695	0.838909524													112	1	20	1	2020_Feb_04_1210	Test	3.2.4	59.8323235		Pictures/IA25_L15.bmp	Pictures/IA25_L15.bmp	Pictures/IA25.bmp	"There's not much on the line here"	1	risk					4	0	4	0	0	19	19	16																															2061.637506	None	2063.659511	2065.163464	2065.146769	None	2066.684148	None	2	2068.689433	None	2068.689433	None	2068.689433	None	None	None	None	None	2069.692062	None	2069.692062	None	left	2069.692062	None	2070.343778	2071.680596	None	None	0.821713575	0.611075333													112	1	20	1	2020_Feb_04_1210	Test	3.2.4	59.8323235		Pictures/IA25_G15.bmp	Pictures/IA25_G15.bmp	Pictures/IA25.bmp	"I think you should take a gamble."""""	1	risk					5	0	5	0	0	0	0	12													2076.560136	None	2076.560136	None	2076.560136	None	left	0.846995179	2076.560136	None	2076.560136	None	2076.560136	None	return	1.438794269	2076.560136	None	2078.064138	None	2080.069403	2081.590072	2081.57334	None	2083.094047	None	2	2085.082618	None	2085.082618	None	2085.082618	None	None	None	None	None	2086.118682	None	2086.118682	None	right	2086.118682	None	None	None	2087.004348	2088.107242	0.860525646	0.848453506													112	1	20	1	2020_Feb_04_1210	Test	3.2.4	59.8323235		Pictures/IA75_G30.bmp	Pictures/IA75_G30.bmp	Pictures/IA75.bmp	"Be bold"	1	risk					5	0	5	0	0	1	1	19																															2088.123963	None	2090.145964	2091.66664	2091.649912	None	2093.170608	None	2	2095.175881	None	2095.175881	None	2095.175881	None	None	None	None	None	2096.21194	None	2096.21194	None	left	2096.21194	None	2097.248001	None	None	None	0.879243126	0.987197834													112	1	20	1	2020_Feb_04_1210	Test	3.2.4	59.8323235		Pictures/IA50_G40.bmp	Pictures/IA50_G40.bmp	Pictures/IA50.bmp	"It would probably be best to play it safe."""""	0	safe					5	0	5	0	0	2	2	1																															2098.233935	None	2100.25592	2101.77659	2101.759892	None	2103.263842	None	2	2105.285851	None	2105.285851	None	2105.285851	None	None	None	None	None	2106.004409	None	2106.004409	None	right	2106.004409	None	None	None	2107.1073	None	0.505295177	1.066724294													112	1	20	1	2020_Feb_04_1210	Test	3.2.4	59.8323235		Pictures/IA20_10_G95p.bmp	Pictures/IA20_10_G95p.bmp	Pictures/IA20.bmp	"Take a leap"	1	risk					5	0	5	0	0	3	3	4																															2108.026387	None	2110.065095	2111.58573	2111.56907	None	2113.12316	None	2	2115.078303	None	2115.078303	None	2115.078303	None	None	None	None	None	2115.72999	None	2115.72999	None	left	2115.72999	None	2115.947258	2117.718601	None	None	0.480831017	0.173145032													112	1	20	1	2020_Feb_04_1210	Test	3.2.4	59.8323235		Pictures/IA100_G80.bmp	Pictures/IA100_G80.bmp	Pictures/IA100.bmp	"Why not gamble?"""""	1	risk					5	0	5	0	0	4	4	6																															2117.735302	None	2119.757296	2121.277974	2121.261275	None	2122.781933	None	2	2124.787218	None	2124.787218	None	2124.787218	None	None	None	None	None	2125.12143	None	2125.12143	None	left	2125.12143	None	2125.305245	2127.110002	None	None	0.171922806	0.141720772													112	1	20	1	2020_Feb_04_1210	Test	3.2.4	59.8323235		Pictures/IA25_G20.bmp	Pictures/IA25_G20.bmp	Pictures/IA25.bmp	"I wouldn't gamble for this one. """""	0	safe					5	0	5	0	0	5	5	14																															2127.126724	None	2129.14872	2130.669389	2130.652671	None	2132.15664	None	2	2134.178627	None	2134.178627	None	2134.178627	None	None	None	None	None	2134.980753	None	2134.980753	None	left	2134.980753	None	2135.081003	2136.986028	None	None	0.628514124	0.050382925													112	1	20	1	2020_Feb_04_1210	Test	3.2.4	59.8323235		Pictures/IA110_55_L95p.bmp	Pictures/IA110_55_L95p.bmp	Pictures/IA110.bmp	"Trust me"	1	risk					5	0	5	0	0	6	6	17																															2137.002728	None	2139.024729	2140.545396	2140.528699	None	2142.049362	None	2	2144.054645	None	2144.054645	None	2144.054645	None	None	None	None	None	2144.856758	None	2144.856758	None	right	2144.856758	None	None	None	2144.923611	2146.862049	0.648491528	0.030376473													112	1	20	1	2020_Feb_04_1210	Test	3.2.4	59.8323235		Pictures/IA75_L15.bmp	Pictures/IA75_L15.bmp	Pictures/IA75.bmp	"Trust me"	1	risk					5	0	5	0	0	7	7	3																															2146.878752	None	2148.900746	2150.421414	2150.404719	None	2151.908669	None	2	2153.930674	None	2153.930674	None	2153.930674	None	None	None	None	None	2154.716071	None	2154.716071	None	left	2154.716071	None	2155.768839	None	None	None	0.660468291	1.003069582													112	1	20	1	2020_Feb_04_1210	Test	3.2.4	59.8323235		Pictures/IA25_L20.bmp	Pictures/IA25_L20.bmp	Pictures/IA25.bmp	"Don't be tempted to gamble."""""	0	safe					5	0	5	0	0	8	8	9																															2156.721357	None	2158.743352	2160.264026	2160.247316	None	2161.751283	None	2	2163.773266	None	2163.773266	None	2163.773266	None	None	None	None	None	2165.026566	None	2165.026566	None	left	2165.026566	None	2165.344065	2167.015158	None	None	1.049885978	0.276572252													112	1	20	1	2020_Feb_04_1210	Test	3.2.4	59.8323235		Pictures/IA25_L10.bmp	Pictures/IA25_L10.bmp	Pictures/IA25.bmp	"Dont be afraid to take the risk!"""""	1	risk					5	0	5	0	0	9	9	18																															2167.031855	None	2169.053865	2170.574521	2170.557808	None	2172.078484	None	2	2174.083773	None	2174.083773	None	2174.083773	None	None	None	None	None	2174.551658	None	2174.551658	None	left	2174.551658	None	2174.66863	2176.540227	None	None	0.299366444	0.071479801													112	1	20	1	2020_Feb_04_1210	Test	3.2.4	59.8323235		Pictures/IA100_G20.bmp	Pictures/IA100_G20.bmp	Pictures/IA100.bmp	"Go ahead and gamble!"""""	1	risk					5	0	5	0	0	10	10	2																															2176.556951	None	2178.57894	2180.099621	2180.082904	None	2181.586877	None	2	2183.608855	None	2183.608855	None	2183.608855	None	None	None	None	None	2184.444399	None	2184.444399	None	right	2184.444399	None	None	None	2186.132177	None	0.686294416	1.650736393													112	1	20	1	2020_Feb_04_1210	Test	3.2.4	59.8323235		Pictures/IA25_G10.bmp	Pictures/IA25_G10.bmp	Pictures/IA25.bmp	"What's life without a little risk?"""""	1	risk					5	0	5	0	0	11	11	16																															2186.449681	None	2188.471673	2189.992347	2189.975629	None	2191.496311	None	2	2193.501596	None	2193.501596	None	2193.501596	None	None	None	None	None	2193.752256	None	2193.752256	None	left	2193.752256	None	2195.573718	None	None	None	0.073546157	1.782875776													112	1	20	1	2020_Feb_04_1210	Test	3.2.4	59.8323235		Pictures/IA50_L20.bmp	Pictures/IA50_L20.bmp	Pictures/IA50.bmp	"Certainty is boring"	1	risk					5	0	5	0	0	12	12	10																															2195.757537	None	2197.779531	2199.300202	2199.283516	None	2200.804164	None	2	2202.809452	None	2202.809452	None	2202.809452	None	None	None	None	None	2203.644994	None	2203.644994	None	right	2203.644994	None	None	None	2204.480507	2205.65027	0.677685519	0.802138501													112	1	20	1	2020_Feb_04_1210	Test	3.2.4	59.8323235		Pictures/IA50_L40.bmp	Pictures/IA50_L40.bmp	Pictures/IA50.bmp	"That gamble doesn't sound too good"	0	safe					5	0	5	0	0	13	13	5																															2205.666965	None	2207.688968	2209.209632	2209.192938	None	2210.713594	None	2	2212.71888	None	2212.71888	None	2212.71888	None	None	None	None	None	2213.671407	None	2213.671407	None	left	2213.671407	None	2213.821797	2215.659958	None	None	0.768262504	0.10373332													112	1	20	1	2020_Feb_04_1210	Test	3.2.4	59.8323235		Pictures/IA40_20_L95p.bmp	Pictures/IA40_20_L95p.bmp	Pictures/IA40.bmp	"Trust me"	1	risk					5	0	5	0	0	14	14	13																															2215.676685	None	2217.698677	2219.219348	2219.20263	None	2220.723313	None	2	2222.728598	None	2222.728598	None	2222.728598	None	None	None	None	None	2223.129653	None	2223.129653	None	right	2223.129653	None	None	None	2223.397012	2225.134945	0.238542838	0.229490927													112	1	20	1	2020_Feb_04_1210	Test	3.2.4	59.8323235		Pictures/IA100_L40.bmp	Pictures/IA100_L40.bmp	Pictures/IA100.bmp	"Think of the payoff"	1	risk					5	0	5	0	0	15	15	7																															2225.151648	None	2227.173638	2228.69431	2228.677594	None	2230.198277	None	2	2232.203561	None	2232.203561	None	2232.203561	None	None	None	None	None	2232.972253	None	2232.972253	None	right	2232.972253	None	None	None	2233.022381	2234.96082	0.603587624	0.002900017													112	1	20	1	2020_Feb_04_1210	Test	3.2.4	59.8323235		Pictures/IA100_L60.bmp	Pictures/IA100_L60.bmp	Pictures/IA100.bmp	"You'd have a lot to lose"	0	safe					5	0	5	0	0	16	16	15																															2234.977537	None	2236.99952	2238.520188	2238.503492	None	2240.024151	None	2	2242.029437	None	2242.029437	None	2242.029437	None	None	None	None	None	2243.098934	None	2243.098934	None	right	2243.098934	None	None	None	2243.215905	2245.08749	0.897705891	0.068204849													112	1	20	1	2020_Feb_04_1210	Test	3.2.4	59.8323235		Pictures/IA50_L10.bmp	Pictures/IA50_L10.bmp	Pictures/IA50.bmp	"Play it safe"	0	safe					5	0	5	0	0	17	17	0																															2245.104213	None	2247.126207	2248.646878	2248.630161	None	2250.134132	None	2	2252.156118	None	2252.156118	None	2252.156118	None	None	None	None	None	2253.225605	None	2253.225605	None	right	2253.225605	None	None	None	2253.693508	2255.230906	0.915033822	0.421531123													112	1	20	1	2020_Feb_04_1210	Test	3.2.4	59.8323235		Pictures/IA75_G15.bmp	Pictures/IA75_G15.bmp	Pictures/IA75.bmp	"Take a chance!"""""	1	risk					5	0	5	0	0	18	18	11																															2255.247593	None	2257.269587	2258.790264	2258.773563	None	2260.310934	None	2	2262.299519	None	2262.299519	None	2262.299519	None	None	None	None	None	2263.536111	None	2263.536111	None	left	2263.536111	None	2264.37163	2265.541393	None	None	1.07563188	0.799017169													112	1	20	1	2020_Feb_04_1210	Test	3.2.4	59.8323235		Pictures/IA25_L15.bmp	Pictures/IA25_L15.bmp	Pictures/IA25.bmp	"There's not much on the line here"	1	risk					5	0	5	0	0	19	19	8																															2265.558095	None	2267.580086	2269.100755	2269.084063	None	2270.588012	None	2	2272.610018	None	2272.610018	None	2272.610018	None	None	None	None	None	2273.428845	None	2273.428845	None	left	2273.428845	None	2275.0832	None	None	None	0.645120059	1.610286909													112	1	20	1	2020_Feb_04_1210	Test	3.2.4	59.8323235		Pictures/IA100_L40.bmp	Pictures/IA100_L40.bmp	Pictures/IA100.bmp	"Think of the payoff"	1	risk					6	0	6	0	0	0	0	13													2293.732331	None	2293.732331	None	2293.732331	None	left	2.17080105	2293.732331	None	2293.732331	None	2293.732331	None	return	3.098680643	2293.732331	None	2296.873927	None	2298.895929	2300.416595	2300.399898	None	2301.887148	None	2	2303.909139	None	2303.909139	None	2303.909139	None	None	None	None	None	2304.711258	None	2304.711258	None	None	2304.711258	None	None	None	None	None	0.6340011														112	1	20	1	2020_Feb_04_1210	Test	3.2.4	59.8323235		Pictures/IA80_40_G95p.bmp	Pictures/IA80_40_G95p.bmp	Pictures/IA80.bmp	"Think of the payoff"	1	risk					6	0	6	0	0	1	1	3																															2306.71654	None	2308.738537	2310.259204	2310.242499	None	2311.763169	None	2	2313.768454	None	2313.768454	None	2313.768454	None	None	None	None	None	2314.453591	None	2314.453591	None	left	2314.453591	None	2314.73767	2316.442153	None	None	0.550697008	0.249536337													112	1	20	1	2020_Feb_04_1210	Test	3.2.4	59.8323235		Pictures/IA20_10_L95p.bmp	Pictures/IA20_10_L95p.bmp	Pictures/IA20.bmp	"Don't be tempted to gamble."""""	0	safe					6	0	6	0	0	2	2	8																															2316.458871	None	2318.480867	2320.001537	2319.984822	None	2321.555633	None	2	2323.510776	None	2323.510776	None	2323.510776	None	None	None	None	None	2324.429871	None	2324.429871	None	right	2324.429871	None	None	None	2324.546837	2326.418433	0.736368292	0.081262354													112	1	20	1	2020_Feb_04_1210	Test	3.2.4	59.8323235		Pictures/IA50_G10.bmp	Pictures/IA50_G10.bmp	Pictures/IA50.bmp	"Go with the safe option here!"""""	0	safe					6	0	6	0	0	3	3	11																															2326.435155	None	2328.457149	2329.977822	2329.961109	None	2331.498497	None	2	2333.48706	None	2333.48706	None	2333.48706	None	None	None	None	None	2334.038523	None	2334.038523	None	left	2334.038523	None	2334.155497	2336.027091	None	None	0.392092763	0.080611355													112	1	20	1	2020_Feb_04_1210	Test	3.2.4	59.8323235		Pictures/IA100_G80.bmp	Pictures/IA100_G80.bmp	Pictures/IA100.bmp	"Why not gamble?"""""	1	risk					6	0	6	0	0	4	4	5																															2336.043793	None	2338.065785	2339.586461	2339.569762	None	2341.073714	None	2	2343.095723	None	2343.095723	None	2343.095723	None	None	None	None	None	2343.964675	None	2343.964675	None	left	2343.964675	None	2344.315598	2345.953232	None	None	0.671421849	0.306462853													112	1	20	1	2020_Feb_04_1210	Test	3.2.4	59.8323235		Pictures/IA25_L10.bmp	Pictures/IA25_L10.bmp	Pictures/IA25.bmp	"Dont be afraid to take the risk!"""""	1	risk					6	0	6	0	0	5	5	6																															2345.969956	None	2347.99195	2349.512622	2349.495905	None	2351.016587	None	2	2353.021871	None	2353.021871	None	2353.021871	None	None	None	None	None	2353.606737	None	2353.606737	None	left	2353.606737	None	2353.656863	2355.595302	None	None	0.38527791	0.016401294													112	1	20	1	2020_Feb_04_1210	Test	3.2.4	59.8323235		Pictures/IA25_L15.bmp	Pictures/IA25_L15.bmp	Pictures/IA25.bmp	"There's not much on the line here"	1	risk					6	0	6	0	0	6	6	0																															2355.612025	None	2357.634019	2359.154693	2359.137975	None	2360.641947	None	2	2362.663934	None	2362.663934	None	2362.663934	None	None	None	None	None	2363.399185	None	2363.399185	None	left	2363.399185	None	2363.549604	2365.404491	None	None	0.559206098	0.103953841													112	1	20	1	2020_Feb_04_1210	Test	3.2.4	59.8323235		Pictures/IA75_G60.bmp	Pictures/IA75_G60.bmp	Pictures/IA75.bmp	"Make it exciting"	1	risk					6	0	6	0	0	7	7	10																															2365.421195	None	2367.443187	2368.963859	2368.947161	None	2370.467822	None	2	2372.478567	None	2372.478567	None	2372.478567	None	None	None	None	None	2373.392205	None	2373.392205	None	left	2373.392205	None	2373.860102	2375.397513	None	None	0.728589472	0.422945549													112	1	20	1	2020_Feb_04_1210	Test	3.2.4	59.8323235		Pictures/IA75_L15.bmp	Pictures/IA75_L15.bmp	Pictures/IA75.bmp	"Trust me"	1	risk					6	0	6	0	0	8	8	2																															2375.414187	None	2377.436183	2378.956851	2378.940157	None	2380.460819	None	2	2382.466104	None	2382.466104	None	2382.466104	None	None	None	None	None	2383.3852	None	2383.3852	None	right	2383.3852	None	None	None	2384.538238	None	0.757040265	1.109937457													112	1	20	1	2020_Feb_04_1210	Test	3.2.4	59.8323235		Pictures/IA75_L60.bmp	Pictures/IA75_L60.bmp	Pictures/IA75.bmp	"Why not take the gamble?"""""	1	risk					6	0	6	0	0	9	9	17																															2385.390479	None	2387.412478	2388.933151	2388.916429	None	2390.437111	None	2	2392.442397	None	2392.442397	None	2392.442397	None	None	None	None	None	2394.197025	None	2394.197025	None	left	2394.197025	None	2394.748458	2396.185588	None	None	1.588731013	0.506109561													112	1	20	1	2020_Feb_04_1210	Test	3.2.4	59.8323235		Pictures/IA40_20_L95p.bmp	Pictures/IA40_20_L95p.bmp	Pictures/IA40.bmp	"Trust me"	1	risk					6	0	6	0	0	10	10	19																															2396.20229	None	2398.224282	2399.744956	2399.72826	None	2401.248919	None	2	2403.254204	None	2403.254204	None	2403.254204	None	None	None	None	None	2403.688684	None	2403.688684	None	right	2403.688684	None	None	None	2403.788956	2405.693962	0.272939584	0.054453188													112	1	20	1	2020_Feb_04_1210	Test	3.2.4	59.8323235		Pictures/IA50_L10.bmp	Pictures/IA50_L10.bmp	Pictures/IA50.bmp	"Play it safe"	0	safe					6	0	6	0	0	11	11	9																															2405.710684	None	2407.73268	2409.253352	2409.23664	None	2410.757316	None	2	2412.762601	None	2412.762601	None	2412.762601	None	None	None	None	None	2413.481162	None	2413.481162	None	right	2413.481162	None	None	None	2413.547989	2415.486429	0.548534806	0.021981362													112	1	20	1	2020_Feb_04_1210	Test	3.2.4	59.8323235		Pictures/IA110_55_L95p.bmp	Pictures/IA110_55_L95p.bmp	Pictures/IA110.bmp	"Trust me"	1	risk					6	0	6	0	0	12	12	4																															2415.50315	None	2417.525149	2419.045818	2419.029103	None	2420.549782	None	2	2422.555066	None	2422.555066	None	2422.555066	None	None	None	None	None	2422.989547	None	2422.989547	None	right	2422.989547	None	None	None	2423.073101	2424.994823	0.268076988	0.033589921													112	1	20	1	2020_Feb_04_1210	Test	3.2.4	59.8323235		Pictures/IA25_L20.bmp	Pictures/IA25_L20.bmp	Pictures/IA25.bmp	"Don't be tempted to gamble."""""	0	safe					6	0	6	0	0	13	13	7																															2425.011523	None	2427.033519	2428.554191	2428.537495	None	2430.058155	None	2	2432.063439	None	2432.063439	None	2432.063439	None	None	None	None	None	2432.447799	None	2432.447799	None	left	2432.447799	None	2432.614891	2434.453074	None	None	0.231702851	0.11933537													112	1	20	1	2020_Feb_04_1210	Test	3.2.4	59.8323235		Pictures/IA50_L40.bmp	Pictures/IA50_L40.bmp	Pictures/IA50.bmp	"That gamble doesn't sound too good"	0	safe					6	0	6	0	0	14	14	1																															2434.469776	None	2436.491772	2438.012446	2437.995747	None	2439.499697	None	2	2441.521707	None	2441.521707	None	2441.521707	None	None	None	None	None	2442.256973	None	2442.256973	None	left	2442.256973	None	2442.641316	2444.245555	None	None	0.54144697	0.342158864													112	1	20	1	2020_Feb_04_1210	Test	3.2.4	59.8323235		Pictures/IA40_20_G95p.bmp	Pictures/IA40_20_G95p.bmp	Pictures/IA40.bmp	"Hold back"	0	safe					6	0	6	0	0	15	15	18																															2444.262242	None	2446.284239	2447.804914	2447.788214	None	2449.308873	None	2	2451.31416	None	2451.31416	None	2451.31416	None	None	None	None	None	2451.782073	None	2451.782073	None	left	2451.782073	None	2451.982582	2453.787341	None	None	0.284974809	0.153074805													112	1	20	1	2020_Feb_04_1210	Test	3.2.4	59.8323235		Pictures/IA100_G20.bmp	Pictures/IA100_G20.bmp	Pictures/IA100.bmp	"Go ahead and gamble!"""""	1	risk					6	0	6	0	0	16	16	14																															2453.804066	None	2455.826055	2457.346727	2457.330007	None	2458.850688	None	2	2460.855977	None	2460.855977	None	2460.855977	None	None	None	None	None	2461.257031	None	2461.257031	None	left	2461.257031	None	2461.340584	2463.245601	None	None	0.239164368	0.046110994													112	1	20	1	2020_Feb_04_1210	Test	3.2.4	59.8323235		Pictures/IA75_L45.bmp	Pictures/IA75_L45.bmp	Pictures/IA75.bmp	"Don't gamble for this one"	0	safe					6	0	6	0	0	17	17	15																															2463.262313	None	2465.284327	2466.80498	2466.788262	None	2468.308945	None	2	2470.314228	None	2470.314228	None	2470.314228	None	None	None	None	None	2470.982643	None	2470.982643	None	right	2470.982643	None	None	None	2471.734622	2472.971224	0.492919203	0.704496802													112	1	20	1	2020_Feb_04_1210	Test	3.2.4	59.8323235		Pictures/IA100_L80.bmp	Pictures/IA100_L80.bmp	Pictures/IA100.bmp	"Go all in!"""""	1	risk					6	0	6	0	0	18	18	12																															2472.987924	None	2475.009923	2476.530591	2476.513896	None	2478.034558	None	2	2480.03984	None	2480.03984	None	2480.03984	None	None	None	None	None	2480.892096	None	2480.892096	None	right	2480.892096	None	None	None	2481.293145	2482.88066	0.687300915	0.363057394													112	1	20	1	2020_Feb_04_1210	Test	3.2.4	59.8323235		Pictures/IA80_40_L95p.bmp	Pictures/IA80_40_L95p.bmp	Pictures/IA80.bmp	"Let's stay with the certain option."""""	0	safe					6	0	6	0	0	19	19	16																															2482.897378	None	2484.919375	2486.440046	2486.42333	None	2487.944008	None	2	2489.949293	None	2489.949293	None	2489.949293	None	None	None	None	None	2490.467314	None	2490.467314	None	right	2490.467314	None	None	None	2490.517442	2492.455881	0.321853773	0.003822948													112	1	20	1	2020_Feb_04_1210	Test	3.2.4	59.8323235		Pictures/IA100_L20.bmp	Pictures/IA100_L20.bmp	Pictures/IA100.bmp	"Try to win as much money as you can"	1	risk					7	0	7	0	0	0	0	7													2495.747889	None	2495.747889	None	2495.747889	None	left	1.547247919	2495.747889	None	2495.747889	None	2495.747889	None	return	2.187018014	2495.747889	None	2497.970417	None	2499.992407	2501.513078	2501.496383	None	2503.017058	None	2	2505.005622	None	2505.005622	None	2505.005622	None	None	None	None	None	2505.473515	None	2505.473515	None	right	2505.473515	None	None	None	2505.824437	2507.462095	0.281510223	0.31760937													112	1	20	1	2020_Feb_04_1210	Test	3.2.4	59.8323235		Pictures/IA100_L60.bmp	Pictures/IA100_L60.bmp	Pictures/IA100.bmp	"You'd have a lot to lose"	0	safe					7	0	7	0	0	1	1	5																															2507.478796	None	2509.50079	2511.021464	2511.004767	None	2512.508715	None	2	2514.530723	None	2514.530723	None	2514.530723	None	None	None	None	None	2515.399684	None	2515.399684	None	right	2515.399684	None	None	None	2516.803364	None	0.684419033	1.359448534													112	1	20	1	2020_Feb_04_1210	Test	3.2.4	59.8323235		Pictures/IA25_G5.bmp	Pictures/IA25_G5.bmp	Pictures/IA25.bmp	"Let's stay with the certain option."""""	0	safe					7	0	7	0	0	2	2	1																															2517.421673	None	2519.443665	2520.964337	2520.947619	None	2522.468301	None	2	2524.473585	None	2524.473585	None	2524.473585	None	None	None	None	None	2525.309111	None	2525.309111	None	right	2525.309111	None	None	None	2526.278338	2527.314391	0.661555455	0.922034284													112	1	20	1	2020_Feb_04_1210	Test	3.2.4	59.8323235		Pictures/IA75_L30.bmp	Pictures/IA75_L30.bmp	Pictures/IA75.bmp	"Hold back"	0	safe					7	0	7	0	0	3	3	2																															2527.331109	None	2529.353105	2530.873778	2530.85706	None	2532.377743	None	2	2534.383028	None	2534.383028	None	2534.383028	None	None	None	None	None	2534.60026	None	2534.60026	None	right	2534.60026	None	None	None	2534.683806	2536.588835	0.032114929	0.038877086													112	1	20	1	2020_Feb_04_1210	Test	3.2.4	59.8323235		Pictures/IA75_L60.bmp	Pictures/IA75_L60.bmp	Pictures/IA75.bmp	"Why not take the gamble?"""""	1	risk					7	0	7	0	0	4	4	3																															2536.605536	None	2538.62753	2540.131502	2540.114784	None	2541.652167	None	2	2543.657452	None	2543.657452	None	2543.657452	None	None	None	None	None	2544.509707	None	2544.509707	None	None	2544.509707	None	None	None	None	None	0.693681334														112	1	20	1	2020_Feb_04_1210	Test	3.2.4	59.8323235		Pictures/IA100_L80.bmp	Pictures/IA100_L80.bmp	Pictures/IA100.bmp	"Go all in!"""""	1	risk					7	0	7	0	0	5	5	14																															2546.514987	None	2548.536982	2550.057654	2550.040936	None	2551.561621	None	2	2553.566913	None	2553.566913	None	2553.566913	None	None	None	None	None	2553.984668	None	2553.984668	None	right	2553.984668	None	None	None	2554.23534	2555.973245	0.272239895	0.206469753													112	1	20	1	2020_Feb_04_1210	Test	3.2.4	59.8323235		Pictures/IA20_10_L95p.bmp	Pictures/IA20_10_L95p.bmp	Pictures/IA20.bmp	"Don't be tempted to gamble."""""	0	safe					7	0	7	0	0	6	6	6																															2555.989939	None	2558.011938	2559.532611	2559.51591	None	2561.019861	None	2	2563.041868	None	2563.041868	None	2563.041868	None	None	None	None	None	2563.994378	None	2563.994378	None	right	2563.994378	None	None	None	2564.361997	2565.999658	0.781274491	0.324754373													112	1	20	1	2020_Feb_04_1210	Test	3.2.4	59.8323235		Pictures/IA40_20_L95p.bmp	Pictures/IA40_20_L95p.bmp	Pictures/IA40.bmp	"Trust me"	1	risk					7	0	7	0	0	7	7	4																															2566.016355	None	2568.038351	2569.559023	2569.542326	None	2571.062987	None	2	2573.068273	None	2573.068273	None	2573.068273	None	None	None	None	None	2573.953939	None	2573.953939	None	right	2573.953939	None	None	None	2574.238028	2575.942518	0.68286775	0.245195561													112	1	20	1	2020_Feb_04_1210	Test	3.2.4	59.8323235		Pictures/IA25_G20.bmp	Pictures/IA25_G20.bmp	Pictures/IA25.bmp	"I wouldn't gamble for this one. """""	0	safe					7	0	7	0	0	8	8	10																															2575.959223	None	2577.981216	2579.501886	2579.485189	None	2581.005852	None	2	2583.011137	None	2583.011137	None	2583.011137	None	None	None	None	None	2583.946944	None	2583.946944	None	left	2583.946944	None	2584.381408	2585.952225	None	None	0.764007103	0.388191913													112	1	20	1	2020_Feb_04_1210	Test	3.2.4	59.8323235		Pictures/IA50_L20.bmp	Pictures/IA50_L20.bmp	Pictures/IA50.bmp	"Certainty is boring"	1	risk					7	0	7	0	0	9	9	15																															2585.968926	None	2587.99092	2589.511591	2589.494896	None	2591.032268	None	2	2593.020852	None	2593.020852	None	2593.020852	None	None	None	None	None	2593.789507	None	2593.789507	None	right	2593.789507	None	None	None	2593.873095	2595.778101	0.618273151	0.049628259													112	1	20	1	2020_Feb_04_1210	Test	3.2.4	59.8323235		Pictures/IA100_G20.bmp	Pictures/IA100_G20.bmp	Pictures/IA100.bmp	"Go ahead and gamble!"""""	1	risk					7	0	7	0	0	10	10	13																															2595.794823	None	2597.816818	2599.337492	2599.320773	None	2600.824745	None	2	2602.846731	None	2602.846731	None	2602.846731	None	None	None	None	None	2603.582029	None	2603.582029	None	left	2603.582029	None	2603.866078	2605.570594	None	None	0.568415865	0.24910372													112	1	20	1	2020_Feb_04_1210	Test	3.2.4	59.8323235		Pictures/IA50_G30.bmp	Pictures/IA50_G30.bmp	Pictures/IA50.bmp	"I think you should gamble."""""	1	risk					7	0	7	0	0	11	11	9																															2605.587279	None	2607.609275	2609.129945	2609.113252	None	2610.650622	None	2	2612.639205	None	2612.639205	None	2612.639205	None	None	None	None	None	2613.374469	None	2613.374469	None	left	2613.374469	None	2614.995438	None	None	None	0.56793495	1.576671538													112	1	20	1	2020_Feb_04_1210	Test	3.2.4	59.8323235		Pictures/IA50_G40.bmp	Pictures/IA50_G40.bmp	Pictures/IA50.bmp	"It would probably be best to play it safe."""""	0	safe					7	0	7	0	0	12	12	18																															2615.37975	None	2617.401742	2618.922415	2618.905717	None	2620.443094	None	2	2622.431675	None	2622.431675	None	2622.431675	None	None	None	None	None	2622.682335	None	2622.682335	None	left	2622.682335	None	2622.999837	2624.6709	None	None	0.071469056	0.276807762													112	1	20	1	2020_Feb_04_1210	Test	3.2.4	59.8323235		Pictures/IA25_L5.bmp	Pictures/IA25_L5.bmp	Pictures/IA25.bmp	"It would be smarter to choose the safe option."""""	0	safe					7	0	7	0	0	13	13	16																															2624.687603	None	2626.7096	2628.21357	2628.196852	None	2629.734233	None	2	2631.739516	None	2631.739516	None	2631.739516	None	None	None	None	None	2633.477443	None	2633.477443	None	right	2633.477443	None	None	None	2633.978748	2635.48272	1.56362607	0.465688952													112	1	20	1	2020_Feb_04_1210	Test	3.2.4	59.8323235		Pictures/IA75_L45.bmp	Pictures/IA75_L45.bmp	Pictures/IA75.bmp	"Don't gamble for this one"	0	safe					7	0	7	0	0	14	14	17																															2635.49942	None	2637.521414	2639.042094	2639.025393	None	2640.529343	None	2	2642.551355	None	2642.551355	None	2642.551355	None	None	None	None	None	2643.303325	None	2643.303325	None	left	2643.303325	None	2644.940964	None	None	None	0.575788088	1.599807206													112	1	20	1	2020_Feb_04_1210	Test	3.2.4	59.8323235		Pictures/IA75_G60.bmp	Pictures/IA75_G60.bmp	Pictures/IA75.bmp	"Make it exciting"	1	risk					7	0	7	0	0	15	15	19																															2645.325308	None	2647.347304	2648.867982	2648.851281	None	2650.35523	None	2	2652.377237	None	2652.377237	None	2652.377237	None	None	None	None	None	2653.112506	None	2653.112506	None	left	2653.112506	None	2653.43001	2655.101075	None	None	0.541916352	0.278626828													112	1	20	1	2020_Feb_04_1210	Test	3.2.4	59.8323235		Pictures/IA25_L20.bmp	Pictures/IA25_L20.bmp	Pictures/IA25.bmp	"Don't be tempted to gamble."""""	0	safe					7	0	7	0	0	16	16	11																															2655.117776	None	2657.13977	2658.660443	2658.643746	None	2660.164408	None	2	2662.169694	None	2662.169694	None	2662.169694	None	None	None	None	None	2663.088787	None	2663.088787	None	right	2663.088787	None	None	None	2663.422991	2665.077349	0.725458509	0.286349989													112	1	20	1	2020_Feb_04_1210	Test	3.2.4	59.8323235		Pictures/IA75_L15.bmp	Pictures/IA75_L15.bmp	Pictures/IA75.bmp	"Trust me"	1	risk					7	0	7	0	0	17	17	0																															2665.094071	None	2667.116071	2668.636738	2668.620021	None	2670.123993	None	2	2672.145978	None	2672.145978	None	2672.145978	None	None	None	None	None	2673.065075	None	2673.065075	None	right	2673.065075	None	None	None	2673.315733	2675.053647	0.765163617	0.206067471													112	1	20	1	2020_Feb_04_1210	Test	3.2.4	59.8323235		Pictures/IA50_G20.bmp	Pictures/IA50_G20.bmp	Pictures/IA50.bmp	"Let's venture and take a risk!"""""	1	risk					7	0	7	0	0	18	18	8																															2675.070344	None	2677.09234	2678.613011	2678.596315	None	2680.133691	None	2	2682.122272	None	2682.122272	None	2682.122272	None	None	None	None	None	2682.790712	None	2682.790712	None	left	2682.790712	None	2684.227805	None	None	None	0.508873324	1.392418615													112	1	20	1	2020_Feb_04_1210	Test	3.2.4	59.8323235		Pictures/IA80_40_G95p.bmp	Pictures/IA80_40_G95p.bmp	Pictures/IA80.bmp	"Think of the payoff"	1	risk					7	0	7	0	0	19	19	12																															2684.812679	None	2686.834679	2688.355347	2688.338651	None	2689.85931	None	2	2691.8646	None	2691.8646	None	2691.8646	None	None	None	None	None	2692.683437	None	2692.683437	None	left	2692.683437	None	2693.168037	2694.671988	None	None	0.590552085	0.435701763													112	1	20	1	2020_Feb_04_1210	Test	3.2.4	59.8323235		Pictures/IA75_G45.bmp	Pictures/IA75_G45.bmp	Pictures/IA75.bmp	"Don't gamble for this one."""""	0	safe					8	0	8	0	0	0	0	6													2697.195307	None	2697.195307	None	2697.195307	None	left	1.027841695	2697.195307	None	2697.195307	None	2697.195307	None	return	1.611618704	2697.195307	None	2698.866376	None	2700.871668	2702.39234	2702.375623	None	2703.879582	None	2	2705.884871	None	2705.884871	None	2705.884871	None	None	None	None	None	2706.369489	None	2706.369489	None	left	2706.369489	None	2706.703689	2708.374758	None	None	0.290286363	0.293645653													112	1	20	1	2020_Feb_04_1210	Test	3.2.4	59.8323235		Pictures/IA40_20_L95p.bmp	Pictures/IA40_20_L95p.bmp	Pictures/IA40.bmp	"Trust me"	1	risk					8	0	8	0	0	1	1	14																															2708.391484	None	2710.413475	2711.934152	2711.917428	None	2713.421396	None	2	2715.443392	None	2715.443392	None	2715.443392	None	None	None	None	None	2716.329062	None	2716.329062	None	right	2716.329062	None	None	None	2716.479456	2718.317621	0.723751687	0.110068747													112	1	20	1	2020_Feb_04_1210	Test	3.2.4	59.8323235		Pictures/IA25_G5.bmp	Pictures/IA25_G5.bmp	Pictures/IA25.bmp	"Let's stay with the certain option."""""	0	safe					8	0	8	0	0	2	2	5																															2718.334343	None	2720.356337	2721.877009	2721.860294	None	2723.364263	None	2	2725.386248	None	2725.386248	None	2725.386248	None	None	None	None	None	2726.121534	None	2726.121534	None	right	2726.121534	None	None	None	2726.355467	2728.126809	0.564903144	0.1975973													112	1	20	1	2020_Feb_04_1210	Test	3.2.4	59.8323235		Pictures/IA50_L20.bmp	Pictures/IA50_L20.bmp	Pictures/IA50.bmp	"Certainty is boring"	1	risk					8	0	8	0	0	3	3	3																															2728.143512	None	2730.165508	2731.686144	2731.66944	None	2733.173432	None	2	2735.195442	None	2735.195442	None	2735.195442	None	None	None	None	None	2737.434662	None	2737.434662	None	left	2737.434662	None	2737.51821	2739.423241	None	None	2.059703857	0.044471611													112	1	20	1	2020_Feb_04_1210	Test	3.2.4	59.8323235		Pictures/IA50_G10.bmp	Pictures/IA50_G10.bmp	Pictures/IA50.bmp	"Go with the safe option here!"""""	0	safe					8	0	8	0	0	4	4	0																															2739.439941	None	2741.461935	2742.982607	2742.965911	None	2744.503281	None	2	2746.491867	None	2746.491867	None	2746.491867	None	None	None	None	None	2747.310691	None	2747.310691	None	left	2747.310691	None	2747.87884	2749.315971	None	None	0.643274548	0.520444746													112	1	20	1	2020_Feb_04_1210	Test	3.2.4	59.8323235		Pictures/IA80_40_L95p.bmp	Pictures/IA80_40_L95p.bmp	Pictures/IA80.bmp	"Let's stay with the certain option."""""	0	safe					8	0	8	0	0	5	5	18																															2749.332677	None	2751.354668	2752.875336	2752.858641	None	2754.362592	None	2	2756.384603	None	2756.384603	None	2756.384603	None	None	None	None	None	2756.919307	None	2756.919307	None	right	2756.919307	None	None	None	2757.203419	2758.907896	0.334530705	0.239831736													112	1	20	1	2020_Feb_04_1210	Test	3.2.4	59.8323235		Pictures/IA75_G30.bmp	Pictures/IA75_G30.bmp	Pictures/IA75.bmp	"Be bold"	1	risk					8	0	8	0	0	6	6	17																															2758.924619	None	2760.946615	2762.467289	2762.450573	None	2763.971277	None	2	2765.976564	None	2765.976564	None	2765.976564	None	None	None	None	None	2766.895619	None	2766.895619	None	left	2766.895619	None	2768.048661	None	None	None	0.750559058	1.111512364													112	1	20	1	2020_Feb_04_1210	Test	3.2.4	59.8323235		Pictures/IA100_L80.bmp	Pictures/IA100_L80.bmp	Pictures/IA100.bmp	"Go all in!"""""	1	risk					8	0	8	0	0	7	7	4																															2768.900877	None	2770.922876	2772.426858	2772.410147	None	2773.947535	None	2	2775.952806	None	2775.952806	None	2775.952806	None	None	None	None	None	2776.754926	None	2776.754926	None	None	2776.754926	None	None	None	None	None	0.638337115														112	1	20	1	2020_Feb_04_1210	Test	3.2.4	59.8323235		Pictures/IA75_L60.bmp	Pictures/IA75_L60.bmp	Pictures/IA75.bmp	"Why not take the gamble?"""""	1	risk					8	0	8	0	0	8	8	12																															2778.76021	None	2780.782207	2782.286149	2782.269449	None	2783.907104	None	2	2785.795403	None	2785.795403	None	2785.795403	None	None	None	None	None	2787.90095	None	2787.90095	None	None	2787.90095	None	None	None	None	None	1.91572619														112	1	20	1	2020_Feb_04_1210	Test	3.2.4	59.8323235		Pictures/IA100_G80.bmp	Pictures/IA100_G80.bmp	Pictures/IA100.bmp	"Why not gamble?"""""	1	risk					8	0	8	0	0	9	9	15																															2789.906221	None	2791.928239	2793.432203	2793.415489	None	2794.952876	None	2	2796.958152	None	2796.958152	None	2796.958152	None	None	None	None	None	2797.760274	None	2797.760274	None	None	2797.760274	None	None	None	None	None	0.640986702														112	1	20	1	2020_Feb_04_1210	Test	3.2.4	59.8323235		Pictures/IA50_G30.bmp	Pictures/IA50_G30.bmp	Pictures/IA50.bmp	"I think you should gamble."""""	1	risk					8	0	8	0	0	10	10	9																															2799.765543	None	2801.787545	2803.291515	2803.274789	None	2804.795454	None	2	2806.800746	None	2806.800746	None	2806.800746	None	None	None	None	None	2807.586161	None	2807.586161	None	right	2807.586161	None	None	None	2808.98985	None	0.622396775	1.356987941													112	1	20	1	2020_Feb_04_1210	Test	3.2.4	59.8323235		Pictures/IA40_20_G95p.bmp	Pictures/IA40_20_G95p.bmp	Pictures/IA40.bmp	"Hold back"	0	safe					8	0	8	0	0	11	11	8																															2809.59145	None	2811.63018	2813.134116	2813.100678	None	2814.654764	None	2	2816.660085	None	2816.660085	None	2816.660085	None	None	None	None	None	2818.047059	None	2818.047059	None	left	2818.047059	None	2819.450783	None	None	None	1.179054293	1.368075068													112	1	20	1	2020_Feb_04_1210	Test	3.2.4	59.8323235		Pictures/IA25_L5.bmp	Pictures/IA25_L5.bmp	Pictures/IA25.bmp	"It would be smarter to choose the safe option."""""	0	safe					8	0	8	0	0	12	12	16																															2820.052355	None	2822.091059	2823.595038	2823.561581	None	2825.366358	None	2	2827.104287	None	2827.104287	None	2827.104287	None	None	None	None	None	2827.856269	None	2827.856269	None	right	2827.856269	None	None	None	2828.491282	2829.844803	0.534835747	0.590874071													112	1	20	1	2020_Feb_04_1210	Test	3.2.4	59.8323235		Pictures/IA75_L30.bmp	Pictures/IA75_L30.bmp	Pictures/IA75.bmp	"Hold back"	0	safe					8	0	8	0	0	13	13	13																															2829.861525	None	2831.900282	2833.420913	2833.404197	None	2834.974986	None	2	2836.913426	None	2836.913426	None	2836.913426	None	None	None	None	None	2837.782397	None	2837.782397	None	right	2837.782397	None	None	None	2837.916065	2839.787662	0.701706214	0.096737864													112	1	20	1	2020_Feb_04_1210	Test	3.2.4	59.8323235		Pictures/IA80_40_G95p.bmp	Pictures/IA80_40_G95p.bmp	Pictures/IA80.bmp	"Think of the payoff"	1	risk					8	0	8	0	0	14	14	1																															2839.804386	None	2841.843101	2843.347064	2843.330348	None	2844.867715	None	2	2846.856338	None	2846.856338	None	2846.856338	None	None	None	None	None	2847.50802	None	2847.50802	None	left	2847.50802	None	2847.792127	2849.496602	None	None	0.430802419	0.243126739													112	1	20	1	2020_Feb_04_1210	Test	3.2.4	59.8323235		Pictures/IA50_L30.bmp	Pictures/IA50_L30.bmp	Pictures/IA50.bmp	"Take a leap"	1	risk					8	0	8	0	0	15	15	7																															2849.513299	None	2851.568741	2853.07272	2853.039295	None	2854.626752	None	2	2856.565208	None	2856.565208	None	2856.565208	None	None	None	None	None	2857.384026	None	2857.384026	None	left	2857.384026	None	2858.587209	None	None	None	0.649944505	1.159109334													112	1	20	1	2020_Feb_04_1210	Test	3.2.4	59.8323235		Pictures/IA20_10_G95p.bmp	Pictures/IA20_10_G95p.bmp	Pictures/IA20.bmp	"Take a leap"	1	risk					8	0	8	0	0	16	16	2																															2859.406019	None	2861.444725	2862.965395	2862.948699	None	2864.486081	None	2	2866.457946	None	2866.457946	None	2866.457946	None	None	None	None	None	2867.092951	None	2867.092951	None	left	2867.092951	None	2867.310188	2869.081507	None	None	0.517176446	0.178180532													112	1	20	1	2020_Feb_04_1210	Test	3.2.4	59.8323235		Pictures/IA110_55_G95p.bmp	Pictures/IA110_55_G95p.bmp	Pictures/IA110.bmp	"Take a chance!"""""	1	risk					8	0	8	0	0	17	17	11																															2869.098231	None	2871.136937	2872.640888	2872.624195	None	2874.178273	None	2	2876.150143	None	2876.150143	None	2876.150143	None	None	None	None	None	2876.701605	None	2876.701605	None	left	2876.701605	None	2876.868695	2878.706882	None	None	0.385004684	0.121541183													112	1	20	1	2020_Feb_04_1210	Test	3.2.4	59.8323235		Pictures/IA100_L40.bmp	Pictures/IA100_L40.bmp	Pictures/IA100.bmp	"Think of the payoff"	1	risk					8	0	8	0	0	18	18	19																															2878.723581	None	2880.778999	2882.282975	2882.266254	None	2883.803633	None	2	2885.775503	None	2885.775503	None	2885.775503	None	None	None	None	None	2886.477359	None	2886.477359	None	left	2886.477359	None	2886.811559	2888.482628	None	None	0.527640166	0.289777608													112	1	20	1	2020_Feb_04_1210	Test	3.2.4	59.8323235		Pictures/IA50_G20.bmp	Pictures/IA50_G20.bmp	Pictures/IA50.bmp	"Let's venture and take a risk!"""""	1	risk					8	0	8	0	0	19	19	10																															2888.49935	None	2890.521348	2892.042017	2892.0253	None	2893.579404	None	2	2895.551268	None	2895.551268	None	2895.551268	None	None	None	None	None	2897.155495	None	2897.155495	None	left	2897.155495	None	2898.442216	None	None	None	1.447864863	1.243636722													112	1	20	1	2020_Feb_04_1210	Test	3.2.4	59.8323235		Pictures/IA80_40_L95p.bmp	Pictures/IA80_40_L95p.bmp	Pictures/IA80.bmp	"Let's stay with the certain option."""""	0	safe					9	0	9	0	0	0	0	4													2901.968173	None	2901.968173	None	2901.968173	None	left	1.398948805	2901.968173	None	2901.968173	None	2901.968173	None	return	1.678833859	2901.968173	None	2903.706153	None	2905.711358	2907.232032	2907.215335	None	2908.752716	None	2	2910.72458	None	2910.72458	None	2910.72458	None	None	None	None	None	2910.958535	None	2910.958535	None	right	2910.958535	None	None	None	2911.209178	2912.947084	0.026561633	0.208587657													112	1	20	1	2020_Feb_04_1210	Test	3.2.4	59.8323235		Pictures/IA75_G60.bmp	Pictures/IA75_G60.bmp	Pictures/IA75.bmp	"Make it exciting"	1	risk					9	0	9	0	0	1	1	16																															2912.963814	None	2914.985804	2916.506478	2916.489761	None	2918.043868	None	2	2920.015729	None	2920.015729	None	2920.015729	None	None	None	None	None	2920.851253	None	2920.851253	None	left	2920.851253	None	2921.068489	2922.856536	None	None	0.655414378	0.171884036													112	1	20	1	2020_Feb_04_1210	Test	3.2.4	59.8323235		Pictures/IA25_G15.bmp	Pictures/IA25_G15.bmp	Pictures/IA25.bmp	"I think you should take a gamble."""""	1	risk					9	0	9	0	0	2	2	8																															2922.873252	None	2924.911923	2926.432632	2926.415914	None	2927.953298	None	2	2929.925161	None	2929.925161	None	2929.925161	None	None	None	None	None	2930.526759	None	2930.526759	None	right	2930.526759	None	None	None	2931.462541	2932.515314	0.425987357	0.88837834													112	1	20	1	2020_Feb_04_1210	Test	3.2.4	59.8323235		Pictures/IA75_G15.bmp	Pictures/IA75_G15.bmp	Pictures/IA75.bmp	"Take a chance!"""""	1	risk					9	0	9	0	0	3	3	7																															2932.532038	None	2934.554032	2936.074703	2936.057987	None	2937.61209	None	2	2939.667509	None	2939.667509	None	2939.667509	None	None	None	None	None	2940.285795	None	2940.285795	None	left	2940.285795	None	2940.603294	2942.274363	None	None	0.459633084	0.281327896													112	1	20	1	2020_Feb_04_1210	Test	3.2.4	59.8323235		Pictures/IA25_G10.bmp	Pictures/IA25_G10.bmp	Pictures/IA25.bmp	"What's life without a little risk?"""""	1	risk					9	0	9	0	0	4	4	2																															2942.291048	None	2944.313086	2945.833752	2945.817034	None	2947.371138	None	2	2949.343001	None	2949.343001	None	2949.343001	None	None	None	None	None	2950.01143	None	2950.01143	None	right	2950.01143	None	None	None	2950.1451	2951.999988	0.512133843	0.091703183													112	1	20	1	2020_Feb_04_1210	Test	3.2.4	59.8323235		Pictures/IA75_G45.bmp	Pictures/IA75_G45.bmp	Pictures/IA75.bmp	"Don't gamble for this one."""""	0	safe					9	0	9	0	0	5	5	15																															2952.01671	None	2954.03871	2955.559379	2955.54266	None	2957.096764	None	2	2959.068627	None	2959.068627	None	2959.068627	None	None	None	None	None	2959.302578	None	2959.302578	None	right	2959.302578	None	None	None	2959.386128	2961.291144	0.034521472	0.040557789													112	1	20	1	2020_Feb_04_1210	Test	3.2.4	59.8323235		Pictures/IA100_G40.bmp	Pictures/IA100_G40.bmp	Pictures/IA100.bmp	"Try your luck and gamble!"""""	1	risk					9	0	9	0	0	6	6	11																															2961.307859	None	2963.329848	2964.850525	2964.833811	None	2966.387911	None	2	2968.35979	None	2968.35979	None	2968.35979	None	None	None	None	None	2968.861086	None	2968.861086	None	left	2968.861086	None	2970.816235	None	None	None	0.327362482	1.914045015													112	1	20	1	2020_Feb_04_1210	Test	3.2.4	59.8323235		Pictures/IA20_10_L95p.bmp	Pictures/IA20_10_L95p.bmp	Pictures/IA20.bmp	"Don't be tempted to gamble."""""	0	safe					9	0	9	0	0	7	7	19																															2970.866369	None	2972.888364	2974.409034	2974.392339	None	2975.92971	None	2	2977.918295	None	2977.918295	None	2977.918295	None	None	None	None	None	2978.319341	None	2978.319341	None	right	2978.319341	None	None	None	2978.586723	2980.324631	0.232839511	0.231793764													112	1	20	1	2020_Feb_04_1210	Test	3.2.4	59.8323235		Pictures/IA50_L20.bmp	Pictures/IA50_L20.bmp	Pictures/IA50.bmp	"Certainty is boring"	1	risk					9	0	9	0	0	8	8	3																															2980.341333	None	2982.363328	2983.8673	2983.850582	None	2985.421385	None	2	2987.393249	None	2987.393249	None	2987.393249	None	None	None	None	None	2987.610491	None	2987.610491	None	left	2987.610491	None	2989.448679	None	None	None	0.045897949	1.796639719													112	1	20	1	2020_Feb_04_1210	Test	3.2.4	59.8323235		Pictures/IA110_55_L95p.bmp	Pictures/IA110_55_L95p.bmp	Pictures/IA110.bmp	"Trust me"	1	risk					9	0	9	0	0	9	9	14																															2989.632494	None	2991.654486	2993.175159	2993.15844	None	2994.712546	None	2	2996.684411	None	2996.684411	None	2996.684411	None	None	None	None	None	2997.402959	None	2997.402959	None	right	2997.402959	None	None	None	2997.870866	2999.408249	0.554736426	0.428165193													112	1	20	1	2020_Feb_04_1210	Test	3.2.4	59.8323235		Pictures/IA50_L40.bmp	Pictures/IA50_L40.bmp	Pictures/IA50.bmp	"That gamble doesn't sound too good"	0	safe					9	0	9	0	0	10	10	13																															2999.424948	None	3001.446943	3002.967619	3002.95092	None	3004.521719	None	2	3006.476879	None	3006.476879	None	3006.476879	None	None	None	None	None	3007.078465	None	3007.078465	None	left	3007.078465	None	3007.379243	3009.083742	None	None	0.410261156	0.264666687													112	1	20	1	2020_Feb_04_1210	Test	3.2.4	59.8323235		Pictures/IA100_L60.bmp	Pictures/IA100_L60.bmp	Pictures/IA100.bmp	"You'd have a lot to lose"	0	safe					9	0	9	0	0	11	11	18																															3009.100443	None	3011.122435	3012.643112	3012.626414	None	3014.180498	None	2	3016.152362	None	3016.152362	None	3016.152362	None	None	None	None	None	3016.854225	None	3016.854225	None	right	3016.854225	None	None	None	3016.954475	3018.859497	0.486771414	0.056909554													112	1	20	1	2020_Feb_04_1210	Test	3.2.4	59.8323235		Pictures/IA50_G30.bmp	Pictures/IA50_G30.bmp	Pictures/IA50.bmp	"I think you should gamble."""""	1	risk					9	0	9	0	0	12	12	0																															3018.876207	None	3020.898196	3022.418874	3022.402173	None	3023.972969	None	2	3025.928137	None	3025.928137	None	3025.928137	None	None	None	None	None	3026.613266	None	3026.613266	None	right	3026.613266	None	None	None	3026.947473	3028.618538	0.511017847	0.289875856													112	1	20	1	2020_Feb_04_1210	Test	3.2.4	59.8323235		Pictures/IA100_L20.bmp	Pictures/IA100_L20.bmp	Pictures/IA100.bmp	"Try to win as much money as you can"	1	risk					9	0	9	0	0	13	13	6																															3028.635259	None	3030.657256	3032.177928	3032.161211	None	3033.715314	None	2	3035.687177	None	3035.687177	None	3035.687177	None	None	None	None	None	3037.943139	None	3037.943139	None	left	3037.943139	None	3038.243901	3039.948403	None	None	2.039978551	0.255978178													112	1	20	1	2020_Feb_04_1210	Test	3.2.4	59.8323235		Pictures/IA25_L15.bmp	Pictures/IA25_L15.bmp	Pictures/IA25.bmp	"There's not much on the line here"	1	risk					9	0	9	0	0	14	14	17																															3039.965105	None	3041.987099	3043.50777	3043.49108	None	3045.045159	None	2	3047.017021	None	3047.017021	None	3047.017021	None	None	None	None	None	3047.852568	None	3047.852568	None	left	3047.852568	None	3048.738243	3049.841123	None	None	0.62212758	0.85056364													112	1	20	1	2020_Feb_04_1210	Test	3.2.4	59.8323235		Pictures/IA75_L45.bmp	Pictures/IA75_L45.bmp	Pictures/IA75.bmp	"