Choice,Choice2,Amount,AdviceVar1,GambleAdviceNum,GambleAdviceType,practice.thisRepN,practice.thisTrialN,practice.thisN,practice.thisIndex,trials_2.thisRepN,trials_2.thisTrialN,trials_2.thisN,trials_2.thisIndex,trials.thisRepN,trials.thisTrialN,trials.thisN,trials.thisIndex,text.started,text.stopped,key_resp_4.keys,key_resp_4.rt,key_resp_4.started,key_resp_4.stopped,instructions.started,instructions.stopped,space.keys,space.rt,space.started,space.stopped,chooseInst.started,chooseInst.stopped,Ad1.started,Ad1.stopped,Ad2.started,Ad2.stopped,key_resp_3.keys,key_resp_3.rt,key_resp_3.started,key_resp_3.stopped,Ad1pic.started,Ad1pic.stopped,Ad2pic.started,Ad2pic.stopped,enter.keys,enter.rt,enter.started,enter.stopped,iSi.started,iSi.stopped,receiveMoneyPicture.started,receiveMoneyPicture.stopped,ISI2.started,ISI2.stopped,ChoicePic.started,ChoicePic.stopped,response.keys,response.started,response.stopped,yesNo.started,yesNo.stopped,ask.started,ask.stopped,getAdv.started,getAdv.stopped,textForCode.started,textForCode.stopped,blank.started,blank.stopped,ChoicePic2.started,ChoicePic2.stopped,resp.keys,resp.started,resp.stopped,checkL1.started,checkL1.stopped,checkR1.started,checkR1.stopped,response.rt,resp.rt,EndPrac.started,EndPrac.stopped,key_resp.keys,key_resp.rt,key_resp.started,key_resp.stopped,endText.started,endText.stopped,key_resp_2.keys,key_resp_2.rt,key_resp_2.started,key_resp_2.stopped,participant,session,age,gender (0=male, 1 = female, 2 = other),date,expName,psychopyVersion,frameRate,
,,,,,,,,,,,,,,,,,,342.47494626799016,None,space,439.82818521300214,342.47494626799016,None,,,,,,,,,,,,,,,,,,,,,,,,,,,,,,,,,,,,,,,,,,,,,,,,,,,,,,,,,,,,,,,,,,,,,112,001,20,1,2020_Feb_04_1210,Test,3.2.4,59.83232350191831,
,,,,,,,,,,,,,,,,,,,,,,,,782.3839051539981,None,space,2.7512237310002092,782.3839051539981,None,,,,,,,,,,,,,,,,,,,,,,,,,,,,,,,,,,,,,,,,,,,,,,,,,,,,,,,,,,,,,,,112,001,20,1,2020_Feb_04_1210,Test,3.2.4,59.83232350191831,
,,,,,,,,,,,,,,,,,,,,,,,,,,,,,,785.9934213719971,None,785.9934213719971,None,785.9934213719971,None,left,11.541697886990733,785.9934213719971,None,,,,,,,,,,,,,,,,,,,,,,,,,,,,,,,,,,,,,,,,,,,,,,,,,,,,,112,001,20,1,2020_Feb_04_1210,Test,3.2.4,59.83232350191831,
,,,,,,,,,,,,,,,,,,,,,,,,,,,,,,,,,,,,,,,,785.9934213719971,None,785.9934213719971,None,return,13.653570138994837,785.9934213719971,None,,,,,,,,,,,,,,,,,,,,,,,,,,,,,,,,,,,,,,,,,,,,,112,001,20,1,2020_Feb_04_1210,Test,3.2.4,59.83232350191831,
Pictures/IA50_G20.bmp,Pictures/IA50_G20.bmp,Pictures/IA50.bmp,"

"Let's venture and take a risk!"",1,risk,0,0,0,1,,,,,,,,,,,,,,,,,,,,,,,,,,,,,,,,,,,,,,,799.7797426259931,None,801.7348862449871,803.2388462179952,803.2221394419903,None,804.7428175589885,None,None,806.8149469489872,None,806.8149469489872,None,806.8149469489872,None,None,None,None,None,809.9064201889996,None,809.9064201889996,None,None,809.9064201889996,None,None,None,None,None,,,,,,,,,,,,,,,112,001,20,1,2020_Feb_04_1210,Test,3.2.4,59.83232350191831,
Pictures/IA100_G20.bmp,Pictures/IA100_G20.bmp,Pictures/IA100.bmp,"

"Go ahead and gamble!"",1,risk,0,1,1,4,,,,,,,,,,,,,,,,,,,,,,,,,,,,,,,,,,,,,,,811.911697626987,None,813.9671133069933,815.471065138001,815.4543676739995,None,817.0251709180011,None,None,818.9636193999904,None,818.9636193999904,None,818.9636193999904,None,None,None,None,None,822.0885045449977,None,822.0885045449977,None,None,822.0885045449977,None,None,None,None,None,,,,,,,,,,,,,,,112,001,20,1,2020_Feb_04_1210,Test,3.2.4,59.83232350191831,
Pictures/IA50_G40.bmp,Pictures/IA50_G40.bmp,Pictures/IA50.bmp,"

"It would probably be best to play it safe."",0,safe,0,2,2,3,,,,,,,,,,,,,,,,,,,,,,,,,,,,,,,,,,,,,,,824.0937805119902,None,826.1157792649901,827.6364510849962,827.6197555489925,None,829.1905424479919,None,None,831.14570809,None,831.14570809,None,831.14570809,None,None,None,None,None,834.2538568369928,None,834.2538568369928,None,None,834.2538568369928,None,None,None,None,None,,,,,,,,,,,,,,,112,001,20,1,2020_Feb_04_1210,Test,3.2.4,59.83232350191831,
Pictures/IA50_G30.bmp,Pictures/IA50_G30.bmp,Pictures/IA50.bmp,"

"I think you should gamble."",1,risk,0,3,3,2,,,,,,,,,,,,,,,,,,,,,,,,,,,,,,,,,,,,,,,836.2591719439952,None,838.281161351988,839.8018307899911,839.785139375992,None,841.3726376529958,None,1,843.3110799059941,None,843.3110799059941,None,843.3110799059941,None,846.2187403110001,None,846.2187403110001,847.2213787529909,848.3577104259894,None,848.3577104259894,None,None,848.3577104259894,None,None,None,None,None,2.7760668650007574,,,,,,,,,,,,,,112,001,20,1,2020_Feb_04_1210,Test,3.2.4,59.83232350191831,
Pictures/IA100_G40.bmp,Pictures/IA100_G40.bmp,Pictures/IA100.bmp,"

"Try your luck and gamble!"",1,risk,0,4,4,5,,,,,,,,,,,,,,,,,,,,,,,,,,,,,,,,,,,,,,,850.3629896369966,None,852.3849834119901,853.9056562759943,853.8889609589969,None,855.4597539029928,None,None,857.4149150739977,None,857.4149150739977,None,857.4149150739977,None,None,None,None,None,860.5063470289897,None,860.5063470289897,None,left,860.5063470289897,None,861.2416736079904,862.5116611549893,None,None,,0.6927887369965902,,,,,,,,,,,,,112,001,20,1,2020_Feb_04_1210,Test,3.2.4,59.83232350191831,
Pictures/IA50_G10.bmp,Pictures/IA50_G10.bmp,Pictures/IA50.bmp,"

"Go with the safe option here!"",0,safe,0,5,5,0,,,,,,,,,,,,,,,,,,,,,,,,,,,,,,,,,,,,,,,862.5283840560005,None,864.5503773709934,866.071051957988,866.0543339939904,None,867.6418565799977,None,1,869.5802995939885,None,869.5802995939885,None,869.5802995939885,None,872.1871568499919,None,872.1871568499919,873.1897914759902,874.292708723995,None,874.292708723995,None,None,874.292708723995,None,None,None,None,None,2.490848656001617,,,,,,,,,,,,,,112,001,20,1,2020_Feb_04_1210,Test,3.2.4,59.83232350191831,
,,,,,,,,,,,,,,,,,,,,,,,,,,,,,,,,,,,,,,,,,,,,,,,,,,,,,,,,,,,,,,,,,,,,,,,,,,,,,,,,876.2979855839949,None,space,69.25316514300357,876.2979855839949,None,,,,,,,112,001,20,1,2020_Feb_04_1210,Test,3.2.4,59.83232350191831,
Pictures/IA75_L15.bmp,Pictures/IA75_L15.bmp,Pictures/IA75.bmp,"

"Trust me, gamble!"",1,risk,,,,,0,0,0,0,0,0,0,5,,,,,,,,,,,,,945.7309181679884,None,945.7309181679884,None,945.7309181679884,None,left,10.660214706003899,945.7309181679884,None,945.7309181679884,None,945.7309181679884,None,return,12.540094457988744,945.7309181679884,None,958.347483384001,None,960.3527681619889,961.8734381889954,961.856741001,None,963.3941142039985,None,1,965.3492758879875,None,965.3492758879875,None,965.3492758879875,None,967.5383769600012,None,967.5383769600012,968.5410169309907,969.6439251959964,None,969.6439251959964,None,None,969.6439251959964,None,None,None,None,None,2.073866888997145,,,,,,,,,,,,,,112,001,20,1,2020_Feb_04_1210,Test,3.2.4,59.83232350191831,
Pictures/IA75_G15.bmp,Pictures/IA75_G15.bmp,Pictures/IA75.bmp,"

"Take a chance!"",1,risk,,,,,0,0,0,0,0,1,1,4,,,,,,,,,,,,,,,,,,,,,,,,,,,,,,,971.6492061709869,None,973.6712097009877,975.1918690379971,975.1751588459883,None,976.7459712349955,None,1,978.7011090189917,None,978.7011090189917,None,978.7011090189917,None,981.5586478529876,None,981.5586478529876,982.5612879659893,983.6641959619883,None,983.6641959619883,None,left,983.6641959619883,None,985.6527638830012,None,None,None,2.7700268640037393,1.9509286459942814,,,,,,,,,,,,,112,001,20,1,2020_Feb_04_1210,Test,3.2.4,59.83232350191831,
Pictures/IA50_G30.bmp,Pictures/IA50_G30.bmp,Pictures/IA50.bmp,"

"I think you should gamble."",1,risk,,,,,0,0,0,0,0,2,2,13,,,,,,,,,,,,,,,,,,,,,,,,,,,,,,,985.6694660319918,None,987.6914612859982,989.2121300819999,989.1954329689906,None,990.6993888469879,None,1,992.7213892449945,None,992.7213892449945,None,992.7213892449945,None,995.5622043309995,None,995.5622043309995,996.5648325199872,997.6677445979876,None,997.6677445979876,None,right,997.6677445979876,None,None,None,999.5059341349988,None,2.7337551550008357,1.803385712992167,,,,,,,,,,,,,112,001,20,1,2020_Feb_04_1210,Test,3.2.4,59.83232350191831,
Pictures/IA50_G10.bmp,Pictures/IA50_G10.bmp,Pictures/IA50.bmp,"

"Go with the safe option here!"",0,safe,,,,,0,0,0,0,0,3,3,0,,,,,,,,,,,,,,,,,,,,,,,,,,,,,,,999.6897458579915,None,1001.711739580991,1003.2156892669882,1003.1989932829892,None,1004.7530897899996,None,1,1006.7416463509871,None,1006.7416463509871,None,1006.7416463509871,None,1008.1954443319992,None,1008.1954443319992,1009.1981151809887,1010.3010286649951,None,1010.3010286649951,None,left,1010.3010286649951,None,1010.9360411749949,1012.3063182189944,None,None,1.3534955630020704,0.5861087060038699,,,,,,,,,,,,,112,001,20,1,2020_Feb_04_1210,Test,3.2.4,59.83232350191831,
Pictures/IA40_20_L95p.bmp,Pictures/IA40_20_L95p.bmp,Pictures/IA40.bmp,"

"Trust me, gamble!"",1,risk,,,,,0,0,0,0,0,4,4,3,,,,,,,,,,,,,,,,,,,,,,,,,,,,,,,1012.3230169099988,None,1014.3784363599989,1015.8824093079893,1015.8656868729886,None,1017.4197801049886,None,1,1019.3749424869893,None,1019.3749424869893,None,1019.3749424869893,None,1022.3995792979986,None,1022.3995792979986,1023.4022166229988,1024.5218421619938,None,1024.5218421619938,None,right,1024.5218421619938,None,None,None,1025.2404082879948,1026.5104071969981,2.9122139410028467,0.677287256999989,,,,,,,,,,,,,112,001,20,1,2020_Feb_04_1210,Test,3.2.4,59.83232350191831,
Pictures/IA75_G60.bmp,Pictures/IA75_G60.bmp,Pictures/IA75.bmp,"

"Make it exciting, take a chance!"",1,risk,,,,,0,0,0,0,0,5,5,14,,,,,,,,,,,,,,,,,,,,,,,,,,,,,,,1026.5271057520004,None,1028.5491003019997,1030.0697752379929,1030.053075992997,None,1031.6238683679985,None,1,1033.579033682996,None,1033.579033682996,None,1033.579033682996,None,1035.0662765019952,None,1035.0662765019952,1036.0689154969878,1037.1718213189888,None,1037.1718213189888,None,right,1037.1718213189888,None,None,None,1037.673147893991,1039.1770994599938,1.3641223900049226,0.45931302099779714,,,,,,,,,,,,,112,001,20,1,2020_Feb_04_1210,Test,3.2.4,59.83232350191831,
Pictures/IA75_G30.bmp,Pictures/IA75_G30.bmp,Pictures/IA75.bmp,"

"Be bold, gamble!"",1,risk,,,,,0,0,0,0,0,6,6,10,,,,,,,,,,,,,,,,,,,,,,,,,,,,,,,1039.193825688999,None,1041.2158162729902,1042.7364912229968,1042.7197690249886,None,1044.3072940209968,None,1,1046.2457365219889,None,1046.2457365219889,None,1046.2457365219889,None,1047.4321943839896,None,1047.4321943839896,1048.434832287996,1049.537744517991,None,1049.537744517991,None,left,1049.537744517991,None,1051.1920978790004,None,None,None,1.0734090579935582,1.613387926001451,,,,,,,,,,,,,112,001,20,1,2020_Feb_04_1210,Test,3.2.4,59.83232350191831,
Pictures/IA25_G15.bmp,Pictures/IA25_G15.bmp,Pictures/IA25.bmp,"

"I think you should take a gamble."",1,risk,,,,,0,0,0,0,0,7,7,16,,,,,,,,,,,,,,,,,,,,,,,,,,,,,,,1051.5430119329976,None,1053.5984304390004,1055.1024031220004,1055.0856810269906,None,1056.6397772919881,None,1,1058.5949378539954,None,1058.5949378539954,None,1058.5949378539954,None,1060.0654782859929,None,1060.0654782859929,1061.068115283997,1062.204448738994,None,1062.204448738994,None,right,1062.204448738994,None,None,None,1062.5553685060004,1064.1930033129902,1.3402063090034062,0.3146757600043202,,,,,,,,,,,,,112,001,20,1,2020_Feb_04_1210,Test,3.2.4,59.83232350191831,
Pictures/IA25_L10.bmp,Pictures/IA25_L10.bmp,Pictures/IA25.bmp,"

"Dont be afraid to take the risk!"",1,risk,,,,,0,0,0,0,0,8,8,18,,,,,,,,,,,,,,,,,,,,,,,,,,,,,,,1064.20972785099,None,1066.2317349209916,1067.7523944269924,1067.7356764919969,None,1069.323201206993,None,2,1071.2616432069917,None,1071.2616432069917,None,1071.2616432069917,None,None,None,None,None,1072.799014445991,None,1072.799014445991,None,right,1072.799014445991,None,None,None,1073.400612915997,1074.804294593996,1.3614988709887257,0.5681356190034421,,,,,,,,,,,,,112,001,20,1,2020_Feb_04_1210,Test,3.2.4,59.83232350191831,
Pictures/IA25_G10.bmp,Pictures/IA25_G10.bmp,Pictures/IA25.bmp,"

"What's life without a little risk?"",1,risk,,,,,0,0,0,0,0,9,9,1,,,,,,,,,,,,,,,,,,,,,,,,,,,,,,,1074.8210159259907,None,1076.843012775993,1078.3636830179894,1078.3469657729875,None,1079.9177829279943,None,2,1081.8729222239926,None,1081.8729222239926,None,1081.8729222239926,None,None,None,None,None,1083.3434638429899,None,1083.3434638429899,None,left,1083.3434638429899,None,1083.9116349989927,1085.3487409779918,None,None,1.2702045869955327,0.5196684690017719,,,,,,,,,,,,,112,001,20,1,2020_Feb_04_1210,Test,3.2.4,59.83232350191831,
Pictures/IA50_L10.bmp,Pictures/IA50_L10.bmp,Pictures/IA50.bmp,"

"Play it safe, don’t gamble!"",0,safe,,,,,0,0,0,0,0,10,10,15,,,,,,,,,,,,,,,,,,,,,,,,,,,,,,,1085.3654608209908,None,1087.3874883370008,1088.9081312679918,1088.8914118089888,None,1090.4622273999994,None,1,1092.4173684189882,None,1092.4173684189882,None,1092.4173684189882,None,1093.6539579669916,None,1093.6539579669916,1094.6565959839936,1095.792929999996,None,1095.792929999996,None,right,1095.792929999996,None,None,None,1096.5950496909936,1097.7982179419923,1.0777880730020115,0.7581983649870381,,,,,,,,,,,,,112,001,20,1,2020_Feb_04_1210,Test,3.2.4,59.83232350191831,
Pictures/IA100_L80.bmp,Pictures/IA100_L80.bmp,Pictures/IA100.bmp,"

"Go all in!"",1,risk,,,,,0,0,0,0,0,11,11,9,,,,,,,,,,,,,,,,,,,,,,,,,,,,,,,1097.8149199839972,None,1099.836913793988,1101.3575855149975,1101.3408936619962,None,1102.9116905269912,None,1,1104.8668418549933,None,1104.8668418549933,None,1104.8668418549933,None,1106.4209289930004,None,1106.4209289930004,1107.4235654789954,1108.5598995600012,None,1108.5598995600012,None,left,1108.5598995600012,None,1109.0278188589873,1110.5651865190011,None,None,1.460303630999988,0.43122438600403257,,,,,,,,,,,,,112,001,20,1,2020_Feb_04_1210,Test,3.2.4,59.83232350191831,
Pictures/IA100_G20.bmp,Pictures/IA100_G20.bmp,Pictures/IA100.bmp,"

"Go ahead and gamble!"",1,risk,,,,,0,0,0,0,0,12,12,7,,,,,,,,,,,,,,,,,,,,,,,,,,,,,,,1110.5818863539898,None,1112.6038856879895,1114.1245564290002,1114.1078574109997,None,1115.645229302987,None,1,1117.6338113449892,None,1117.6338113449892,None,1117.6338113449892,None,1118.7701444509876,None,1118.7701444509876,1119.7727861159947,1120.8923992509954,None,1120.8923992509954,None,left,1120.8923992509954,None,1121.3937080219912,1122.8809673389915,None,None,1.0373236969899153,0.46672323100210633,,,,,,,,,,,,,112,001,20,1,2020_Feb_04_1210,Test,3.2.4,59.83232350191831,
Pictures/IA25_L15.bmp,Pictures/IA25_L15.bmp,Pictures/IA25.bmp,"

"There's not much on the line here, gamble!"",1,risk,,,,,0,0,0,0,0,13,13,8,,,,,,,,,,,,,,,,,,,,,,,,,,,,,,,1122.8976678309991,None,1124.9196650619997,1126.440333541992,1126.423638467997,None,1127.9944285989914,None,1,1129.9495938019973,None,1129.9495938019973,None,1129.9495938019973,None,1131.1694723439869,None,1131.1694723439869,1132.1912844949984,1133.2917207589926,None,1133.2917207589926,None,left,1133.2917207589926,None,1133.9434343309986,1135.280290138995,None,None,1.0735491459927289,0.6114049830066506,,,,,,,,,,,,,112,001,20,1,2020_Feb_04_1210,Test,3.2.4,59.83232350191831,
Pictures/IA110_55_G95p.bmp,Pictures/IA110_55_G95p.bmp,Pictures/IA110.bmp,"

"Take a chance!"",1,risk,,,,,0,0,0,0,0,14,14,2,,,,,,,,,,,,,,,,,,,,,,,,,,,,,,,1135.2970124369895,None,1137.352427892998,1138.8563786239974,1138.8396800019982,None,1140.410484660999,None,1,1142.3489271069993,None,1142.3489271069993,None,1142.3489271069993,None,1143.3682663149957,None,1143.3682663149957,1144.3709040999966,1145.4905270909949,None,1145.4905270909949,None,left,1145.4905270909949,None,1145.7913251149876,1147.495805516999,None,None,0.9302193829935277,0.26060598900949117,,,,,,,,,,,,,112,001,20,1,2020_Feb_04_1210,Test,3.2.4,59.83232350191831,
Pictures/IA100_G40.bmp,Pictures/IA100_G40.bmp,Pictures/IA100.bmp,"

"Try your luck and gamble!"",1,risk,,,,,0,0,0,0,0,15,15,17,,,,,,,,,,,,,,,,,,,,,,,,,,,,,,,1147.5125269689888,None,1149.5345250919927,1151.0551937769924,1151.0384790159878,None,1152.542451745001,None,1,1154.5644291969948,None,1154.5644291969948,None,1154.5644291969948,None,1155.5837822609901,None,1155.5837822609901,1156.5864214299945,1157.7227546239883,None,1157.7227546239883,None,left,1157.7227546239883,None,1158.424609388996,1159.7280302709987,None,None,0.9067224669997813,0.6523774590023095,,,,,,,,,,,,,112,001,20,1,2020_Feb_04_1210,Test,3.2.4,59.83232350191831,
Pictures/IA25_G5.bmp,Pictures/IA25_G5.bmp,Pictures/IA25.bmp,"

"Let's stay with the certain option."",0,safe,,,,,0,0,0,0,0,16,16,12,,,,,,,,,,,,,,,,,,,,,,,,,,,,,,,1159.7447534940002,None,1161.7667478739895,1163.2874203809915,1163.2707029229932,None,1164.8415173019894,None,1,1166.7966617229977,None,1166.7966617229977,None,1166.7966617229977,None,1168.1001025669975,None,1168.1001025669975,1169.1027403969929,1170.2056519920006,None,1170.2056519920006,None,left,1170.2056519920006,None,1170.6902578689915,1172.210932870992,None,None,1.1624790650093928,0.44946940999943763,,,,,,,,,,,,,112,001,20,1,2020_Feb_04_1210,Test,3.2.4,59.83232350191831,
Pictures/IA40_20_G95p.bmp,Pictures/IA40_20_G95p.bmp,Pictures/IA40.bmp,"

"Hold back, stay with the safe choice."",0,safe,,,,,0,0,0,0,0,17,17,6,,,,,,,,,,,,,,,,,,,,,,,,,,,,,,,1172.2276286559936,None,1174.249630884995,1175.7702960589959,1175.7536000089895,None,1177.3243953479978,None,1,1179.279558092996,None,1179.279558092996,None,1179.279558092996,None,1180.2487659069884,None,1180.2487659069884,1181.2514082649868,1182.3877402099897,None,1182.3877402099897,None,left,1182.3877402099897,None,1182.8723451939877,1184.3763126569975,None,None,0.831577748991549,0.43539814300311264,,,,,,,,,,,,,112,001,20,1,2020_Feb_04_1210,Test,3.2.4,59.83232350191831,
Pictures/IA25_L5.bmp,Pictures/IA25_L5.bmp,Pictures/IA25.bmp,"

"It would be smarter to choose the safe option."",0,safe,,,,,0,0,0,0,0,18,18,19,,,,,,,,,,,,,,,,,,,,,,,,,,,,,,,1184.3930133079994,None,1186.4150093529897,1187.9356801559916,1187.9189829889947,None,1189.489777965995,None,1,1191.4449414339906,None,1191.4449414339906,None,1191.4449414339906,None,1192.330611939993,None,1192.330611939993,1193.333244251,1194.436155643998,None,1194.436155643998,None,right,1194.436155643998,None,None,None,1195.137987021997,1196.4414310899883,0.7461983199900715,0.666975405998528,,,,,,,,,,,,,112,001,20,1,2020_Feb_04_1210,Test,3.2.4,59.83232350191831,
Pictures/IA25_G20.bmp,Pictures/IA25_G20.bmp,Pictures/IA25.bmp,"

"I wouldn't gamble for this one. "",0,safe,,,,,0,0,0,0,0,19,19,11,,,,,,,,,,,,,,,,,,,,,,,,,,,,,,,1196.4581384659978,None,1198.4801308149908,1200.0007989359874,1199.9841049969982,None,1201.5549001030013,None,1,1203.5100603579922,None,1203.5100603579922,None,1203.5100603579922,None,1204.5294008919882,None,1204.5294008919882,1205.5320421959914,1206.634949276995,None,1206.634949276995,None,right,1206.634949276995,None,None,None,1207.6041790549934,1208.6402283619973,0.8890849140007049,0.932181911994121,,,,,,,,,,,,,112,001,20,1,2020_Feb_04_1210,Test,3.2.4,59.83232350191831,
,,,,,,,,,,0,0,0,0,,,,,,,,,,,,,,,,,,,,,,,,,,,,,,,,,,,,,,,,,,,,,,,,,,,,,,,,,,,,,,,,,,,,,,,,,1208.890906828994,None,return,34.72421883100469,1208.890906828994,None,112,001,20,1,2020_Feb_04_1210,Test,3.2.4,59.83232350191831,
Pictures/IA25_L5.bmp,Pictures/IA25_L5.bmp,Pictures/IA25.bmp,"

"It would be smarter to choose the safe option."",0,safe,,,,,1,0,1,0,0,0,0,8,,,,,,,,,,,,,1243.7661068789894,None,1243.7661068789894,None,1243.7661068789894,None,left,3.2970307409996167,1243.7661068789894,None,1243.7661068789894,None,1243.7661068789894,None,return,4.248811413999647,1243.7661068789894,None,1248.0774622269964,None,1250.082755585987,1251.6034278649895,1251.5867088779924,None,1253.1073826359934,None,1,1255.095965777,None,1255.095965777,None,1255.095965777,None,1255.8312222069944,None,1255.8312222069944,1256.833861971987,1257.936774116999,None,1257.936774116999,None,right,1257.936774116999,None,None,None,1258.27099327599,1259.9420625519997,0.5991745229985099,0.294369416005793,,,,,,,,,,,,,112,001,20,1,2020_Feb_04_1210,Test,3.2.4,59.83232350191831,
Pictures/IA50_L10.bmp,Pictures/IA50_L10.bmp,Pictures/IA50.bmp,"

"Play it safe, don’t gamble!"",0,safe,,,,,1,0,1,0,0,1,1,15,,,,,,,,,,,,,,,,,,,,,,,,,,,,,,,1259.958762885988,None,1261.9807575619925,1263.501432370991,1263.484768385999,None,1265.0053935899923,None,1,1267.0106780859933,None,1267.0106780859933,None,1267.0106780859933,None,1267.8963547629974,None,1267.8963547629974,1268.898981825987,1270.0018933659885,None,1270.0018933659885,None,right,1270.0018933659885,None,None,None,1270.3361139889894,1272.0071728869952,0.78047456900822,0.28523915899859276,,,,,,,,,,,,,112,001,20,1,2020_Feb_04_1210,Test,3.2.4,59.83232350191831,
Pictures/IA100_L20.bmp,Pictures/IA100_L20.bmp,Pictures/IA100.bmp,"

"Try to win as much money as you can, gamble!"",1,risk,,,,,1,0,1,0,0,2,2,19,,,,,,,,,,,,,,,,,,,,,,,,,,,,,,,1272.023893679987,None,1274.0458863120002,1275.5665584359958,1275.5498397539923,None,1277.1373657449876,None,1,1279.0758091649914,None,1279.0758091649914,None,1279.0758091649914,None,1280.0283190909977,None,1280.0283190909977,1281.0309687239933,1282.1338636699948,None,1282.1338636699948,None,right,1282.1338636699948,None,None,None,1282.6518943729898,1284.1391321679985,0.8033267839928158,0.47327796601166483,,,,,,,,,,,,,112,001,20,1,2020_Feb_04_1210,Test,3.2.4,59.83232350191831,
Pictures/IA40_20_L95p.bmp,Pictures/IA40_20_L95p.bmp,Pictures/IA40.bmp,"

"Trust me, gamble!"",1,risk,,,,,1,0,1,0,0,3,3,2,,,,,,,,,,,,,,,,,,,,,,,,,,,,,,,1284.155855495992,None,1286.1778608619934,1287.6985216429894,1287.68180703299,None,1289.1857785219909,None,1,1291.2913143810001,None,1291.2913143810001,None,1291.2913143810001,None,1291.7090902429918,None,1291.7090902429918,1292.7117304079875,1293.8146390499896,None,1293.8146390499896,None,right,1293.8146390499896,None,None,None,1294.583316985998,1295.819917513989,0.33182272300473414,0.7204969060112489,,,,,,,,,,,,,112,001,20,1,2020_Feb_04_1210,Test,3.2.4,59.83232350191831,
Pictures/IA100_G80.bmp,Pictures/IA100_G80.bmp,Pictures/IA100.bmp,"

"Why not gamble?"",1,risk,,,,,1,0,1,0,0,4,4,9,,,,,,,,,,,,,,,,,,,,,,,,,,,,,,,1295.8366177059943,None,1297.8586380459892,1299.3792841669929,1299.3625879559986,None,1300.9500906339963,None,1,1302.8885367929906,None,1302.8885367929906,None,1302.8885367929906,None,1303.5736809999944,None,1303.5736809999944,1304.5763190079888,1305.679229853995,None,1305.679229853995,None,right,1305.679229853995,None,None,None,1306.4646318079904,1307.66780354199,0.5986110260128044,0.7519211430044379,,,,,,,,,,,,,112,001,20,1,2020_Feb_04_1210,Test,3.2.4,59.83232350191831,
Pictures/IA50_G20.bmp,Pictures/IA50_G20.bmp,Pictures/IA50.bmp,"

"Let's venture and take a risk!"",1,risk,,,,,1,0,1,0,0,5,5,4,,,,,,,,,,,,,,,,,,,,,,,,,,,,,,,1307.6844986499927,None,1309.7064931979985,1311.227166828001,1311.2104699939955,None,1312.7478436679958,None,1,1314.7364309129916,None,1314.7364309129916,None,1314.7364309129916,None,1315.9395831879956,None,1315.9395831879956,1316.9422205479932,1318.0618785509869,None,1318.0618785509869,None,left,1318.0618785509869,None,1318.496328173991,1320.067120156993,None,None,1.102707857004134,0.3932409869885305,,,,,,,,,,,,,112,001,20,1,2020_Feb_04_1210,Test,3.2.4,59.83232350191831,
Pictures/IA25_L20.bmp,Pictures/IA25_L20.bmp,Pictures/IA25.bmp,"

"Don't be tempted to gamble."",0,safe,,,,,1,0,1,0,0,6,6,12,,,,,,,,,,,,,,,,,,,,,,,,,,,,,,,1320.0838424609974,None,1322.1058387929952,1323.6265145049983,1323.6097920159955,None,1325.1806056060013,None,2,1327.1357519229932,None,1327.1357519229932,None,1327.1357519229932,None,None,None,None,None,1328.1718224489887,None,1328.1718224489887,None,left,1328.1718224489887,None,1328.606285663991,1330.1770904349978,None,None,0.8633898059924832,0.3873099639895372,,,,,,,,,,,,,112,001,20,1,2020_Feb_04_1210,Test,3.2.4,59.83232350191831,
Pictures/IA50_G10.bmp,Pictures/IA50_G10.bmp,Pictures/IA50.bmp,"

"Go with the safe option here!"",0,safe,,,,,1,0,1,0,0,7,7,16,,,,,,,,,,,,,,,,,,,,,,,,,,,,,,,1330.1938091810007,None,1332.215810483991,1333.7364778759948,1333.7197621339874,None,1335.2571535919997,None,2,1337.245718360995,None,1337.245718360995,None,1337.245718360995,None,None,None,None,None,1338.0812499229942,None,1338.0812499229942,None,left,1338.0812499229942,None,1339.28442933099,None,None,None,0.6734243740065722,1.1658953429869143,,,,,,,,,,,,,112,001,20,1,2020_Feb_04_1210,Test,3.2.4,59.83232350191831,
Pictures/IA110_55_L95p.bmp,Pictures/IA110_55_L95p.bmp,Pictures/IA110.bmp,"

"Trust me, gamble!"",1,risk,,,,,1,0,1,0,0,8,8,1,,,,,,,,,,,,,,,,,,,,,,,,,,,,,,,1340.1032614939904,None,1342.125235237996,1343.645906558988,1343.629212764994,None,1345.2000036399986,None,2,1347.1551683059952,None,1347.1551683059952,None,1347.1551683059952,None,None,None,None,None,1347.790172078996,None,1347.790172078996,None,right,1347.790172078996,None,None,None,1348.1076746329927,1349.7787431039906,0.48396568100724835,0.28095512799336575,,,,,,,,,,,,,112,001,20,1,2020_Feb_04_1210,Test,3.2.4,59.83232350191831,
Pictures/IA75_G45.bmp,Pictures/IA75_G45.bmp,Pictures/IA75.bmp,"

"Don't gamble for this one."",0,safe,,,,,1,0,1,0,0,9,9,6,,,,,,,,,,,,,,,,,,,,,,,,,,,,,,,1349.7954503229994,None,1351.8174390489876,1353.3381085759902,1353.321414231992,None,1354.9089168929931,None,2,1356.8473564179876,None,1356.8473564179876,None,1356.8473564179876,None,None,None,None,None,1357.849998738995,None,1357.849998738995,None,left,1357.849998738995,None,1359.2035612329928,None,None,None,0.8157845569949131,1.317128782000509,,,,,,,,,,,,,112,001,20,1,2020_Feb_04_1210,Test,3.2.4,59.83232350191831,
Pictures/IA25_G20.bmp,Pictures/IA25_G20.bmp,Pictures/IA25.bmp,"

"I wouldn't gamble for this one. "",0,safe,,,,,1,0,1,0,0,10,10,5,,,,,,,,,,,,,,,,,,,,,,,,,,,,,,,1359.8552818129974,None,1361.877273015998,1363.3979461220006,1363.381248381993,None,1364.8851974759891,None,2,1366.9072057339945,None,1366.9072057339945,None,1366.9072057339945,None,None,None,None,None,1367.3416731729958,None,1367.3416731729958,None,right,1367.3416731729958,None,None,None,1367.7928599469888,1369.3302437239909,0.2599362660112092,0.40146392201131675,,,,,,,,,,,,,112,001,20,1,2020_Feb_04_1210,Test,3.2.4,59.83232350191831,
Pictures/IA100_L40.bmp,Pictures/IA100_L40.bmp,Pictures/IA100.bmp,"

"Think of the payoff, gamble!"",1,risk,,,,,1,0,1,0,0,11,11,14,,,,,,,,,,,,,,,,,,,,,,,,,,,,,,,1369.3469615379872,None,1371.368956508988,1372.8896351529984,1372.872913882995,None,1374.443730865998,None,2,1376.3988675829896,None,1376.3988675829896,None,1376.3988675829896,None,None,None,None,None,1376.9168978829985,None,1376.9168978829985,None,right,1376.9168978829985,None,None,None,1378.3206044059916,None,0.33627765299752355,1.3622409009985859,,,,,,,,,,,,,112,001,20,1,2020_Feb_04_1210,Test,3.2.4,59.83232350191831,
Pictures/IA100_L80.bmp,Pictures/IA100_L80.bmp,Pictures/IA100.bmp,"

"Go all in!"",1,risk,,,,,1,0,1,0,0,12,12,0,,,,,,,,,,,,,,,,,,,,,,,,,,,,,,,1378.9221784190013,None,1380.9441741679912,1382.4648437419964,1382.4481469979946,None,1383.9688163419924,None,2,1385.9740994989988,None,1385.9740994989988,None,1385.9740994989988,None,None,None,None,None,1386.7260794389877,None,1386.7260794389877,None,left,1386.7260794389877,None,1387.6451595149992,1388.7146413709997,None,None,0.6090437279926846,0.8810510400071507,,,,,,,,,,,,,112,001,20,1,2020_Feb_04_1210,Test,3.2.4,59.83232350191831,
Pictures/IA75_L15.bmp,Pictures/IA75_L15.bmp,Pictures/IA75.bmp,"

"Trust me, gamble!"",1,risk,,,,,1,0,1,0,0,13,13,3,,,,,,,,,,,,,,,,,,,,,,,,,,,,,,,1388.731365323998,None,1390.7533605380013,1392.274033046997,1392.25731561899,None,1393.7947068099893,None,2,1395.7832832290005,None,1395.7832832290005,None,1395.7832832290005,None,None,None,None,None,1396.485130680987,None,1396.485130680987,None,right,1396.485130680987,None,None,None,1396.7692086759926,1398.4736879199918,0.5278587920038262,0.24200101599853951,,,,,,,,,,,,,112,001,20,1,2020_Feb_04_1210,Test,3.2.4,59.83232350191831,
Pictures/IA75_G30.bmp,Pictures/IA75_G30.bmp,Pictures/IA75.bmp,"

"Be bold, gamble!"",1,risk,,,,,1,0,1,0,0,14,14,17,,,,,,,,,,,,,,,,,,,,,,,,,,,,,,,1398.4904082499997,None,1400.512412674987,1402.0163598809886,1401.999657331995,None,1403.5537502199877,None,2,1405.5423132659926,None,1405.5423132659926,None,1405.5423132659926,None,None,None,None,None,1406.244171978993,None,1406.244171978993,None,left,1406.244171978993,None,1407.113125880991,1408.2494634149916,None,None,0.5448293540102895,0.8269535940053174,,,,,,,,,,,,,112,001,20,1,2020_Feb_04_1210,Test,3.2.4,59.83232350191831,
Pictures/IA50_G40.bmp,Pictures/IA50_G40.bmp,Pictures/IA50.bmp,"

"It would probably be best to play it safe."",0,safe,,,,,1,0,1,0,0,15,15,7,,,,,,,,,,,,,,,,,,,,,,,,,,,,,,,1408.2661561239947,None,1410.288155672999,1411.8088234999886,1411.792130774993,None,1413.3294966760004,None,2,1415.318081483987,None,1415.318081483987,None,1415.318081483987,None,None,None,None,None,1416.4209737950005,None,1416.4209737950005,None,right,1416.4209737950005,None,None,None,1416.8554609509883,1418.4262542869983,0.889061337991734,0.3861640859977342,,,,,,,,,,,,,112,001,20,1,2020_Feb_04_1210,Test,3.2.4,59.83232350191831,
Pictures/IA25_G5.bmp,Pictures/IA25_G5.bmp,Pictures/IA25.bmp,"

"Let's stay with the certain option."",0,safe,,,,,1,0,1,0,0,16,16,18,,,,,,,,,,,,,,,,,,,,,,,,,,,,,,,1418.4429747799877,None,1420.4649705779884,1421.9856405829923,1421.9689247639908,None,1423.489603420996,None,2,1425.494889417998,None,1425.494889417998,None,1425.494889417998,None,None,None,None,None,1426.4139788780012,None,1426.4139788780012,None,left,1426.4139788780012,None,1426.79832235699,1428.4025480089913,None,None,0.7442766879976261,0.33715562599536497,,,,,,,,,,,,,112,001,20,1,2020_Feb_04_1210,Test,3.2.4,59.83232350191831,
Pictures/IA25_L10.bmp,Pictures/IA25_L10.bmp,Pictures/IA25.bmp,"

"Dont be afraid to take the risk!"",1,risk,,,,,1,0,1,0,0,17,17,13,,,,,,,,,,,,,,,,,,,,,,,,,,,,,,,1428.4192468760011,None,1430.4412439809967,1431.9619157989946,1431.945221861999,None,1433.4825896539987,None,2,1435.4712073359988,None,1435.4712073359988,None,1435.4712073359988,None,None,None,None,None,1436.1396014739876,None,1436.1396014739876,None,right,1436.1396014739876,None,None,None,1436.4236792259908,1438.1281598779897,0.5119227300019702,0.24352868100686464,,,,,,,,,,,,,112,001,20,1,2020_Feb_04_1210,Test,3.2.4,59.83232350191831,
Pictures/IA100_L60.bmp,Pictures/IA100_L60.bmp,Pictures/IA100.bmp,"

"You'd have a lot to lose, don't gamble."",0,safe,,,,,1,0,1,0,0,18,18,11,,,,,,,,,,,,,,,,,,,,,,,,,,,,,,,1438.1448569739878,None,1440.1668766869989,1441.6875116549927,1441.6708363199868,None,1443.2416543019935,None,2,1445.1967864229955,None,1445.1967864229955,None,1445.1967864229955,None,None,None,None,None,1445.948768834991,None,1445.948768834991,None,None,1445.948768834991,None,None,None,None,None,0.5783586739999009,,,,,,,,,,,,,,112,001,20,1,2020_Feb_04_1210,Test,3.2.4,59.83232350191831,
Pictures/IA75_L60.bmp,Pictures/IA75_L60.bmp,Pictures/IA75.bmp,"

"Why not take the gamble?"",1,risk,,,,,1,0,1,0,0,19,19,10,,,,,,,,,,,,,,,,,,,,,,,,,,,,,,,1447.9540490509971,None,1449.976040936992,1451.496712755994,1451.480033980988,None,1453.0675247799954,None,2,1455.005963425996,None,1455.005963425996,None,1455.005963425996,None,None,None,None,None,1455.8080747739878,None,1455.8080747739878,None,left,1455.8080747739878,None,1456.8775671399926,None,None,None,0.6491763480007648,1.0230721260013524,,,,,,,,,,,,,112,001,20,1,2020_Feb_04_1210,Test,3.2.4,59.83232350191831,
,,,,,,,,,,1,0,1,0,,,,,,,,,,,,,,,,,,,,,,,,,,,,,,,,,,,,,,,,,,,,,,,,,,,,,,,,,,,,,,,,,,,,,,,,,1457.9804647339915,None,return,4.018667162003112,1457.9804647339915,None,112,001,20,1,2020_Feb_04_1210,Test,3.2.4,59.83232350191831,
Pictures/IA100_G40.bmp,Pictures/IA100_G40.bmp,Pictures/IA100.bmp,"

"Try your luck and gamble!"",1,risk,,,,,2,0,2,0,0,0,0,5,,,,,,,,,,,,,1462.158136093989,None,1462.158136093989,None,1462.158136093989,None,left,1.4889911149948603,1462.158136093989,None,1462.158136093989,None,1462.158136093989,None,return,2.28078345299582,1462.158136093989,None,1464.4976341609872,None,1466.502925993991,1468.023597840991,1468.0068806130002,None,1469.5108432999987,None,2,1471.516130144999,None,1471.516130144999,None,1471.516130144999,None,None,None,None,None,1472.418503383,None,1472.418503383,None,left,1472.418503383,None,1473.3543088389997,1474.4237919669977,None,None,0.7470128690038109,0.9006299110042164,,,,,,,,,,,,,112,001,20,1,2020_Feb_04_1210,Test,3.2.4,59.83232350191831,
Pictures/IA100_G20.bmp,Pictures/IA100_G20.bmp,Pictures/IA100.bmp,"

"Go ahead and gamble!"",1,risk,,,,,2,0,2,0,0,1,1,4,,,,,,,,,,,,,,,,,,,,,,,,,,,,,,,1474.4404939379892,None,1476.462495774991,1477.9831680759962,1477.9664683179872,None,1479.5038377219898,None,2,1481.4924199809902,None,1481.4924199809902,None,1481.4924199809902,None,None,None,None,None,1481.8767524659925,None,1481.8767524659925,None,left,1481.8767524659925,None,1482.779139817998,1483.8820347629953,None,None,0.21871133899549022,0.8583872339950176,,,,,,,,,,,,,112,001,20,1,2020_Feb_04_1210,Test,3.2.4,59.83232350191831,
Pictures/IA40_20_G95p.bmp,Pictures/IA40_20_G95p.bmp,Pictures/IA40.bmp,"

"Hold back, stay with the safe choice."",0,safe,,,,,2,0,2,0,0,2,2,6,,,,,,,,,,,,,,,,,,,,,,,,,,,,,,,1483.8987553079933,None,1485.9207536059985,1487.4414215019933,1487.424706352991,None,1488.9620976089936,None,2,1490.950659351991,None,1490.950659351991,None,1490.950659351991,None,None,None,None,None,1491.4519915389974,None,1491.4519915389974,None,left,1491.4519915389974,None,1491.886460305992,1493.457271909996,None,None,0.3204861840058584,0.3871478759974707,,,,,,,,,,,,,112,001,20,1,2020_Feb_04_1210,Test,3.2.4,59.83232350191831,
Pictures/IA25_G15.bmp,Pictures/IA25_G15.bmp,Pictures/IA25.bmp,"

"I think you should take a gamble."",1,risk,,,,,2,0,2,0,0,3,3,10,,,,,,,,,,,,,,,,,,,,,,,,,,,,,,,1493.4739705279935,None,1495.4959670149983,1497.016642202987,1496.999948325989,None,1498.5373188199883,None,2,1500.525902504989,None,1500.525902504989,None,1500.525902504989,None,None,None,None,None,1500.9436688389978,None,1500.9436688389978,None,right,1500.9436688389978,None,None,None,1501.2444556599949,1502.9322367279965,0.24124565700185485,0.2554761079954915,,,,,,,,,,,,,112,001,20,1,2020_Feb_04_1210,Test,3.2.4,59.83232350191831,
Pictures/IA75_L45.bmp,Pictures/IA75_L45.bmp,Pictures/IA75.bmp,"

"Don't gamble for this one, play it safe."",0,safe,,,,,2,0,2,0,0,4,4,18,,,,,,,,,,,,,,,,,,,,,,,,,,,,,,,1502.9489334539976,None,1504.9709350069897,1506.4749000339943,1506.458183286988,None,1508.0456957569986,None,2,1510.000862076995,None,1510.000862076995,None,1510.000862076995,None,None,None,None,None,1510.7194200759986,None,1510.7194200759986,None,left,1510.7194200759986,None,1511.2875715799892,1512.7246879299928,None,None,0.5422818029910559,0.5197328649956034,,,,,,,,,,,,,112,001,20,1,2020_Feb_04_1210,Test,3.2.4,59.83232350191831,
Pictures/IA75_G15.bmp,Pictures/IA75_G15.bmp,Pictures/IA75.bmp,"

"Take a chance!"",1,risk,,,,,2,0,2,0,0,5,5,0,,,,,,,,,,,,,,,,,,,,,,,,,,,,,,,1512.7414097719884,None,1514.7634050169872,1516.2840764290013,1516.2673583909927,None,1517.8047520369873,None,2,1519.7933152019978,None,1519.7933152019978,None,1519.7933152019978,None,None,None,None,None,1520.3614796679904,None,1520.3614796679904,None,left,1520.3614796679904,None,1520.6622830659908,1522.350047392989,None,None,0.41381919900595676,0.2536551920056809,,,,,,,,,,,,,112,001,20,1,2020_Feb_04_1210,Test,3.2.4,59.83232350191831,
Pictures/IA80_40_L95p.bmp,Pictures/IA80_40_L95p.bmp,Pictures/IA80.bmp,"

"Let's stay with the certain option."",0,safe,,,,,2,0,2,0,0,6,6,13,,,,,,,,,,,,,,,,,,,,,,,,,,,,,,,1522.3667674399912,None,1524.4054757119884,1525.926146533995,1525.9094291599904,None,1527.4635192239948,None,2,1529.4186847169913,None,1529.4186847169913,None,1529.4186847169913,None,None,None,None,None,1530.1372424189904,None,1530.1372424189904,None,right,1530.1372424189904,None,None,None,1530.3879021949979,1532.1425103489892,0.5404568330122856,0.2138861010025721,,,,,,,,,,,,,112,001,20,1,2020_Feb_04_1210,Test,3.2.4,59.83232350191831,
Pictures/IA100_L80.bmp,Pictures/IA100_L80.bmp,Pictures/IA100.bmp,"

"Go all in!"",1,risk,,,,,2,0,2,0,0,7,7,3,,,,,,,,,,,,,,,,,,,,,,,,,,,,,,,1532.1592327229882,None,1534.1812303089973,1535.7019030800002,1535.6851824689948,None,1537.2225791919918,None,2,1539.211139430001,None,1539.211139430001,None,1539.211139430001,None,None,None,None,None,1540.0968178189942,None,1540.0968178189942,None,left,1540.0968178189942,None,1540.3975940669916,1542.0853867219994,None,None,0.6999945889983792,0.25431603100150824,,,,,,,,,,,,,112,001,20,1,2020_Feb_04_1210,Test,3.2.4,59.83232350191831,
Pictures/IA25_G20.bmp,Pictures/IA25_G20.bmp,Pictures/IA25.bmp,"

"I wouldn't gamble for this one. "",0,safe,,,,,2,0,2,0,0,8,8,7,,,,,,,,,,,,,,,,,,,,,,,,,,,,,,,1542.1020976449945,None,1544.124082187991,1545.644756595997,1545.6280589559901,None,1547.1654292849998,None,2,1549.1540164289909,None,1549.1540164289909,None,1549.1540164289909,None,None,None,None,None,1549.6887427149923,None,1549.6887427149923,None,right,1549.6887427149923,None,None,None,1549.9561210839893,1551.6940101899963,0.36512313300045207,0.22239103200263344,,,,,,,,,,,,,112,001,20,1,2020_Feb_04_1210,Test,3.2.4,59.83232350191831,
Pictures/IA50_L40.bmp,Pictures/IA50_L40.bmp,Pictures/IA50.bmp,"

"That gamble doesn't sound too good, play it safe."",0,safe,,,,,2,0,2,0,0,9,9,15,,,,,,,,,,,,,,,,,,,,,,,,,,,,,,,1551.7107335799956,None,1553.7327633109962,1555.2367098929972,1555.2199849019962,None,1556.80749478699,None,2,1558.7626613069879,None,1558.7626613069879,None,1558.7626613069879,None,None,None,None,None,1559.2639828719985,None,1559.2639828719985,None,left,1559.2639828719985,None,1559.5814814740006,1561.252560555993,None,None,0.3084804649988655,0.2791403739975067,,,,,,,,,,,,,112,001,20,1,2020_Feb_04_1210,Test,3.2.4,59.83232350191831,
Pictures/IA40_20_L95p.bmp,Pictures/IA40_20_L95p.bmp,Pictures/IA40.bmp,"

"Trust me, gamble!"",1,risk,,,,,2,0,2,0,0,10,10,19,,,,,,,,,,,,,,,,,,,,,,,,,,,,,,,1561.2692480499973,None,1563.2912428339914,1564.8119152769941,1564.795219653999,None,1566.3325916139875,None,2,1568.3211750789924,None,1568.3211750789924,None,1568.3211750789924,None,None,None,None,None,1568.7556421629997,None,1568.7556421629997,None,right,1568.7556421629997,None,None,None,1569.056443493988,1570.760921587993,0.2539706770039629,0.2594928830076242,,,,,,,,,,,,,112,001,20,1,2020_Feb_04_1210,Test,3.2.4,59.83232350191831,
Pictures/IA25_L10.bmp,Pictures/IA25_L10.bmp,Pictures/IA25.bmp,"

"Dont be afraid to take the risk!"",1,risk,,,,,2,0,2,0,0,11,11,16,,,,,,,,,,,,,,,,,,,,,,,,,,,,,,,1570.7776429459918,None,1572.799644023995,1574.32030982399,1574.3035980229906,None,1575.8075625019992,None,2,1577.8295596789976,None,1577.8295596789976,None,1577.8295596789976,None,None,None,None,None,1578.8656089019933,None,1578.8656089019933,None,left,1578.8656089019933,None,1579.350217055995,1580.8541937239934,None,None,0.8735823919996619,0.44552540201402735,,,,,,,,,,,,,112,001,20,1,2020_Feb_04_1210,Test,3.2.4,59.83232350191831,
Pictures/IA75_G30.bmp,Pictures/IA75_G30.bmp,Pictures/IA75.bmp,"

"Be bold, gamble!"",1,risk,,,,,2,0,2,0,0,12,12,8,,,,,,,,,,,,,,,,,,,,,,,,,,,,,,,1580.8708986359998,None,1582.8928854929982,1584.4135565869947,1584.3968601239903,None,1585.9175223499915,None,2,1587.9228061019967,None,1587.9228061019967,None,1587.9228061019967,None,None,None,None,None,1588.9421661800006,None,1588.9421661800006,None,left,1588.9421661800006,None,1589.6440042339964,1590.9474510719883,None,None,0.8683488600072451,0.6649688320030691,,,,,,,,,,,,,112,001,20,1,2020_Feb_04_1210,Test,3.2.4,59.83232350191831,
Pictures/IA100_G60.bmp,Pictures/IA100_G60.bmp,Pictures/IA100.bmp,"

"Be cautious, don't gamble for this one."",0,safe,,,,,2,0,2,0,0,13,13,9,,,,,,,,,,,,,,,,,,,,,,,,,,,,,,,1590.9641488099878,None,1592.9861426299904,1594.506818031994,1594.490119932001,None,1596.0609119589935,None,2,1598.016078597997,None,1598.016078597997,None,1598.016078597997,None,None,None,None,None,1598.6677920279908,None,1598.6677920279908,None,right,1598.6677920279908,None,None,None,1598.9852920569974,1600.6563610469893,0.47106749199156184,0.2833437699882779,,,,,,,,,,,,,112,001,20,1,2020_Feb_04_1210,Test,3.2.4,59.83232350191831,
Pictures/IA100_L40.bmp,Pictures/IA100_L40.bmp,Pictures/IA100.bmp,"

"Think of the payoff, gamble!"",1,risk,,,,,2,0,2,0,0,14,14,14,,,,,,,,,,,,,,,,,,,,,,,,,,,,,,,1600.673061331996,None,1602.695054085998,1604.2157284409914,1604.1990294009884,None,1605.7029779359873,None,2,1607.7249888249935,None,1607.7249888249935,None,1607.7249888249935,None,None,None,None,None,1608.4769697469892,None,1608.4769697469892,None,right,1608.4769697469892,None,None,None,1608.7276298399956,1610.4655317659926,0.5701538360008271,0.21017290899180807,,,,,,,,,,,,,112,001,20,1,2020_Feb_04_1210,Test,3.2.4,59.83232350191831,
Pictures/IA100_L20.bmp,Pictures/IA100_L20.bmp,Pictures/IA100.bmp,"

"Try to win as much money as you can, gamble!"",1,risk,,,,,2,0,2,0,0,15,15,12,,,,,,,,,,,,,,,,,,,,,,,,,,,,,,,1610.4822364479915,None,1612.5042344589892,1614.0249043539952,1614.0082122969907,None,1615.528866632987,None,2,1617.534153005996,None,1617.534153005996,None,1617.534153005996,None,None,None,None,None,1618.152457944001,None,1618.152457944001,None,right,1618.152457944001,None,None,None,1618.436538406997,1620.1410154170007,0.42499382499954663,0.24668217499856837,,,,,,,,,,,,,112,001,20,1,2020_Feb_04_1210,Test,3.2.4,59.83232350191831,
Pictures/IA75_G60.bmp,Pictures/IA75_G60.bmp,Pictures/IA75.bmp,"

"Make it exciting, take a chance!"",1,risk,,,,,2,0,2,0,0,16,16,1,,,,,,,,,,,,,,,,,,,,,,,,,,,,,,,1620.157739309987,None,1622.1797503649868,1623.7004047019873,1623.6836865919904,None,1625.2043714389874,None,2,1627.2096548659902,None,1627.2096548659902,None,1627.2096548659902,None,None,None,None,None,1627.7109654829983,None,1627.7109654829983,None,right,1627.7109654829983,None,None,None,1627.9616278049944,1629.6995355229883,0.33348477000254206,0.2161652829963714,,,,,,,,,,,,,112,001,20,1,2020_Feb_04_1210,Test,3.2.4,59.83232350191831,
Pictures/IA25_G5.bmp,Pictures/IA25_G5.bmp,Pictures/IA25.bmp,"

"Let's stay with the certain option."",0,safe,,,,,2,0,2,0,0,17,17,2,,,,,,,,,,,,,,,,,,,,,,,,,,,,,,,1629.7162530159985,None,1631.7382491919998,1633.2589216289925,1633.2422120379924,None,1634.7628850309993,None,2,1636.768165802001,None,1636.768165802001,None,1636.768165802001,None,None,None,None,None,1637.5702704769938,None,1637.5702704769938,None,left,1637.5702704769938,None,1637.8710710429878,1639.5755516899953,None,None,0.6229828729992732,0.2608750829967903,,,,,,,,,,,,,112,001,20,1,2020_Feb_04_1210,Test,3.2.4,59.83232350191831,
Pictures/IA110_55_G95p.bmp,Pictures/IA110_55_G95p.bmp,Pictures/IA110.bmp,"

"Take a chance!"",1,risk,,,,,2,0,2,0,0,18,18,17,,,,,,,,,,,,,,,,,,,,,,,,,,,,,,,1639.5922727689904,None,1641.6142683489888,1643.118219017997,1643.1015217079985,None,1644.6389033179876,None,2,1646.6441882279905,None,1646.6441882279905,None,1646.6441882279905,None,None,None,None,None,1647.3293170239922,None,1647.3293170239922,None,left,1647.3293170239922,None,1647.579972927997,1649.3178849899996,None,None,0.5229578300059075,0.21381807599391323,,,,,,,,,,,,,112,001,20,1,2020_Feb_04_1210,Test,3.2.4,59.83232350191831,
Pictures/IA75_L15.bmp,Pictures/IA75_L15.bmp,Pictures/IA75.bmp,"

"Trust me, gamble!"",1,risk,,,,,2,0,2,0,0,19,19,11,,,,,,,,,,,,,,,,,,,,,,,,,,,,,,,1649.3346203830006,None,1651.3566018129932,1652.8772719629924,1652.860555841995,None,1654.3645273349975,None,2,1656.3865125099983,None,1656.3865125099983,None,1656.3865125099983,None,None,None,None,None,1658.0241708549875,None,1658.0241708549875,None,right,1658.0241708549875,None,None,None,1659.227324839987,None,1.4686308379896218,1.158966043003602,,,,,,,,,,,,,112,001,20,1,2020_Feb_04_1210,Test,3.2.4,59.83232350191831,
,,,,,,,,,,2,0,2,0,,,,,,,,,,,,,,,,,,,,,,,,,,,,,,,,,,,,,,,,,,,,,,,,,,,,,,,,,,,,,,,,,,,,,,,,,1660.196564029,None,return,8.426578221013187,1660.196564029,None,112,001,20,1,2020_Feb_04_1210,Test,3.2.4,59.83232350191831,
Pictures/IA50_L40.bmp,Pictures/IA50_L40.bmp,Pictures/IA50.bmp,"

"That gamble doesn't sound too good, play it safe."",0,safe,,,,,3,0,3,0,0,0,0,8,,,,,,,,,,,,,1668.7858658309997,None,1668.7858658309997,None,1668.7858658309997,None,left,1.4212727050035028,1668.7858658309997,None,1668.7858658309997,None,1668.7858658309997,None,return,2.6690315209998516,1668.7858658309997,None,1671.509689022001,None,1673.51497887999,1675.0356505179952,1675.0189324449893,None,1676.5061903899914,None,2,1678.528189367993,None,1678.528189367993,None,1678.528189367993,None,None,None,None,None,1678.9292456249968,None,1678.9292456249968,None,left,1678.9292456249968,None,1679.5308158819971,1680.9345153459872,None,None,0.2149521990068024,0.5578920039988589,,,,,,,,,,,,,112,001,20,1,2020_Feb_04_1210,Test,3.2.4,59.83232350191831,
Pictures/IA75_G15.bmp,Pictures/IA75_G15.bmp,Pictures/IA75.bmp,"

"Take a chance!"",1,risk,,,,,3,0,3,0,0,1,1,12,,,,,,,,,,,,,,,,,,,,,,,,,,,,,,,1680.9512387279974,None,1682.9732316659938,1684.4939027989894,1684.4771865989896,None,1685.9811553369946,None,2,1688.003141394991,None,1688.003141394991,None,1688.003141394991,None,None,None,None,None,1688.3875054029922,None,1688.3875054029922,None,left,1688.3875054029922,None,1689.1561759629985,1690.3927766699926,None,None,0.22000230000412557,0.7236309199943207,,,,,,,,,,,,,112,001,20,1,2020_Feb_04_1210,Test,3.2.4,59.83232350191831,
Pictures/IA50_G10.bmp,Pictures/IA50_G10.bmp,Pictures/IA50.bmp,"

"Go with the safe option here!"",0,safe,,,,,3,0,3,0,0,2,2,16,,,,,,,,,,,,,,,,,,,,,,,,,,,,,,,1690.409475649998,None,1692.4314712979976,1693.9521430349996,1693.935447582,None,1695.4561116669938,None,2,1697.4613926769962,None,1697.4613926769962,None,1697.4613926769962,None,None,None,None,None,1698.3303585999965,None,1698.3303585999965,None,left,1698.3303585999965,None,1698.9486517990008,1700.3189208279946,None,None,0.6897630550083704,0.5807746350037633,,,,,,,,,,,,,112,001,20,1,2020_Feb_04_1210,Test,3.2.4,59.83232350191831,
Pictures/IA50_G20.bmp,Pictures/IA50_G20.bmp,Pictures/IA50.bmp,"

"Let's venture and take a risk!"",1,risk,,,,,3,0,3,0,0,3,3,6,,,,,,,,,,,,,,,,,,,,,,,,,,,,,,,1700.3356387319945,None,1702.3576342320011,1703.878306210987,1703.8615878199926,None,1705.382273834999,None,2,1707.387555563997,None,1707.387555563997,None,1707.387555563997,None,None,None,None,None,1707.755188160998,None,1707.755188160998,None,left,1707.755188160998,None,1708.0559690129885,1709.7604695099872,None,None,0.2035898360045394,0.2519518219924066,,,,,,,,,,,,,112,001,20,1,2020_Feb_04_1210,Test,3.2.4,59.83232350191831,
Pictures/IA100_L80.bmp,Pictures/IA100_L80.bmp,Pictures/IA100.bmp,"

"Go all in!"",1,risk,,,,,3,0,3,0,0,4,4,2,,,,,,,,,,,,,,,,,,,,,,,,,,,,,,,1709.7771688609937,None,1711.799166976998,1713.319838610987,1713.3031678539992,None,1714.807088741989,None,2,1716.8290953469987,None,1716.8290953469987,None,1716.8290953469987,None,None,None,None,None,1717.23011099,None,1717.23011099,None,left,1717.23011099,None,1717.5142201869894,1719.2187209679978,None,None,0.2580578850029269,0.24102310500165913,,,,,,,,,,,,,112,001,20,1,2020_Feb_04_1210,Test,3.2.4,59.83232350191831,
Pictures/IA25_G20.bmp,Pictures/IA25_G20.bmp,Pictures/IA25.bmp,"

"I wouldn't gamble for this one. "",0,safe,,,,,3,0,3,0,0,5,5,3,,,,,,,,,,,,,,,,,,,,,,,,,,,,,,,1719.2354292979871,None,1721.2574176589987,1722.7780860899948,1722.7613909179927,None,1724.298766879001,None,2,1726.2873492959916,None,1726.2873492959916,None,1726.2873492959916,None,None,None,None,None,1726.7719578079996,None,1726.7719578079996,None,right,1726.7719578079996,None,None,None,1727.0560392329935,1728.7605148689909,0.2717990649980493,0.24317757900280412,,,,,,,,,,,,,112,001,20,1,2020_Feb_04_1210,Test,3.2.4,59.83232350191831,
Pictures/IA80_40_G95p.bmp,Pictures/IA80_40_G95p.bmp,Pictures/IA80.bmp,"

"Think of the payoff, gamble!"",1,risk,,,,,3,0,3,0,0,6,6,1,,,,,,,,,,,,,,,,,,,,,,,,,,,,,,,1728.7772370589955,None,1730.7992312209972,1732.319904167991,1732.303189155995,None,1733.9241322320013,None,2,1735.8291530209972,None,1735.8291530209972,None,1735.8291530209972,None,None,None,None,None,1736.5309956579877,None,1736.5309956579877,None,left,1736.5309956579877,None,1736.7816490839905,1738.5195582029992,None,None,0.5219909459992778,0.21213085600174963,,,,,,,,,,,,,112,001,20,1,2020_Feb_04_1210,Test,3.2.4,59.83232350191831,
Pictures/IA100_G60.bmp,Pictures/IA100_G60.bmp,Pictures/IA100.bmp,"

"Be cautious, don't gamble for this one."",0,safe,,,,,3,0,3,0,0,7,7,18,,,,,,,,,,,,,,,,,,,,,,,,,,,,,,,1738.5362827579957,None,1740.5583037420001,1742.062225111993,1742.0455307649972,None,1743.582911968988,None,2,1745.5882362799894,None,1745.5882362799894,None,1745.5882362799894,None,None,None,None,None,1746.5240173459897,None,1746.5240173459897,None,left,1746.5240173459897,None,1746.8081105949968,1748.5125634899887,None,None,0.7228963460074738,0.24315160200058017,,,,,,,,,,,,,112,001,20,1,2020_Feb_04_1210,Test,3.2.4,59.83232350191831,
Pictures/IA80_40_L95p.bmp,Pictures/IA80_40_L95p.bmp,Pictures/IA80.bmp,"

"Let's stay with the certain option."",0,safe,,,,,3,0,3,0,0,8,8,19,,,,,,,,,,,,,,,,,,,,,,,,,,,,,,,1748.5292855669977,None,1750.5512621489906,1752.071930370992,1752.0552465179935,None,1753.575892748995,None,2,1755.5811804319965,None,1755.5811804319965,None,1755.5811804319965,None,None,None,None,None,1756.2997415339923,None,1756.2997415339923,None,right,1756.2997415339923,None,None,None,1756.400017174994,1758.3050188289926,0.5059743089950643,0.05938728299224749,,,,,,,,,,,,,112,001,20,1,2020_Feb_04_1210,Test,3.2.4,59.83232350191831,
Pictures/IA25_G10.bmp,Pictures/IA25_G10.bmp,Pictures/IA25.bmp,"

"What's life without a little risk?"",1,risk,,,,,3,0,3,0,0,9,9,11,,,,,,,,,,,,,,,,,,,,,,,,,,,,,,,1758.3217415379913,None,1760.3437350859895,1761.8476851960004,1761.8309891099925,None,1763.3850826919952,None,2,1765.3736414669984,None,1765.3736414669984,None,1765.3736414669984,None,None,None,None,None,1766.2426168459933,None,1766.2426168459933,None,right,1766.2426168459933,None,None,None,1767.4457693229924,None,0.697495432003052,1.1565250169951469,,,,,,,,,,,,,112,001,20,1,2020_Feb_04_1210,Test,3.2.4,59.83232350191831,
Pictures/IA100_L20.bmp,Pictures/IA100_L20.bmp,Pictures/IA100.bmp,"

"Try to win as much money as you can, gamble!"",1,risk,,,,,3,0,3,0,0,10,10,0,,,,,,,,,,,,,,,,,,,,,,,,,,,,,,,1768.264607057994,None,1770.2865976489993,1771.8072678559984,1771.7905488830002,None,1773.3112342659879,None,2,1775.3165174809983,None,1775.3165174809983,None,1775.3165174809983,None,None,None,None,None,1776.068499133995,None,1776.068499133995,None,right,1776.068499133995,None,None,None,1776.185470654993,1778.0570660719968,0.5706303149927408,0.0826338179904269,,,,,,,,,,,,,112,001,20,1,2020_Feb_04_1210,Test,3.2.4,59.83232350191831,
Pictures/IA50_L20.bmp,Pictures/IA50_L20.bmp,Pictures/IA50.bmp,"

"Certainty is boring, take a risk!"",1,risk,,,,,3,0,3,0,0,11,11,13,,,,,,,,,,,,,,,,,,,,,,,,,,,,,,,1778.0737689269881,None,1780.0957627989992,1781.6164335299982,1781.5997377159947,None,1783.1872401019937,None,2,1785.1256839359994,None,1785.1256839359994,None,1785.1256839359994,None,None,None,None,None,1786.679780726001,None,1786.679780726001,None,right,1786.679780726001,None,None,None,1787.481898795988,1788.6850670369895,1.3854507219948573,0.7593509510043077,,,,,,,,,,,,,112,001,20,1,2020_Feb_04_1210,Test,3.2.4,59.83232350191831,
Pictures/IA100_L60.bmp,Pictures/IA100_L60.bmp,Pictures/IA100.bmp,"

"You'd have a lot to lose, don't gamble."",0,safe,,,,,3,0,3,0,0,12,12,9,,,,,,,,,,,,,,,,,,,,,,,,,,,,,,,1788.701767972001,None,1790.7237627509894,1792.2444470609917,1792.2277431099938,None,1793.7651466499956,None,2,1795.7536961019941,None,1795.7536961019941,None,1795.7536961019941,None,None,None,None,None,1796.806469639996,None,1796.806469639996,None,right,1796.806469639996,None,None,None,1797.0738248489943,1798.8117360189935,0.8694437910016859,0.22466778599482495,,,,,,,,,,,,,112,001,20,1,2020_Feb_04_1210,Test,3.2.4,59.83232350191831,
Pictures/IA40_20_G95p.bmp,Pictures/IA40_20_G95p.bmp,Pictures/IA40.bmp,"

"Hold back, stay with the safe choice."",0,safe,,,,,3,0,3,0,0,13,13,5,,,,,,,,,,,,,,,,,,,,,,,,,,,,,,,1798.828458953998,None,1800.8504560180008,1802.371156795998,1802.3544070319913,None,1803.8917995279917,None,2,1805.880362882992,None,1805.880362882992,None,1805.880362882992,None,None,None,None,None,1806.649066086,None,1806.649066086,None,left,1806.649066086,None,1806.7994580679951,1808.6376230819878,None,None,0.5907790680066682,0.11005935800494626,,,,,,,,,,,,,112,001,20,1,2020_Feb_04_1210,Test,3.2.4,59.83232350191831,
Pictures/IA75_G45.bmp,Pictures/IA75_G45.bmp,Pictures/IA75.bmp,"

"Don't gamble for this one."",0,safe,,,,,3,0,3,0,0,14,14,15,,,,,,,,,,,,,,,,,,,,,,,,,,,,,,,1808.6543443239934,None,1810.6763392659923,1812.1970124829968,1812.1802992640005,None,1813.7009759229986,None,2,1815.706262502994,None,1815.706262502994,None,1815.706262502994,None,None,None,None,None,1816.7256002639915,None,1816.7256002639915,None,left,1816.7256002639915,None,1818.3632566640008,None,None,None,0.8688793879991863,1.6015278630075045,,,,,,,,,,,,,112,001,20,1,2020_Feb_04_1210,Test,3.2.4,59.83232350191831,
Pictures/IA75_L45.bmp,Pictures/IA75_L45.bmp,Pictures/IA75.bmp,"

"Don't gamble for this one, play it safe."",0,safe,,,,,3,0,3,0,0,15,15,10,,,,,,,,,,,,,,,,,,,,,,,,,,,,,,,1818.747608026999,None,1820.7695982869918,1822.2902689299954,1822.273553977997,None,1824.0616083630011,None,2,1825.7995185889886,None,1825.7995185889886,None,1825.7995185889886,None,None,None,None,None,1826.6517659599922,None,1826.6517659599922,None,left,1826.6517659599922,None,1826.7520152949874,1828.6570436939946,None,None,0.6796167859865818,0.05135524200159125,,,,,,,,,,,,,112,001,20,1,2020_Feb_04_1210,Test,3.2.4,59.83232350191831,
Pictures/IA25_L10.bmp,Pictures/IA25_L10.bmp,Pictures/IA25.bmp,"

"Dont be afraid to take the risk!"",1,risk,,,,,3,0,3,0,0,16,16,4,,,,,,,,,,,,,,,,,,,,,,,,,,,,,,,1828.673744374988,None,1830.6957423040003,1832.2164099899965,1832.199717372001,None,1833.7370843789977,None,2,1835.7256711910013,None,1835.7256711910013,None,1835.7256711910013,None,None,None,None,None,1836.4776553229894,None,1836.4776553229894,None,right,1836.4776553229894,None,None,None,1836.5277817639872,1838.4662186919886,0.5774697760061827,0.001482280989876017,,,,,,,,,,,,,112,001,20,1,2020_Feb_04_1210,Test,3.2.4,59.83232350191831,
Pictures/IA50_G30.bmp,Pictures/IA50_G30.bmp,Pictures/IA50.bmp,"

"I think you should gamble."",1,risk,,,,,3,0,3,0,0,17,17,14,,,,,,,,,,,,,,,,,,,,,,,,,,,,,,,1838.4829195639904,None,1840.5049146999954,1842.0255859249883,1842.0088912069914,None,1843.5462645279913,None,2,1845.5348475999926,None,1845.5348475999926,None,1845.5348475999926,None,None,None,None,None,1846.2366915179882,None,1846.2366915179882,None,left,1846.2366915179882,None,1846.5040653079923,1848.2419894349878,None,None,0.5202902009914396,0.21843189500214066,,,,,,,,,,,,,112,001,20,1,2020_Feb_04_1210,Test,3.2.4,59.83232350191831,
Pictures/IA50_G40.bmp,Pictures/IA50_G40.bmp,Pictures/IA50.bmp,"

"It would probably be best to play it safe."",0,safe,,,,,3,0,3,0,0,18,18,17,,,,,,,,,,,,,,,,,,,,,,,,,,,,,,,1848.2586759309925,None,1850.2806702359958,1851.801341530998,1851.7846455139952,None,1853.3220164480008,None,2,1855.31060212999,None,1855.31060212999,None,1855.31060212999,None,None,None,None,None,1856.363364904988,None,1856.363364904988,None,right,1856.363364904988,None,None,None,1856.8981172399945,1858.3686525589874,0.8645375070045702,0.49976296100066975,,,,,,,,,,,,,112,001,20,1,2020_Feb_04_1210,Test,3.2.4,59.83232350191831,
Pictures/IA25_G5.bmp,Pictures/IA25_G5.bmp,Pictures/IA25.bmp,"

"Let's stay with the certain option."",0,safe,,,,,3,0,3,0,0,19,19,7,,,,,,,,,,,,,,,,,,,,,,,,,,,,,,,1858.3853556569957,None,1860.4073485099943,1861.928024060995,1861.9113240899896,None,1863.415274214989,None,2,1865.4372806009924,None,1865.4372806009924,None,1865.4372806009924,None,None,None,None,None,1866.2226846900012,None,1866.2226846900012,None,left,1866.2226846900012,None,1867.2587437299953,None,None,None,0.5698610590043245,0.9924418510054238,,,,,,,,,,,,,112,001,20,1,2020_Feb_04_1210,Test,3.2.4,59.83232350191831,
,,,,,,,,,,3,0,3,0,,,,,,,,,,,,,,,,,,,,,,,,,,,,,,,,,,,,,,,,,,,,,,,,,,,,,,,,,,,,,,,,,,,,,,,,,1868.3950628489984,None,return,3.516067310993094,1868.3950628489984,None,112,001,20,1,2020_Feb_04_1210,Test,3.2.4,59.83232350191831,
Pictures/IA75_L15.bmp,Pictures/IA75_L15.bmp,Pictures/IA75.bmp,"

"Trust me, gamble!"",1,risk,,,,,4,0,4,0,0,0,0,15,,,,,,,,,,,,,1872.0714135849994,None,1872.0714135849994,None,1872.0714135849994,None,left,0.8157194819941651,1872.0714135849994,None,1872.0714135849994,None,1872.0714135849994,None,return,1.8955044880131027,1872.0714135849994,None,1874.0098620149947,None,1876.0151365249912,1877.5358101969905,1877.519115211995,None,1879.0564821589942,None,2,1881.0450744539994,None,1881.0450744539994,None,1881.0450744539994,None,None,None,None,None,1881.7636199319968,None,1881.7636199319968,None,right,1881.7636199319968,None,None,None,1882.5323156199884,1883.7688981399988,0.5620661740103969,0.7235174609959358,,,,,,,,,,,,,112,001,20,1,2020_Feb_04_1210,Test,3.2.4,59.83232350191831,
Pictures/IA25_G20.bmp,Pictures/IA25_G20.bmp,Pictures/IA25.bmp,"

"I wouldn't gamble for this one. "",0,safe,,,,,4,0,4,0,0,1,1,5,,,,,,,,,,,,,,,,,,,,,,,,,,,,,,,1883.785615759989,None,1885.8076171219873,1887.3282837999868,1887.3115684319928,None,1888.8489594349958,None,2,1890.8375240739988,None,1890.8375240739988,None,1890.8375240739988,None,None,None,None,None,1891.3054328719882,None,1891.3054328719882,None,left,1891.3054328719882,None,1891.5393681939895,1893.3107177399943,None,None,0.2976291469967691,0.19770146200607996,,,,,,,,,,,,,112,001,20,1,2020_Feb_04_1210,Test,3.2.4,59.83232350191831,
Pictures/IA75_G15.bmp,Pictures/IA75_G15.bmp,Pictures/IA75.bmp,"

"Take a chance!"",1,risk,,,,,4,0,4,0,0,2,2,17,,,,,,,,,,,,,,,,,,,,,,,,,,,,,,,1893.3274218609877,None,1895.349407613001,1896.8700792669988,1896.8533814900002,None,1898.3740418139932,None,2,1900.3793289889873,None,1900.3793289889873,None,1900.3793289889873,None,None,None,None,None,1901.047754868996,None,1901.047754868996,None,left,1901.047754868996,None,1901.1981493519997,1903.0530453089887,None,None,0.515810662007425,0.11137128299742471,,,,,,,,,,,,,112,001,20,1,2020_Feb_04_1210,Test,3.2.4,59.83232350191831,
Pictures/IA25_G5.bmp,Pictures/IA25_G5.bmp,Pictures/IA25.bmp,"

"Let's stay with the certain option."",0,safe,,,,,4,0,4,0,0,3,3,14,,,,,,,,,,,,,,,,,,,,,,,,,,,,,,,1903.069746588997,None,1905.0917413839925,1906.6124198069883,1906.5957158969977,None,1908.099665404996,None,2,1910.1216782679985,None,1910.1216782679985,None,1910.1216782679985,None,None,None,None,None,1910.9571943599876,None,1910.9571943599876,None,right,1910.9571943599876,None,None,None,1912.477868475995,None,0.6614669030095683,1.4819340539979748,,,,,,,,,,,,,112,001,20,1,2020_Feb_04_1210,Test,3.2.4,59.83232350191831,
Pictures/IA25_L10.bmp,Pictures/IA25_L10.bmp,Pictures/IA25.bmp,"

"Dont be afraid to take the risk!"",1,risk,,,,,4,0,4,0,0,4,4,19,,,,,,,,,,,,,,,,,,,,,,,,,,,,,,,1912.9624914179876,None,1914.984482341999,1916.488432389,1916.4717341270007,None,1917.9924131449952,None,2,1920.014391381992,None,1920.014391381992,None,1920.014391381992,None,None,None,None,None,1920.4488788390008,None,1920.4488788390008,None,left,1920.4488788390008,None,1922.0865149599995,None,None,None,0.26475573699281085,1.598247263013036,,,,,,,,,,,,,112,001,20,1,2020_Feb_04_1210,Test,3.2.4,59.83232350191831,
Pictures/IA80_40_L95p.bmp,Pictures/IA80_40_L95p.bmp,Pictures/IA80.bmp,"

"Let's stay with the certain option."",0,safe,,,,,4,0,4,0,0,5,5,18,,,,,,,,,,,,,,,,,,,,,,,,,,,,,,,1922.4708627520013,None,1924.492855628996,1926.0135241679964,1925.9968291289988,None,1927.5342016489885,None,2,1929.522787201,None,1929.522787201,None,1929.522787201,None,None,None,None,None,1930.4752966309898,None,1930.4752966309898,None,right,1930.4752966309898,None,None,None,1930.6256881719892,1932.4805732479872,0.7803572460106807,0.11583449099271093,,,,,,,,,,,,,112,001,20,1,2020_Feb_04_1210,Test,3.2.4,59.83232350191831,
Pictures/IA100_G20.bmp,Pictures/IA100_G20.bmp,Pictures/IA100.bmp,"

"Go ahead and gamble!"",1,risk,,,,,4,0,4,0,0,6,6,12,,,,,,,,,,,,,,,,,,,,,,,,,,,,,,,1932.4972742059908,None,1934.5192695489968,1936.0399413829873,1936.0232459819963,None,1937.5606168259983,None,2,1939.5492012139875,None,1939.5492012139875,None,1939.5492012139875,None,None,None,None,None,1940.2343369449954,None,1940.2343369449954,None,left,1940.2343369449954,None,1940.4348663529963,1942.2229080399993,None,None,0.5299391799926525,0.16478598499088548,,,,,,,,,,,,,112,001,20,1,2020_Feb_04_1210,Test,3.2.4,59.83232350191831,
Pictures/IA75_L30.bmp,Pictures/IA75_L30.bmp,Pictures/IA75.bmp,"

"Hold back, stay with the safe choice."",0,safe,,,,,4,0,4,0,0,7,7,1,,,,,,,,,,,,,,,,,,,,,,,,,,,,,,,1942.2396193919994,None,1944.2616034729872,1945.782275190999,1945.7655776729953,None,1947.369793588994,None,2,1949.2915347109956,None,1949.2915347109956,None,1949.2915347109956,None,None,None,None,None,1949.9933738639957,None,1949.9933738639957,None,right,1949.9933738639957,None,None,None,1950.076927119997,1951.981958801989,0.5236078480083961,0.04575939101050608,,,,,,,,,,,,,112,001,20,1,2020_Feb_04_1210,Test,3.2.4,59.83232350191831,
Pictures/IA25_G10.bmp,Pictures/IA25_G10.bmp,Pictures/IA25.bmp,"

"What's life without a little risk?"",1,risk,,,,,4,0,4,0,0,8,8,4,,,,,,,,,,,,,,,,,,,,,,,,,,,,,,,1951.9986524169944,None,1954.0206481919886,1955.5246214529907,1955.5079002679995,None,1957.0285725529975,None,2,1959.050581176998,None,1959.050581176998,None,1959.050581176998,None,None,None,None,None,1959.8025583879935,None,1959.8025583879935,None,left,1959.8025583879935,None,1959.9863755359984,1961.8078349009884,None,None,0.5805522669979837,0.14857034099986777,,,,,,,,,,,,,112,001,20,1,2020_Feb_04_1210,Test,3.2.4,59.83232350191831,
Pictures/IA50_L10.bmp,Pictures/IA50_L10.bmp,Pictures/IA50.bmp,"

"Play it safe, don’t gamble!"",0,safe,,,,,4,0,4,0,0,9,9,9,,,,,,,,,,,,,,,,,,,,,,,,,,,,,,,1961.8245497850003,None,1963.8465493449912,1965.3672164419986,1965.3504985990003,None,1966.8878945350007,None,2,1968.8764572749933,None,1968.8764572749933,None,1968.8764572749933,None,None,None,None,None,1969.5448951569997,None,1969.5448951569997,None,left,1969.5448951569997,None,1969.645144641996,1971.5501743419882,None,None,0.490682913994533,0.054241010002442636,,,,,,,,,,,,,112,001,20,1,2020_Feb_04_1210,Test,3.2.4,59.83232350191831,
Pictures/IA25_L20.bmp,Pictures/IA25_L20.bmp,Pictures/IA25.bmp,"

"Don't be tempted to gamble."",0,safe,,,,,4,0,4,0,0,10,10,0,,,,,,,,,,,,,,,,,,,,,,,,,,,,,,,1971.5668733899947,None,1973.5888686830003,1975.0928401579877,1975.0761211649951,None,1976.6302149580006,None,2,1978.618799760996,None,1978.618799760996,None,1978.618799760996,None,None,None,None,None,1979.6214413470007,None,1979.6214413470007,None,left,1979.6214413470007,None,1979.7384131569997,1981.6100081089971,None,None,0.812349706000532,0.07369569299044088,,,,,,,,,,,,,112,001,20,1,2020_Feb_04_1210,Test,3.2.4,59.83232350191831,
Pictures/IA75_G45.bmp,Pictures/IA75_G45.bmp,Pictures/IA75.bmp,"

"Don't gamble for this one."",0,safe,,,,,4,0,4,0,0,11,11,11,,,,,,,,,,,,,,,,,,,,,,,,,,,,,,,1981.626711252,None,1983.6487107519933,1985.1693772069993,1985.152679936,None,1986.6900632269972,None,2,1988.6786362669955,None,1988.6786362669955,None,1988.6786362669955,None,None,None,None,None,1989.4138973459922,None,1989.4138973459922,None,left,1989.4138973459922,None,1990.4499673050013,None,None,None,0.5605154819932068,1.0012402159918565,,,,,,,,,,,,,112,001,20,1,2020_Feb_04_1210,Test,3.2.4,59.83232350191831,
Pictures/IA25_G15.bmp,Pictures/IA25_G15.bmp,Pictures/IA25.bmp,"

"I think you should take a gamble."",1,risk,,,,,4,0,4,0,0,12,12,7,,,,,,,,,,,,,,,,,,,,,,,,,,,,,,,1991.4358959389938,None,1993.4578919579944,1994.978565087993,1994.961847144994,None,1996.4992386709928,None,2,1998.487804503995,None,1998.487804503995,None,1998.487804503995,None,None,None,None,None,1999.5572976939875,None,1999.5572976939875,None,left,1999.5572976939875,None,1999.6909687849984,2001.5625659729994,None,None,0.8873480139882304,0.08984082099050283,,,,,,,,,,,,,112,001,20,1,2020_Feb_04_1210,Test,3.2.4,59.83232350191831,
Pictures/IA75_L45.bmp,Pictures/IA75_L45.bmp,Pictures/IA75.bmp,"

"Don't gamble for this one, play it safe."",0,safe,,,,,4,0,4,0,0,13,13,13,,,,,,,,,,,,,,,,,,,,,,,,,,,,,,,2001.5792875810002,None,2003.6012817839946,2005.1219715969928,2005.105236959993,None,2006.642629132999,None,2,2008.6312103620003,None,2008.6312103620003,None,2008.6312103620003,None,None,None,None,None,2009.5837016189907,None,2009.5837016189907,None,left,2009.5837016189907,None,2010.2521516699926,2011.5889921759954,None,None,0.7839085870073177,0.631424684994272,,,,,,,,,,,,,112,001,20,1,2020_Feb_04_1210,Test,3.2.4,59.83232350191831,
Pictures/IA75_G60.bmp,Pictures/IA75_G60.bmp,Pictures/IA75.bmp,"

"Make it exciting, take a chance!"",1,risk,,,,,4,0,4,0,0,14,14,3,,,,,,,,,,,,,,,,,,,,,,,,,,,,,,,2011.6056912979984,None,2013.6276876669872,2015.1483577359904,2015.131662396001,None,2016.6690349599958,None,2,2018.6576260089932,None,2018.6576260089932,None,2018.6576260089932,None,None,None,None,None,2019.5098639909993,None,2019.5098639909993,None,left,2019.5098639909993,None,2019.6268359829992,2021.4983946229913,None,None,0.6455143429921009,0.07326977400225587,,,,,,,,,,,,,112,001,20,1,2020_Feb_04_1210,Test,3.2.4,59.83232350191831,
Pictures/IA75_L60.bmp,Pictures/IA75_L60.bmp,Pictures/IA75.bmp,"

"Why not take the gamble?"",1,risk,,,,,4,0,4,0,0,15,15,10,,,,,,,,,,,,,,,,,,,,,,,,,,,,,,,2021.5151327959902,None,2023.537125206989,2025.0577999339876,2025.0411030949908,None,2026.5951858810004,None,2,2028.5670497039973,None,2028.5670497039973,None,2028.5670497039973,None,None,None,None,None,2029.8872032569925,None,2029.8872032569925,None,left,2029.8872032569925,None,2030.672602761988,2031.8757636279915,None,None,1.1680911740113515,0.7439339659904363,,,,,,,,,,,,,112,001,20,1,2020_Feb_04_1210,Test,3.2.4,59.83232350191831,
Pictures/IA100_L40.bmp,Pictures/IA100_L40.bmp,Pictures/IA100.bmp,"

"Think of the payoff, gamble!"",1,risk,,,,,4,0,4,0,0,16,16,6,,,,,,,,,,,,,,,,,,,,,,,,,,,,,,,2031.8924829549942,None,2033.9144779389899,2035.4351528459956,2035.4184371439915,None,2036.9391147939896,None,2,2038.9444008159917,None,2038.9444008159917,None,2038.9444008159917,None,None,None,None,None,2039.83005800299,None,2039.83005800299,None,left,2039.83005800299,None,2041.5846758739935,None,None,None,0.6947378100012429,1.7050823400059016,,,,,,,,,,,,,112,001,20,1,2020_Feb_04_1210,Test,3.2.4,59.83232350191831,
Pictures/IA110_55_L95p.bmp,Pictures/IA110_55_L95p.bmp,Pictures/IA110.bmp,"

"Trust me, gamble!"",1,risk,,,,,4,0,4,0,0,17,17,2,,,,,,,,,,,,,,,,,,,,,,,,,,,,,,,2041.8520566099905,None,2043.87405148799,2045.394722675992,2045.378008091997,None,2046.9153978949907,None,2,2048.9039607429877,None,2048.9039607429877,None,2048.9039607429877,None,None,None,None,None,2049.655955347989,None,2049.655955347989,None,right,2049.655955347989,None,None,None,2049.8564681839925,2051.6612236889923,0.5991756209987216,0.15117182998801582,,,,,,,,,,,,,112,001,20,1,2020_Feb_04_1210,Test,3.2.4,59.83232350191831,
Pictures/IA50_L20.bmp,Pictures/IA50_L20.bmp,Pictures/IA50.bmp,"

"Certainty is boring, take a risk!"",1,risk,,,,,4,0,4,0,0,18,18,8,,,,,,,,,,,,,,,,,,,,,,,,,,,,,,,2051.6779024159914,None,2053.6999435069883,2055.2206132969877,2055.2038955759926,None,2056.707866478988,None,2,2058.729849160998,None,2058.729849160998,None,2058.729849160998,None,None,None,None,None,2059.632224832996,None,2059.632224832996,None,left,2059.632224832996,None,2060.5178936009906,2061.620803523998,None,None,0.7412956949992804,0.8389095239981543,,,,,,,,,,,,,112,001,20,1,2020_Feb_04_1210,Test,3.2.4,59.83232350191831,
Pictures/IA25_L15.bmp,Pictures/IA25_L15.bmp,Pictures/IA25.bmp,"

"There's not much on the line here, gamble!"",1,risk,,,,,4,0,4,0,0,19,19,16,,,,,,,,,,,,,,,,,,,,,,,,,,,,,,,2061.637506151994,None,2063.6595111809875,2065.163463582998,2065.146768955994,None,2066.684147808992,None,2,2068.6894330789946,None,2068.6894330789946,None,2068.6894330789946,None,None,None,None,None,2069.69206163699,None,2069.69206163699,None,left,2069.69206163699,None,2070.343777695991,2071.6805959740013,None,None,0.8217135749873705,0.6110753329994623,,,,,,,,,,,,,112,001,20,1,2020_Feb_04_1210,Test,3.2.4,59.83232350191831,
,,,,,,,,,,4,0,4,0,,,,,,,,,,,,,,,,,,,,,,,,,,,,,,,,,,,,,,,,,,,,,,,,,,,,,,,,,,,,,,,,,,,,,,,,,2071.847755343988,None,return,4.559392929993919,2071.847755343988,None,112,001,20,1,2020_Feb_04_1210,Test,3.2.4,59.83232350191831,
Pictures/IA25_G15.bmp,Pictures/IA25_G15.bmp,Pictures/IA25.bmp,"

"I think you should take a gamble."",1,risk,,,,,5,0,5,0,0,0,0,12,,,,,,,,,,,,,2076.5601363079913,None,2076.5601363079913,None,2076.5601363079913,None,left,0.8469951790029882,2076.5601363079913,None,2076.5601363079913,None,2076.5601363079913,None,return,1.4387942689936608,2076.5601363079913,None,2078.064137809997,None,2080.069402889989,2081.590072481995,2081.5733396079886,None,2083.0940474519884,None,2,2085.0826178069983,None,2085.0826178069983,None,2085.0826178069983,None,None,None,None,None,2086.118682348999,None,2086.118682348999,None,right,2086.118682348999,None,None,None,2087.0043479129963,2088.1072415099916,0.8605256459995871,0.8484535060124472,,,,,,,,,,,,,112,001,20,1,2020_Feb_04_1210,Test,3.2.4,59.83232350191831,
Pictures/IA75_G30.bmp,Pictures/IA75_G30.bmp,Pictures/IA75.bmp,"

"Be bold, gamble!"",1,risk,,,,,5,0,5,0,0,1,1,19,,,,,,,,,,,,,,,,,,,,,,,,,,,,,,,2088.123962952988,None,2090.1459637249936,2091.6666396179935,2091.6499119319924,None,2093.1706076209957,None,2,2095.175881417992,None,2095.175881417992,None,2095.175881417992,None,None,None,None,None,2096.211940495996,None,2096.211940495996,None,left,2096.211940495996,None,2097.248001397995,None,None,None,0.8792431260080775,0.9871978339942871,,,,,,,,,,,,,112,001,20,1,2020_Feb_04_1210,Test,3.2.4,59.83232350191831,
Pictures/IA50_G40.bmp,Pictures/IA50_G40.bmp,Pictures/IA50.bmp,"

"It would probably be best to play it safe."",0,safe,,,,,5,0,5,0,0,2,2,1,,,,,,,,,,,,,,,,,,,,,,,,,,,,,,,2098.2339349459944,None,2100.2559196879884,2101.7765900619997,2101.759891704991,None,2103.2638415429974,None,2,2105.2858512289968,None,2105.2858512289968,None,2105.2858512289968,None,None,None,None,None,2106.004408651992,None,2106.004408651992,None,right,2106.004408651992,None,None,None,2107.1072997689917,None,0.5052951770048821,1.0667242939962307,,,,,,,,,,,,,112,001,20,1,2020_Feb_04_1210,Test,3.2.4,59.83232350191831,
Pictures/IA20_10_G95p.bmp,Pictures/IA20_10_G95p.bmp,Pictures/IA20.bmp,"

"Take a leap, I think you should gamble."",1,risk,,,,,5,0,5,0,0,3,3,4,,,,,,,,,,,,,,,,,,,,,,,,,,,,,,,2108.0263865279994,None,2110.065095341997,2111.585730243998,2111.569070395999,None,2113.1231599049934,None,2,2115.0783034469932,None,2115.0783034469932,None,2115.0783034469932,None,None,None,None,None,2115.7299896959885,None,2115.7299896959885,None,left,2115.7299896959885,None,2115.9472580049915,2117.7186011299927,None,None,0.4808310169901233,0.17314503200759646,,,,,,,,,,,,,112,001,20,1,2020_Feb_04_1210,Test,3.2.4,59.83232350191831,
Pictures/IA100_G80.bmp,Pictures/IA100_G80.bmp,Pictures/IA100.bmp,"

"Why not gamble?"",1,risk,,,,,5,0,5,0,0,4,4,6,,,,,,,,,,,,,,,,,,,,,,,,,,,,,,,2117.7353020679875,None,2119.757295719988,2121.277973710996,2121.2612752029963,None,2122.781932949001,None,2,2124.7872182919964,None,2124.7872182919964,None,2124.7872182919964,None,None,None,None,None,2125.1214297409897,None,2125.1214297409897,None,left,2125.1214297409897,None,2125.305245274998,2127.1100020909944,None,None,0.17192280599556398,0.1417207719932776,,,,,,,,,,,,,112,001,20,1,2020_Feb_04_1210,Test,3.2.4,59.83232350191831,
Pictures/IA25_G20.bmp,Pictures/IA25_G20.bmp,Pictures/IA25.bmp,"

"I wouldn't gamble for this one. "",0,safe,,,,,5,0,5,0,0,5,5,14,,,,,,,,,,,,,,,,,,,,,,,,,,,,,,,2127.1267243959883,None,2129.1487199819967,2130.6693886059948,2130.6526706639997,None,2132.15663956599,None,2,2134.178627451998,None,2134.178627451998,None,2134.178627451998,None,None,None,None,None,2134.9807531439874,None,2134.9807531439874,None,left,2134.9807531439874,None,2135.081003300991,2136.9860280430003,None,None,0.6285141240077792,0.050382924993755296,,,,,,,,,,,,,112,001,20,1,2020_Feb_04_1210,Test,3.2.4,59.83232350191831,
Pictures/IA110_55_L95p.bmp,Pictures/IA110_55_L95p.bmp,Pictures/IA110.bmp,"

"Trust me, gamble!"",1,risk,,,,,5,0,5,0,0,6,6,17,,,,,,,,,,,,,,,,,,,,,,,,,,,,,,,2137.002728440988,None,2139.0247289969993,2140.5453960519953,2140.52869929999,None,2142.04936208899,None,2,2144.054644756994,None,2144.054644756994,None,2144.054644756994,None,None,None,None,None,2144.856757825997,None,2144.856757825997,None,right,2144.856757825997,None,None,None,2144.923610564001,2146.8620490999892,0.6484915280016139,0.030376473005162552,,,,,,,,,,,,,112,001,20,1,2020_Feb_04_1210,Test,3.2.4,59.83232350191831,
Pictures/IA75_L15.bmp,Pictures/IA75_L15.bmp,Pictures/IA75.bmp,"

"Trust me, gamble!"",1,risk,,,,,5,0,5,0,0,7,7,3,,,,,,,,,,,,,,,,,,,,,,,,,,,,,,,2146.8787523749925,None,2148.900745851992,2150.421414326993,2150.404718887992,None,2151.9086689839896,None,2,2153.9306742359913,None,2153.9306742359913,None,2153.9306742359913,None,None,None,None,None,2154.7160712740006,None,2154.7160712740006,None,left,2154.7160712740006,None,2155.7688393029966,None,None,None,0.6604682910110569,1.0030695820023539,,,,,,,,,,,,,112,001,20,1,2020_Feb_04_1210,Test,3.2.4,59.83232350191831,
Pictures/IA25_L20.bmp,Pictures/IA25_L20.bmp,Pictures/IA25.bmp,"

"Don't be tempted to gamble."",0,safe,,,,,5,0,5,0,0,8,8,9,,,,,,,,,,,,,,,,,,,,,,,,,,,,,,,2156.721357022994,None,2158.743351896992,2160.2640259399923,2160.2473164859985,None,2161.751282731988,None,2,2163.773265815995,None,2163.773265815995,None,2163.773265815995,None,None,None,None,None,2165.026565879991,None,2165.026565879991,None,left,2165.026565879991,None,2165.3440645129886,2167.0151581659884,None,None,1.0498859779909253,0.2765722519980045,,,,,,,,,,,,,112,001,20,1,2020_Feb_04_1210,Test,3.2.4,59.83232350191831,
Pictures/IA25_L10.bmp,Pictures/IA25_L10.bmp,Pictures/IA25.bmp,"

"Dont be afraid to take the risk!"",1,risk,,,,,5,0,5,0,0,9,9,18,,,,,,,,,,,,,,,,,,,,,,,,,,,,,,,2167.0318546229973,None,2169.0538647389913,2170.5745210289897,2170.5578084969893,None,2172.078484179001,None,2,2174.0837726889877,None,2174.0837726889877,None,2174.0837726889877,None,None,None,None,None,2174.5516582489945,None,2174.5516582489945,None,left,2174.5516582489945,None,2174.6686297009874,2176.540226647994,None,None,0.299366444000043,0.07147980100126006,,,,,,,,,,,,,112,001,20,1,2020_Feb_04_1210,Test,3.2.4,59.83232350191831,
Pictures/IA100_G20.bmp,Pictures/IA100_G20.bmp,Pictures/IA100.bmp,"

"Go ahead and gamble!"",1,risk,,,,,5,0,5,0,0,10,10,2,,,,,,,,,,,,,,,,,,,,,,,,,,,,,,,2176.5569507649925,None,2178.5789402709925,2180.099620838999,2180.0829036689975,None,2181.5868768709915,None,2,2183.608854853999,None,2183.608854853999,None,2183.608854853999,None,None,None,None,None,2184.4443994049943,None,2184.4443994049943,None,right,2184.4443994049943,None,None,None,2186.132177392996,None,0.686294416009332,1.6507363929995336,,,,,,,,,,,,,112,001,20,1,2020_Feb_04_1210,Test,3.2.4,59.83232350191831,
Pictures/IA25_G10.bmp,Pictures/IA25_G10.bmp,Pictures/IA25.bmp,"

"What's life without a little risk?"",1,risk,,,,,5,0,5,0,0,11,11,16,,,,,,,,,,,,,,,,,,,,,,,,,,,,,,,2186.4496808269905,None,2188.4716733649984,2189.9923469809873,2189.975628676999,None,2191.4963110249955,None,2,2193.5015956409916,None,2193.5015956409916,None,2193.5015956409916,None,None,None,None,None,2193.7522562079976,None,2193.7522562079976,None,left,2193.7522562079976,None,2195.5737181519944,None,None,None,0.07354615700023714,1.7828757759998553,,,,,,,,,,,,,112,001,20,1,2020_Feb_04_1210,Test,3.2.4,59.83232350191831,
Pictures/IA50_L20.bmp,Pictures/IA50_L20.bmp,Pictures/IA50.bmp,"

"Certainty is boring, take a risk!"",1,risk,,,,,5,0,5,0,0,12,12,10,,,,,,,,,,,,,,,,,,,,,,,,,,,,,,,2195.7575366899982,None,2197.7795314219984,2199.300201512,2199.28351577399,None,2200.8041644920013,None,2,2202.809452335001,None,2202.809452335001,None,2202.809452335001,None,None,None,None,None,2203.6449942329928,None,2203.6449942329928,None,right,2203.6449942329928,None,None,None,2204.4805073669995,2205.6502696099924,0.6776855189964408,0.8021385010069935,,,,,,,,,,,,,112,001,20,1,2020_Feb_04_1210,Test,3.2.4,59.83232350191831,
Pictures/IA50_L40.bmp,Pictures/IA50_L40.bmp,Pictures/IA50.bmp,"

"That gamble doesn't sound too good, play it safe."",0,safe,,,,,5,0,5,0,0,13,13,5,,,,,,,,,,,,,,,,,,,,,,,,,,,,,,,2205.666964926,None,2207.688968097995,2209.2096321589925,2209.1929376129992,None,2210.7135943549947,None,2,2212.718880069995,None,2212.718880069995,None,2212.718880069995,None,None,None,None,None,2213.671406837995,None,2213.671406837995,None,left,2213.671406837995,None,2213.82179709099,2215.659958477001,None,None,0.7682625040033599,0.10373331999289803,,,,,,,,,,,,,112,001,20,1,2020_Feb_04_1210,Test,3.2.4,59.83232350191831,
Pictures/IA40_20_L95p.bmp,Pictures/IA40_20_L95p.bmp,Pictures/IA40.bmp,"

"Trust me, gamble!"",1,risk,,,,,5,0,5,0,0,14,14,13,,,,,,,,,,,,,,,,,,,,,,,,,,,,,,,2215.676685083992,None,2217.6986774309917,2219.2193483449955,2219.202629898995,None,2220.7233130459936,None,2,2222.7285981889872,None,2222.7285981889872,None,2222.7285981889872,None,None,None,None,None,2223.1296532939887,None,2223.1296532939887,None,right,2223.1296532939887,None,None,None,2223.397011833993,2225.134945230995,0.23854283799300902,0.229490926998551,,,,,,,,,,,,,112,001,20,1,2020_Feb_04_1210,Test,3.2.4,59.83232350191831,
Pictures/IA100_L40.bmp,Pictures/IA100_L40.bmp,Pictures/IA100.bmp,"

"Think of the payoff, gamble!"",1,risk,,,,,5,0,5,0,0,15,15,7,,,,,,,,,,,,,,,,,,,,,,,,,,,,,,,2225.1516478259873,None,2227.1736383079988,2228.6943096439936,2228.677593698987,None,2230.1982766009896,None,2,2232.2035610479943,None,2232.2035610479943,None,2232.2035610479943,None,None,None,None,None,2232.9722533189924,None,2232.9722533189924,None,right,2232.9722533189924,None,None,None,2233.022381424991,2234.960819972999,0.6035876240057405,0.0029000170034123585,,,,,,,,,,,,,112,001,20,1,2020_Feb_04_1210,Test,3.2.4,59.83232350191831,
Pictures/IA100_L60.bmp,Pictures/IA100_L60.bmp,Pictures/IA100.bmp,"

"You'd have a lot to lose, don't gamble."",0,safe,,,,,5,0,5,0,0,16,16,15,,,,,,,,,,,,,,,,,,,,,,,,,,,,,,,2234.9775371759897,None,2236.999519801,2238.5201875700004,2238.503491782001,None,2240.0241511349886,None,2,2242.029437086996,None,2242.029437086996,None,2242.029437086996,None,None,None,None,None,2243.098933819987,None,2243.098933819987,None,right,2243.098933819987,None,None,None,2243.215905451987,2245.0874895329907,0.8977058909949847,0.0682048489979934,,,,,,,,,,,,,112,001,20,1,2020_Feb_04_1210,Test,3.2.4,59.83232350191831,
Pictures/IA50_L10.bmp,Pictures/IA50_L10.bmp,Pictures/IA50.bmp,"

"Play it safe, don’t gamble!"",0,safe,,,,,5,0,5,0,0,17,17,0,,,,,,,,,,,,,,,,,,,,,,,,,,,,,,,2245.1042125789972,None,2247.1262065659976,2248.6468781439908,2248.6301606169873,None,2250.134132365987,None,2,2252.1561181979923,None,2252.1561181979923,None,2252.1561181979923,None,None,None,None,None,2253.2256051479926,None,2253.2256051479926,None,right,2253.2256051479926,None,None,None,2253.6935081639967,2255.2309061139968,0.9150338219915284,0.42153112300729845,,,,,,,,,,,,,112,001,20,1,2020_Feb_04_1210,Test,3.2.4,59.83232350191831,
Pictures/IA75_G15.bmp,Pictures/IA75_G15.bmp,Pictures/IA75.bmp,"

"Take a chance!"",1,risk,,,,,5,0,5,0,0,18,18,11,,,,,,,,,,,,,,,,,,,,,,,,,,,,,,,2255.2475934859976,None,2257.2695869419986,2258.7902638919913,2258.7735625299974,None,2260.3109336459893,None,2,2262.299519342996,None,2262.299519342996,None,2262.299519342996,None,None,None,None,None,2263.5361109799996,None,2263.5361109799996,None,left,2263.5361109799996,None,2264.371629573987,2265.5413927499903,None,None,1.0756318800122244,0.7990171690034913,,,,,,,,,,,,,112,001,20,1,2020_Feb_04_1210,Test,3.2.4,59.83232350191831,
Pictures/IA25_L15.bmp,Pictures/IA25_L15.bmp,Pictures/IA25.bmp,"

"There's not much on the line here, gamble!"",1,risk,,,,,5,0,5,0,0,19,19,8,,,,,,,,,,,,,,,,,,,,,,,,,,,,,,,2265.5580945190013,None,2267.5800859559968,2269.1007550450013,2269.0840630780003,None,2270.5880119229987,None,2,2272.6100178179913,None,2272.6100178179913,None,2272.6100178179913,None,None,None,None,None,2273.4288454189955,None,2273.4288454189955,None,left,2273.4288454189955,None,2275.0832002829993,None,None,None,0.6451200590090593,1.6102869089954766,,,,,,,,,,,,,112,001,20,1,2020_Feb_04_1210,Test,3.2.4,59.83232350191831,
,,,,,,,,,,5,0,5,0,,,,,,,,,,,,,,,,,,,,,,,,,,,,,,,,,,,,,,,,,,,,,,,,,,,,,,,,,,,,,,,,,,,,,,,,,2275.584515000999,None,return,17.96661420899909,2275.584515000999,None,112,001,20,1,2020_Feb_04_1210,Test,3.2.4,59.83232350191831,
Pictures/IA100_L40.bmp,Pictures/IA100_L40.bmp,Pictures/IA100.bmp,"

"Think of the payoff, gamble!"",1,risk,,,,,6,0,6,0,0,0,0,13,,,,,,,,,,,,,2293.732330686995,None,2293.732330686995,None,2293.732330686995,None,left,2.170801050000591,2293.732330686995,None,2293.732330686995,None,2293.732330686995,None,return,3.098680643000989,2293.732330686995,None,2296.8739270809892,None,2298.895929057995,2300.4165950079914,2300.399897856987,None,2301.887147732996,None,2,2303.909139313997,None,2303.909139313997,None,2303.909139313997,None,None,None,None,None,2304.711258457988,None,2304.711258457988,None,None,2304.711258457988,None,None,None,None,None,0.6340010999992955,,,,,,,,,,,,,,112,001,20,1,2020_Feb_04_1210,Test,3.2.4,59.83232350191831,
Pictures/IA80_40_G95p.bmp,Pictures/IA80_40_G95p.bmp,Pictures/IA80.bmp,"

"Think of the payoff, gamble!"",1,risk,,,,,6,0,6,0,0,1,1,3,,,,,,,,,,,,,,,,,,,,,,,,,,,,,,,2306.7165401319944,None,2308.7385368510004,2310.25920426799,2310.2424992519955,None,2311.763169133992,None,2,2313.7684540649934,None,2313.7684540649934,None,2313.7684540649934,None,None,None,None,None,2314.453590938996,None,2314.453590938996,None,left,2314.453590938996,None,2314.7376699649903,2316.4421534389985,None,None,0.5506970080023166,0.24953633699624334,,,,,,,,,,,,,112,001,20,1,2020_Feb_04_1210,Test,3.2.4,59.83232350191831,
Pictures/IA20_10_L95p.bmp,Pictures/IA20_10_L95p.bmp,Pictures/IA20.bmp,"

"Don't be tempted to gamble."",0,safe,,,,,6,0,6,0,0,2,2,8,,,,,,,,,,,,,,,,,,,,,,,,,,,,,,,2316.4588709179952,None,2318.480866585989,2320.0015370539913,2319.984821648992,None,2321.555633387994,None,2,2323.5107756279904,None,2323.5107756279904,None,2323.5107756279904,None,None,None,None,None,2324.4298708309943,None,2324.4298708309943,None,right,2324.4298708309943,None,None,None,2324.546836538997,2326.418432854989,0.7363682919967687,0.08126235401141457,,,,,,,,,,,,,112,001,20,1,2020_Feb_04_1210,Test,3.2.4,59.83232350191831,
Pictures/IA50_G10.bmp,Pictures/IA50_G10.bmp,Pictures/IA50.bmp,"

"Go with the safe option here!"",0,safe,,,,,6,0,6,0,0,3,3,11,,,,,,,,,,,,,,,,,,,,,,,,,,,,,,,2326.435154642997,None,2328.457149179987,2329.9778217509884,2329.961109357988,None,2331.4984969549987,None,2,2333.4870601739967,None,2333.4870601739967,None,2333.4870601739967,None,None,None,None,None,2334.038522593997,None,2334.038522593997,None,left,2334.038522593997,None,2334.1554974299943,2336.0270906099904,None,None,0.39209276299516205,0.0806113549915608,,,,,,,,,,,,,112,001,20,1,2020_Feb_04_1210,Test,3.2.4,59.83232350191831,
Pictures/IA100_G80.bmp,Pictures/IA100_G80.bmp,Pictures/IA100.bmp,"

"Why not gamble?"",1,risk,,,,,6,0,6,0,0,4,4,5,,,,,,,,,,,,,,,,,,,,,,,,,,,,,,,2336.0437928819883,None,2338.0657848499977,2339.5864607569965,2339.5697622839944,None,2341.0737144960003,None,2,2343.095722965998,None,2343.095722965998,None,2343.095722965998,None,None,None,None,None,2343.964674910996,None,2343.964674910996,None,left,2343.964674910996,None,2344.3155979909934,2345.953232093001,None,None,0.671421849008766,0.3064628529973561,,,,,,,,,,,,,112,001,20,1,2020_Feb_04_1210,Test,3.2.4,59.83232350191831,
Pictures/IA25_L10.bmp,Pictures/IA25_L10.bmp,Pictures/IA25.bmp,"

"Dont be afraid to take the risk!"",1,risk,,,,,6,0,6,0,0,5,5,6,,,,,,,,,,,,,,,,,,,,,,,,,,,,,,,2345.9699557849963,None,2347.9919504360005,2349.512621809001,2349.4959046919976,None,2351.016586850994,None,2,2353.0218713389913,None,2353.0218713389913,None,2353.0218713389913,None,None,None,None,None,2353.6067371149984,None,2353.6067371149984,None,left,2353.6067371149984,None,2353.6568625999935,2355.595301835987,None,None,0.38527790999796707,0.016401294007664546,,,,,,,,,,,,,112,001,20,1,2020_Feb_04_1210,Test,3.2.4,59.83232350191831,
Pictures/IA25_L15.bmp,Pictures/IA25_L15.bmp,Pictures/IA25.bmp,"

"There's not much on the line here, gamble!"",1,risk,,,,,6,0,6,0,0,6,6,0,,,,,,,,,,,,,,,,,,,,,,,,,,,,,,,2355.612025368988,None,2357.6340189969924,2359.1546927409945,2359.137974838988,None,2360.6419472689886,None,2,2362.6639344699943,None,2362.6639344699943,None,2362.6639344699943,None,None,None,None,None,2363.3991851989995,None,2363.3991851989995,None,left,2363.3991851989995,None,2363.5496041529987,2365.4044908669894,None,None,0.5592060979979578,0.10395384101138916,,,,,,,,,,,,,112,001,20,1,2020_Feb_04_1210,Test,3.2.4,59.83232350191831,
Pictures/IA75_G60.bmp,Pictures/IA75_G60.bmp,Pictures/IA75.bmp,"

"Make it exciting, take a chance!"",1,risk,,,,,6,0,6,0,0,7,7,10,,,,,,,,,,,,,,,,,,,,,,,,,,,,,,,2365.4211946809955,None,2367.443187138997,2368.963859022988,2368.9471612189955,None,2370.4678222749935,None,2,2372.4785669330013,None,2372.4785669330013,None,2372.4785669330013,None,None,None,None,None,2373.3922052119888,None,2373.3922052119888,None,left,2373.3922052119888,None,2373.8601015619934,2375.397512904994,None,None,0.7285894719971111,0.4229455489985412,,,,,,,,,,,,,112,001,20,1,2020_Feb_04_1210,Test,3.2.4,59.83232350191831,
Pictures/IA75_L15.bmp,Pictures/IA75_L15.bmp,Pictures/IA75.bmp,"

"Trust me, gamble!"",1,risk,,,,,6,0,6,0,0,8,8,2,,,,,,,,,,,,,,,,,,,,,,,,,,,,,,,2375.4141866579885,None,2377.4361827659886,2378.956851309995,2378.940156604993,None,2380.460819272994,None,2,2382.4661036069883,None,2382.4661036069883,None,2382.4661036069883,None,None,None,None,None,2383.385200081,None,2383.385200081,None,right,2383.385200081,None,None,None,2384.5382381719974,None,0.7570402650017058,1.109937456989428,,,,,,,,,,,,,112,001,20,1,2020_Feb_04_1210,Test,3.2.4,59.83232350191831,
Pictures/IA75_L60.bmp,Pictures/IA75_L60.bmp,Pictures/IA75.bmp,"

"Why not take the gamble?"",1,risk,,,,,6,0,6,0,0,9,9,17,,,,,,,,,,,,,,,,,,,,,,,,,,,,,,,2385.3904793709953,None,2387.4124780139973,2388.9331507669995,2388.916429361998,None,2390.437110590996,None,2,2392.442397362989,None,2392.442397362989,None,2392.442397362989,None,None,None,None,None,2394.1970252119936,None,2394.1970252119936,None,left,2394.1970252119936,None,2394.748458326998,2396.1855877289927,None,None,1.5887310129910475,0.5061095609999029,,,,,,,,,,,,,112,001,20,1,2020_Feb_04_1210,Test,3.2.4,59.83232350191831,
Pictures/IA40_20_L95p.bmp,Pictures/IA40_20_L95p.bmp,Pictures/IA40.bmp,"

"Trust me, gamble!"",1,risk,,,,,6,0,6,0,0,10,10,19,,,,,,,,,,,,,,,,,,,,,,,,,,,,,,,2396.202289910987,None,2398.224282184994,2399.7449556459906,2399.7282595539873,None,2401.248919491991,None,2,2403.254204401994,None,2403.254204401994,None,2403.254204401994,None,None,None,None,None,2403.6886841769883,None,2403.6886841769883,None,right,2403.6886841769883,None,None,None,2403.7889557799936,2405.6939615539886,0.2729395839996869,0.05445318800047971,,,,,,,,,,,,,112,001,20,1,2020_Feb_04_1210,Test,3.2.4,59.83232350191831,
Pictures/IA50_L10.bmp,Pictures/IA50_L10.bmp,Pictures/IA50.bmp,"

"Play it safe, don’t gamble!"",0,safe,,,,,6,0,6,0,0,11,11,9,,,,,,,,,,,,,,,,,,,,,,,,,,,,,,,2405.710684079997,None,2407.7326796559937,2409.2533520649886,2409.236640498988,None,2410.7573162709887,None,2,2412.762600864997,None,2412.762600864997,None,2412.762600864997,None,None,None,None,None,2413.4811620929977,None,2413.4811620929977,None,right,2413.4811620929977,None,None,None,2413.5479894689925,2415.4864286319935,0.5485348059883108,0.021981362006044947,,,,,,,,,,,,,112,001,20,1,2020_Feb_04_1210,Test,3.2.4,59.83232350191831,
Pictures/IA110_55_L95p.bmp,Pictures/IA110_55_L95p.bmp,Pictures/IA110.bmp,"

"Trust me, gamble!"",1,risk,,,,,6,0,6,0,0,12,12,4,,,,,,,,,,,,,,,,,,,,,,,,,,,,,,,2415.5031499189936,None,2417.5251485469926,2419.0458177919936,2419.0291028069914,None,2420.5497822999896,None,2,2422.55506627899,None,2422.55506627899,None,2422.55506627899,None,None,None,None,None,2422.9895469019975,None,2422.9895469019975,None,right,2422.9895469019975,None,None,None,2423.073101043992,2424.994822968991,0.26807698799530044,0.03358992100402247,,,,,,,,,,,,,112,001,20,1,2020_Feb_04_1210,Test,3.2.4,59.83232350191831,
Pictures/IA25_L20.bmp,Pictures/IA25_L20.bmp,Pictures/IA25.bmp,"

"Don't be tempted to gamble."",0,safe,,,,,6,0,6,0,0,13,13,7,,,,,,,,,,,,,,,,,,,,,,,,,,,,,,,2425.0115234599944,None,2427.0335185379954,2428.554190993993,2428.537495091994,None,2430.0581551009964,None,2,2432.063439450998,None,2432.063439450998,None,2432.063439450998,None,None,None,None,None,2432.447799474001,None,2432.447799474001,None,left,2432.447799474001,None,2432.6148910829943,2434.453074321995,None,None,0.23170285100059118,0.11933536999276839,,,,,,,,,,,,,112,001,20,1,2020_Feb_04_1210,Test,3.2.4,59.83232350191831,
Pictures/IA50_L40.bmp,Pictures/IA50_L40.bmp,Pictures/IA50.bmp,"

"That gamble doesn't sound too good, play it safe."",0,safe,,,,,6,0,6,0,0,14,14,1,,,,,,,,,,,,,,,,,,,,,,,,,,,,,,,2434.4697760879935,None,2436.491772112,2438.012446228997,2437.9957472449896,None,2439.4996966779872,None,2,2441.52170682,None,2441.52170682,None,2441.52170682,None,None,None,None,None,2442.2569734979916,None,2442.2569734979916,None,left,2442.2569734979916,None,2442.6413163339894,2444.2455545959965,None,None,0.541446970004472,0.3421588639903348,,,,,,,,,,,,,112,001,20,1,2020_Feb_04_1210,Test,3.2.4,59.83232350191831,
Pictures/IA40_20_G95p.bmp,Pictures/IA40_20_G95p.bmp,Pictures/IA40.bmp,"

"Hold back, stay with the safe choice."",0,safe,,,,,6,0,6,0,0,15,15,18,,,,,,,,,,,,,,,,,,,,,,,,,,,,,,,2444.262241599994,None,2446.284238868,2447.804913671993,2447.7882140069996,None,2449.3088732369943,None,2,2451.314159690999,None,2451.314159690999,None,2451.314159690999,None,None,None,None,None,2451.782072789996,None,2451.782072789996,None,left,2451.782072789996,None,2451.982582249999,2453.787341438001,None,None,0.28497480899386574,0.15307480499905068,,,,,,,,,,,,,112,001,20,1,2020_Feb_04_1210,Test,3.2.4,59.83232350191831,
Pictures/IA100_G20.bmp,Pictures/IA100_G20.bmp,Pictures/IA100.bmp,"

"Go ahead and gamble!"",1,risk,,,,,6,0,6,0,0,16,16,14,,,,,,,,,,,,,,,,,,,,,,,,,,,,,,,2453.80406598399,None,2455.826055265992,2457.3467271339905,2457.330007148994,None,2458.850688489998,None,2,2460.855977222993,None,2460.855977222993,None,2460.855977222993,None,None,None,None,None,2461.257031200992,None,2461.257031200992,None,left,2461.257031200992,None,2461.340583737998,2463.245600612994,None,None,0.2391643680020934,0.04611099400790408,,,,,,,,,,,,,112,001,20,1,2020_Feb_04_1210,Test,3.2.4,59.83232350191831,
Pictures/IA75_L45.bmp,Pictures/IA75_L45.bmp,Pictures/IA75.bmp,"

"Don't gamble for this one, play it safe."",0,safe,,,,,6,0,6,0,0,17,17,15,,,,,,,,,,,,,,,,,,,,,,,,,,,,,,,2463.262312794992,None,2465.2843265089905,2466.8049796139967,2466.7882622329926,None,2468.308945080993,None,2,2470.314228124,None,2470.314228124,None,2470.314228124,None,None,None,None,None,2470.982642843999,None,2470.982642843999,None,right,2470.982642843999,None,None,None,2471.734622249991,2472.9712242699898,0.4929192030103877,0.7044968019908993,,,,,,,,,,,,,112,001,20,1,2020_Feb_04_1210,Test,3.2.4,59.83232350191831,
Pictures/IA100_L80.bmp,Pictures/IA100_L80.bmp,Pictures/IA100.bmp,"

"Go all in!"",1,risk,,,,,6,0,6,0,0,18,18,12,,,,,,,,,,,,,,,,,,,,,,,,,,,,,,,2472.987924282992,None,2475.009923421996,2476.5305909949966,2476.5138960109907,None,2478.0345579119894,None,2,2480.0398398629914,None,2480.0398398629914,None,2480.0398398629914,None,None,None,None,None,2480.892095566989,None,2480.892095566989,None,right,2480.892095566989,None,None,None,2481.293144693991,2482.880659505987,0.6873009150003782,0.36305739400268067,,,,,,,,,,,,,112,001,20,1,2020_Feb_04_1210,Test,3.2.4,59.83232350191831,
Pictures/IA80_40_L95p.bmp,Pictures/IA80_40_L95p.bmp,Pictures/IA80.bmp,"

"Let's stay with the certain option."",0,safe,,,,,6,0,6,0,0,19,19,16,,,,,,,,,,,,,,,,,,,,,,,,,,,,,,,2482.8973777209903,None,2484.9193749989936,2486.440045587995,2486.4233299049956,None,2487.944007786995,None,2,2489.94929274499,None,2489.94929274499,None,2489.94929274499,None,None,None,None,None,2490.4673144739936,None,2490.4673144739936,None,right,2490.4673144739936,None,None,None,2490.517441803997,2492.4558807869907,0.3218537729990203,0.003822947997832671,,,,,,,,,,,,,112,001,20,1,2020_Feb_04_1210,Test,3.2.4,59.83232350191831,
,,,,,,,,,,6,0,6,0,,,,,,,,,,,,,,,,,,,,,,,,,,,,,,,,,,,,,,,,,,,,,,,,,,,,,,,,,,,,,,,,,,,,,,,,,2492.623005275993,None,return,2.9601221539924154,2492.623005275993,None,112,001,20,1,2020_Feb_04_1210,Test,3.2.4,59.83232350191831,
Pictures/IA100_L20.bmp,Pictures/IA100_L20.bmp,Pictures/IA100.bmp,"

"Try to win as much money as you can, gamble!"",1,risk,,,,,7,0,7,0,0,0,0,7,,,,,,,,,,,,,2495.7478891719948,None,2495.7478891719948,None,2495.7478891719948,None,left,1.5472479190066224,2495.7478891719948,None,2495.7478891719948,None,2495.7478891719948,None,return,2.1870180139958393,2495.7478891719948,None,2497.9704168530006,None,2499.992406565987,2501.5130783779896,2501.4963826629973,None,2503.017057619989,None,2,2505.0056224489963,None,2505.0056224489963,None,2505.0056224489963,None,None,None,None,None,2505.4735147929896,None,2505.4735147929896,None,right,2505.4735147929896,None,None,None,2505.8244372490008,2507.462095226001,0.28151022299425676,0.3176093700021738,,,,,,,,,,,,,112,001,20,1,2020_Feb_04_1210,Test,3.2.4,59.83232350191831,
Pictures/IA100_L60.bmp,Pictures/IA100_L60.bmp,Pictures/IA100.bmp,"

"You'd have a lot to lose, don't gamble."",0,safe,,,,,7,0,7,0,0,1,1,5,,,,,,,,,,,,,,,,,,,,,,,,,,,,,,,2507.4787961099937,None,2509.5007903689984,2511.0214638609905,2511.0047674639936,None,2512.508715142001,None,2,2514.530722943993,None,2514.530722943993,None,2514.530722943993,None,None,None,None,None,2515.399684414995,None,2515.399684414995,None,right,2515.399684414995,None,None,None,2516.8033637079934,None,0.684419033001177,1.3594485339999665,,,,,,,,,,,,,112,001,20,1,2020_Feb_04_1210,Test,3.2.4,59.83232350191831,
Pictures/IA25_G5.bmp,Pictures/IA25_G5.bmp,Pictures/IA25.bmp,"

"Let's stay with the certain option."",0,safe,,,,,7,0,7,0,0,2,2,1,,,,,,,,,,,,,,,,,,,,,,,,,,,,,,,2517.4216734329966,None,2519.443665186991,2520.964337088997,2520.9476192309958,None,2522.468300898996,None,2,2524.4735847519914,None,2524.4735847519914,None,2524.4735847519914,None,None,None,None,None,2525.3091111809917,None,2525.3091111809917,None,right,2525.3091111809917,None,None,None,2526.278338403994,2527.314390558997,0.6615554549935041,0.9220342839980731,,,,,,,,,,,,,112,001,20,1,2020_Feb_04_1210,Test,3.2.4,59.83232350191831,
Pictures/IA75_L30.bmp,Pictures/IA75_L30.bmp,Pictures/IA75.bmp,"

"Hold back, stay with the safe choice."",0,safe,,,,,7,0,7,0,0,3,3,2,,,,,,,,,,,,,,,,,,,,,,,,,,,,,,,2527.3311089179915,None,2529.3531046119897,2530.8737777049973,2530.857059894988,None,2532.3777425449953,None,2,2534.383027659991,None,2534.383027659991,None,2534.383027659991,None,None,None,None,None,2534.600259782994,None,2534.600259782994,None,right,2534.600259782994,None,None,None,2534.683805700988,2536.5888354950002,0.03211492899572477,0.03887708600086626,,,,,,,,,,,,,112,001,20,1,2020_Feb_04_1210,Test,3.2.4,59.83232350191831,
Pictures/IA75_L60.bmp,Pictures/IA75_L60.bmp,Pictures/IA75.bmp,"

"Why not take the gamble?"",1,risk,,,,,7,0,7,0,0,4,4,3,,,,,,,,,,,,,,,,,,,,,,,,,,,,,,,2536.605535605995,None,2538.6275300489942,2540.1315016549925,2540.1147841259954,None,2541.6521665089967,None,2,2543.657451731997,None,2543.657451731997,None,2543.657451731997,None,None,None,None,None,2544.509707474994,None,2544.509707474994,None,None,2544.509707474994,None,None,None,None,None,0.693681333999848,,,,,,,,,,,,,,112,001,20,1,2020_Feb_04_1210,Test,3.2.4,59.83232350191831,
Pictures/IA100_L80.bmp,Pictures/IA100_L80.bmp,Pictures/IA100.bmp,"

"Go all in!"",1,risk,,,,,7,0,7,0,0,5,5,14,,,,,,,,,,,,,,,,,,,,,,,,,,,,,,,2546.5149868699955,None,2548.536982409001,2550.0576544840005,2550.040936373989,None,2551.561620676992,None,2,2553.5669133949996,None,2553.5669133949996,None,2553.5669133949996,None,None,None,None,None,2553.984668443998,None,2553.984668443998,None,right,2553.984668443998,None,None,None,2554.235340454994,2555.9732451439922,0.27223989499907475,0.2064697530004196,,,,,,,,,,,,,112,001,20,1,2020_Feb_04_1210,Test,3.2.4,59.83232350191831,
Pictures/IA20_10_L95p.bmp,Pictures/IA20_10_L95p.bmp,Pictures/IA20.bmp,"

"Don't be tempted to gamble."",0,safe,,,,,7,0,7,0,0,6,6,6,,,,,,,,,,,,,,,,,,,,,,,,,,,,,,,2555.9899392249936,None,2558.0119384699938,2559.5326108939917,2559.51591024299,None,2561.0198606009944,None,2,2563.0418676339905,None,2563.0418676339905,None,2563.0418676339905,None,None,None,None,None,2563.994377569994,None,2563.994377569994,None,right,2563.994377569994,None,None,None,2564.361997365995,2565.999657576991,0.7812744910042966,0.32475437299581245,,,,,,,,,,,,,112,001,20,1,2020_Feb_04_1210,Test,3.2.4,59.83232350191831,
Pictures/IA40_20_L95p.bmp,Pictures/IA40_20_L95p.bmp,Pictures/IA40.bmp,"

"Trust me, gamble!"",1,risk,,,,,7,0,7,0,0,7,7,4,,,,,,,,,,,,,,,,,,,,,,,,,,,,,,,2566.016354556996,None,2568.0383514229907,2569.559023180991,2569.5423256069917,None,2571.062987420999,None,2,2573.0682730359986,None,2573.0682730359986,None,2573.0682730359986,None,None,None,None,None,2573.9539385879907,None,2573.9539385879907,None,right,2573.9539385879907,None,None,None,2574.2380275969917,2575.942518208991,0.6828677500016056,0.24519556100131012,,,,,,,,,,,,,112,001,20,1,2020_Feb_04_1210,Test,3.2.4,59.83232350191831,
Pictures/IA25_G20.bmp,Pictures/IA25_G20.bmp,Pictures/IA25.bmp,"

"I wouldn't gamble for this one. "",0,safe,,,,,7,0,7,0,0,8,8,10,,,,,,,,,,,,,,,,,,,,,,,,,,,,,,,2575.959223359998,None,2577.981215988999,2579.501885518999,2579.4851889959973,None,2581.005851766997,None,2,2583.011136623987,None,2583.011136623987,None,2583.011136623987,None,None,None,None,None,2583.94694426599,None,2583.94694426599,None,left,2583.94694426599,None,2584.381407754001,2585.9522246879933,None,None,0.764007102989126,0.3881919130071765,,,,,,,,,,,,,112,001,20,1,2020_Feb_04_1210,Test,3.2.4,59.83232350191831,
Pictures/IA50_L20.bmp,Pictures/IA50_L20.bmp,Pictures/IA50.bmp,"

"Certainty is boring, take a risk!"",1,risk,,,,,7,0,7,0,0,9,9,15,,,,,,,,,,,,,,,,,,,,,,,,,,,,,,,2585.968926231988,None,2587.9909195449873,2589.5115910669992,2589.494895951997,None,2591.032268309995,None,2,2593.020851770998,None,2593.020851770998,None,2593.020851770998,None,None,None,None,None,2593.7895069809892,None,2593.7895069809892,None,right,2593.7895069809892,None,None,None,2593.873095294999,2595.778100702999,0.6182731509907171,0.04962825898837764,,,,,,,,,,,,,112,001,20,1,2020_Feb_04_1210,Test,3.2.4,59.83232350191831,
Pictures/IA100_G20.bmp,Pictures/IA100_G20.bmp,Pictures/IA100.bmp,"

"Go ahead and gamble!"",1,risk,,,,,7,0,7,0,0,10,10,13,,,,,,,,,,,,,,,,,,,,,,,,,,,,,,,2595.7948227119923,None,2597.8168180549983,2599.337492171995,2599.3207730040012,None,2600.82474465399,None,2,2602.8467305259983,None,2602.8467305259983,None,2602.8467305259983,None,None,None,None,None,2603.582029065001,None,2603.582029065001,None,left,2603.582029065001,None,2603.8660783639934,2605.57059399999,None,None,0.5684158649964957,0.24910372000886127,,,,,,,,,,,,,112,001,20,1,2020_Feb_04_1210,Test,3.2.4,59.83232350191831,
Pictures/IA50_G30.bmp,Pictures/IA50_G30.bmp,Pictures/IA50.bmp,"

"I think you should gamble."",1,risk,,,,,7,0,7,0,0,11,11,9,,,,,,,,,,,,,,,,,,,,,,,,,,,,,,,2605.587278594001,None,2607.609274670991,2609.1299451489904,2609.113251587987,None,2610.65062225399,None,2,2612.639204603998,None,2612.639204603998,None,2612.639204603998,None,None,None,None,None,2613.374469340997,None,2613.374469340997,None,left,2613.374469340997,None,2614.9954375519883,None,None,None,0.5679349500132957,1.576671538001392,,,,,,,,,,,,,112,001,20,1,2020_Feb_04_1210,Test,3.2.4,59.83232350191831,
Pictures/IA50_G40.bmp,Pictures/IA50_G40.bmp,Pictures/IA50.bmp,"

