Choice	Choice2	Amount	AdviceVar1	GambleAdviceNum	GambleAdviceType	practice.thisRepN	practice.thisTrialN	practice.thisN	practice.thisIndex	trials_2.thisRepN	trials_2.thisTrialN	trials_2.thisN	trials_2.thisIndex	trials.thisRepN	trials.thisTrialN	trials.thisN	trials.thisIndex	text.started	text.stopped	key_resp_4.keys	key_resp_4.rt	key_resp_4.started	key_resp_4.stopped	instructions.started	instructions.stopped	space.keys	space.rt	space.started	space.stopped	chooseInst.started	chooseInst.stopped	Ad1.started	Ad1.stopped	Ad2.started	Ad2.stopped	key_resp_3.keys	key_resp_3.rt	key_resp_3.started	key_resp_3.stopped	Ad1pic.started	Ad1pic.stopped	Ad2pic.started	Ad2pic.stopped	enter.keys	enter.rt	enter.started	enter.stopped	iSi.started	iSi.stopped	receiveMoneyPicture.started	receiveMoneyPicture.stopped	ISI2.started	ISI2.stopped	ChoicePic.started	ChoicePic.stopped	response.keys	response.started	response.stopped	yesNo.started	yesNo.stopped	ask.started	ask.stopped	getAdv.started	getAdv.stopped	textForCode.started	textForCode.stopped	blank.started	blank.stopped	ChoicePic2.started	ChoicePic2.stopped	resp.keys	resp.started	resp.stopped	checkL1.started	checkL1.stopped	checkR1.started	checkR1.stopped	response.rt	resp.rt	EndPrac.started	EndPrac.stopped	key_resp.keys	key_resp.rt	key_resp.started	key_resp.stopped	endText.started	endText.stopped	key_resp_2.keys	key_resp_2.rt	key_resp_2.started	key_resp_2.stopped	participant	session	age	gender (0=male	 1 = female	 2 = other)	date	expName	psychopyVersion	frameRate
																		1021.541137	None	space	240.1846979	1021.541137	None																																																																					113	1	19	1	2020_Feb_05_1203	Test	3.2.4	59.84182071		
																								1261.75653	None	space	3.065312685	1261.75653	None																																																															113	1	19	1	2020_Feb_05_1203	Test	3.2.4	59.84182071		
																														1265.533151	None	1265.533151	None	1265.533151	None	right	12.2726716	1265.533151	None																																																					113	1	19	1	2020_Feb_05_1203	Test	3.2.4	59.84182071		
																																								1265.533151	None	1265.533151	None	return	16.60852907	1265.533151	None																																													113	1	19	1	2020_Feb_05_1203	Test	3.2.4	59.84182071		
Pictures/IA100_G40.bmp	Pictures/IA100_G40.bmp	Pictures/IA100.bmp	"Try your luck and gamble!"""""	1	risk	0	0	0	5																																							1282.277256	None	1284.249119	1285.76979	1285.75308	None	1287.257044	None	None	1289.312461	None	1289.312461	None	1289.312461	None	None	None	None	None	1292.40394	None	1292.40394	None	None	1292.40394	None	None	None	None	None															113	1	19	1	2020_Feb_05_1203	Test	3.2.4	59.84182071		
Pictures/IA100_G20.bmp	Pictures/IA100_G20.bmp	Pictures/IA100.bmp	"Go ahead and gamble!"""""	1	risk	0	1	1	4																																							1294.409217	None	1296.431215	1297.951885	1297.935178	None	1299.489273	None	1	1301.461145	None	1301.461145	None	1301.461145	None	1301.74518	None	1301.74518	1302.74785	1303.850762	None	1303.850762	None	None	1303.850762	None	None	None	None	None	0.18469914														113	1	19	1	2020_Feb_05_1203	Test	3.2.4	59.84182071		
Pictures/IA50_G20.bmp	Pictures/IA50_G20.bmp	Pictures/IA50.bmp	"Let's venture and take a risk!"""""	1	risk	0	2	2	1																																							1305.856042	None	1307.911458	1309.415418	1309.398712	None	1310.952804	None	1	1312.90796	None	1312.90796	None	1312.90796	None	1314.027569	None	1314.027569	1315.030208	1316.133121	None	1316.133121	None	None	1316.133121	None	None	None	None	None	1.017877276														113	1	19	1	2020_Feb_05_1203	Test	3.2.4	59.84182071		
Pictures/IA50_G30.bmp	Pictures/IA50_G30.bmp	Pictures/IA50.bmp	"I think you should gamble."""""	1	risk	0	3	3	2																																							1318.138398	None	1320.160394	1321.681066	1321.664358	None	1323.251877	None	1	1325.190315	None	1325.190315	None	1325.190315	None	1326.610728	None	1326.610728	1327.613359	1328.716274	None	1328.716274	None	None	1328.716274	None	None	None	None	None	1.303523396														113	1	19	1	2020_Feb_05_1203	Test	3.2.4	59.84182071		
Pictures/IA50_G40.bmp	Pictures/IA50_G40.bmp	Pictures/IA50.bmp	"It would probably be best to play it safe."""""	0	safe	0	4	4	3																																							1330.721558	None	1332.743541	1334.264216	1334.247509	None	1335.818317	None	2	1337.773465	None	1337.773465	None	1337.773465	None	None	None	None	None	1338.943215	None	1338.943215	None	left	1338.943215	None	1340.09625	None	None	None	0.984379299	1.118622049													113	1	19	1	2020_Feb_05_1203	Test	3.2.4	59.84182071		
Pictures/IA50_G10.bmp	Pictures/IA50_G10.bmp	Pictures/IA50.bmp	"Go with the safe option here!"""""	0	safe	0	5	5	0																																							1340.948494	None	1342.9705	1344.491164	1344.474454	None	1346.045256	None	2	1348.00041	None	1348.00041	None	1348.00041	None	None	None	None	None	1348.819237	None	1348.819237	None	left	1348.819237	None	1350.540432	None	None	None	0.653438079	1.674599836													113	1	19	1	2020_Feb_05_1203	Test	3.2.4	59.84182071		
																																																																																1350.824518	None	space	3.869327157	1350.824518	None							113	1	19	1	2020_Feb_05_1203	Test	3.2.4	59.84182071		
Pictures/IA25_G15.bmp	Pictures/IA25_G15.bmp	Pictures/IA25.bmp	"I think you should take a gamble."""""	1	risk					0	0	0	0	0	0	0	3													1354.851794	None	1354.851794	None	1354.851794	None	left	4.778038845	1354.851794	None	1354.851794	None	1354.851794	None	return	6.561909346	1354.851794	None	1361.469225	None	1363.507935	1365.011891	1364.995184	None	1366.515855	None	1	1368.487725	None	1368.487725	None	1368.487725	None	1369.707564	None	1369.707564	1370.710237	1371.84657	None	1371.84657	None	left	1371.84657	None	1372.782364	1373.835104	None	None	1.102110537	0.895271496													113	1	19	1	2020_Feb_05_1203	Test	3.2.4	59.84182071		
Pictures/IA50_G40.bmp	Pictures/IA50_G40.bmp	Pictures/IA50.bmp	"It would probably be best to play it safe."""""	0	safe					0	0	0	0	0	1	1	18																															1373.85185	None	1375.873846	1377.377809	1377.3611	None	1378.881771	None	1	1380.903767	None	1380.903767	None	1380.903767	None	1381.605614	None	1381.605614	1382.608252	1383.727878	None	1383.727878	None	left	1383.727878	None	1384.797356	None	None	None	0.566077263	1.02196132													113	1	19	1	2020_Feb_05_1203	Test	3.2.4	59.84182071		
Pictures/IA75_L15.bmp	Pictures/IA75_L15.bmp	Pictures/IA75.bmp	"Trust me–gamble!"""""	1	risk					0	0	0	0	0	2	2	6																															1385.749862	None	1387.805284	1389.309241	1389.292534	None	1390.829917	None	1	1392.80178	None	1392.80178	None	1392.80178	None	1393.754293	None	1393.754293	1394.756931	1395.909969	None	1395.909969	None	left	1395.909969	None	1397.564324	None	None	None	0.828074428	1.61586868													113	1	19	1	2020_Feb_05_1203	Test	3.2.4	59.84182071		
Pictures/IA20_10_G95p.bmp	Pictures/IA20_10_G95p.bmp	Pictures/IA20.bmp	"Take a leap"	1	risk					0	0	0	0	0	3	3	5																															1397.915247	None	1399.97067	1401.474626	1401.457919	None	1402.9953	None	2	1404.967167	None	1404.967167	None	1404.967167	None	None	None	None	None	1405.869542	None	1405.869542	None	right	1405.869542	None	None	None	1406.972445	None	0.718667601	1.056296934													113	1	19	1	2020_Feb_05_1203	Test	3.2.4	59.84182071		
Pictures/IA100_G60.bmp	Pictures/IA100_G60.bmp	Pictures/IA100.bmp	"Be cautious"	0	safe					0	0	0	0	0	4	4	14																															1407.874821	None	1409.896817	1411.417491	1411.400782	None	1412.954883	None	1	1414.926743	None	1414.926743	None	1414.926743	None	1415.662012	None	1415.662012	1416.66465	1417.784268	None	1417.784268	None	right	1417.784268	None	None	None	1418.218742	1419.789546	0.599104544	0.389569287													113	1	19	1	2020_Feb_05_1203	Test	3.2.4	59.84182071		
Pictures/IA25_L5.bmp	Pictures/IA25_L5.bmp	Pictures/IA25.bmp	"It would be smarter to choose the safe option."""""	0	safe					0	0	0	0	0	5	5	1																															1419.806262	None	1421.82826	1423.34893	1423.332219	None	1424.886312	None	1	1426.858175	None	1426.858175	None	1426.858175	None	1427.877528	None	1427.877528	1428.880168	1429.983075	None	1429.983075	None	left	1429.983075	None	1431.219663	None	None	None	0.883685127	1.19076292													113	1	19	1	2020_Feb_05_1203	Test	3.2.4	59.84182071		
Pictures/IA50_L30.bmp	Pictures/IA50_L30.bmp	Pictures/IA50.bmp	"Take a leap"	1	risk					0	0	0	0	0	6	6	9																															1432.005066	None	1434.027061	1435.547731	1435.531025	None	1437.101829	None	2	1439.056986	None	1439.056986	None	1439.056986	None	None	None	None	None	1439.792258	None	1439.792258	None	right	1439.792258	None	None	None	1440.326992	1441.797532	0.540861663	0.493573659													113	1	19	1	2020_Feb_05_1203	Test	3.2.4	59.84182071		
Pictures/IA110_55_G95p.bmp	Pictures/IA110_55_G95p.bmp	Pictures/IA110.bmp	"Take a chance!"""""	1	risk					0	0	0	0	0	7	7	13																															1441.814242	None	1443.869667	1445.373621	1445.356917	None	1446.927723	None	1	1448.866158	None	1448.866158	None	1448.866158	None	1449.701696	None	1449.701696	1450.704334	1451.840668	None	1451.840668	None	right	1451.840668	None	None	None	1452.208297	1453.845945	0.739689677	0.333164395													113	1	19	1	2020_Feb_05_1203	Test	3.2.4	59.84182071		
Pictures/IA25_G20.bmp	Pictures/IA25_G20.bmp	Pictures/IA25.bmp	"I wouldn't gamble for this one. """""	0	safe					0	0	0	0	0	8	8	12																															1453.862656	None	1455.88465	1457.405322	1457.388615	None	1458.95942	None	1	1460.914576	None	1460.914576	None	1460.914576	None	1462.368408	None	1462.368408	1463.371043	1464.473956	None	1464.473956	None	left	1464.473956	None	1464.975272	1466.479234	None	None	1.331260992	0.46786145													113	1	19	1	2020_Feb_05_1203	Test	3.2.4	59.84182071		
Pictures/IA75_L60.bmp	Pictures/IA75_L60.bmp	Pictures/IA75.bmp	"Why not take the gamble?"""""	1	risk					0	0	0	0	0	9	9	10																															1466.49594	None	1468.517936	1470.038607	1470.021899	None	1471.592709	None	1	1473.547857	None	1473.547857	None	1473.547857	None	1474.0826	None	1474.0826	1475.085236	1476.188148	None	1476.188148	None	None	1476.188148	None	None	None	None	None	0.425988434														113	1	19	1	2020_Feb_05_1203	Test	3.2.4	59.84182071		
Pictures/IA40_20_L95p.bmp	Pictures/IA40_20_L95p.bmp	Pictures/IA40.bmp	"Trust me"	1	risk					0	0	0	0	0	10	10	15																															1478.193427	None	1480.248846	1481.752805	1481.736103	None	1483.290193	None	2	1485.245357	None	1485.245357	None	1485.245357	None	None	None	None	None	1486.766013	None	1486.766013	None	right	1486.766013	None	None	None	1487.802077	None	1.368486239	0.999821312													113	1	19	1	2020_Feb_05_1203	Test	3.2.4	59.84182071		
Pictures/IA80_40_G95p.bmp	Pictures/IA80_40_G95p.bmp	Pictures/IA80.bmp	"Think of the payoff"	1	risk					0	0	0	0	0	11	11	16																															1488.788009	None	1490.843426	1492.347396	1492.330686	None	1493.884773	None	1	1495.839927	None	1495.839927	None	1495.839927	None	1496.708883	None	1496.708883	1497.711519	1498.814431	None	1498.814431	None	left	1498.814431	None	1499.532992	1500.802998	None	None	0.749909124	0.671409132													113	1	19	1	2020_Feb_05_1203	Test	3.2.4	59.84182071		
Pictures/IA25_L20.bmp	Pictures/IA25_L20.bmp	Pictures/IA25.bmp	"Don't be tempted to gamble."""""	0	safe					0	0	0	0	0	12	12	2																															1500.819716	None	1502.841709	1504.362379	1504.345683	None	1505.916475	None	1	1507.871635	None	1507.871635	None	1507.871635	None	1508.590187	None	1508.590187	1509.592824	1510.695736	None	1510.695736	None	right	1510.695736	None	None	None	1511.781927	None	0.598210195	1.03809945													113	1	19	1	2020_Feb_05_1203	Test	3.2.4	59.84182071		
Pictures/IA25_L15.bmp	Pictures/IA25_L15.bmp	Pictures/IA25.bmp	"There's not much on the line here"	1	risk					0	0	0	0	0	13	13	4																															1512.701021	None	1514.723011	1516.243682	1516.226975	None	1517.797782	None	2	1519.752933	None	1519.752933	None	1519.752933	None	None	None	None	None	1520.839142	None	1520.839142	None	right	1520.839142	None	None	None	1521.106498	1522.844416	0.900909523	0.230694163													113	1	19	1	2020_Feb_05_1203	Test	3.2.4	59.84182071		
Pictures/IA75_G60.bmp	Pictures/IA75_G60.bmp	Pictures/IA75.bmp	"Make it exciting"	1	risk					0	0	0	0	0	14	14	7																															1522.861121	None	1524.883116	1526.403788	1526.387082	None	1527.941173	None	1	1529.913038	None	1529.913038	None	1529.913038	None	1530.832131	None	1530.832131	1531.834763	1532.971098	None	1532.971098	None	right	1532.971098	None	None	None	1533.288601	1534.976374	0.780797273	0.274735307													113	1	19	1	2020_Feb_05_1203	Test	3.2.4	59.84182071		
Pictures/IA50_G10.bmp	Pictures/IA50_G10.bmp	Pictures/IA50.bmp	"Go with the safe option here!"""""	0	safe					0	0	0	0	0	15	15	17																															1534.993088	None	1537.015082	1538.535753	1538.519047	None	1540.056431	None	1	1542.045003	None	1542.045003	None	1542.045003	None	1542.880501	None	1542.880501	1543.883175	1545.019508	None	1545.019508	None	None	1545.019508	None	None	None	None	None	0.704844797														113	1	19	1	2020_Feb_05_1203	Test	3.2.4	59.84182071		
Pictures/IA75_G15.bmp	Pictures/IA75_G15.bmp	Pictures/IA75.bmp	"Take a chance!"""""	1	risk					0	0	0	0	0	16	16	8																															1547.024787	None	1549.046782	1550.567456	1550.550747	None	1552.104841	None	1	1554.076707	None	1554.076707	None	1554.076707	None	1555.196324	None	1555.196324	1556.19896	1557.301921	None	1557.301921	None	right	1557.301921	None	None	None	1559.023072	None	1.033136133	1.671896879													113	1	19	1	2020_Feb_05_1203	Test	3.2.4	59.84182071		
Pictures/IA75_G45.bmp	Pictures/IA75_G45.bmp	Pictures/IA75.bmp	"Don't gamble for this one."""""	0	safe					0	0	0	0	0	17	17	11																															1559.307153	None	1561.329147	1562.849819	1562.833111	None	1564.403914	None	1	1566.359086	None	1566.359086	None	1566.359086	None	1567.027494	None	1567.027494	1568.030134	1569.133044	None	1569.133044	None	left	1569.133044	None	1569.651076	1571.121614	None	None	0.558750568	0.472793757													113	1	19	1	2020_Feb_05_1203	Test	3.2.4	59.84182071		
Pictures/IA100_G40.bmp	Pictures/IA100_G40.bmp	Pictures/IA100.bmp	"Try your luck and gamble!"""""	1	risk					0	0	0	0	0	18	18	19																															1571.138325	None	1573.160322	1574.680993	1574.664285	None	1576.168247	None	1	1578.190243	None	1578.190243	None	1578.190243	None	1578.674853	None	1578.674853	1579.677491	1580.780405	None	1580.780405	None	right	1580.780405	None	None	None	1581.198165	1582.768974	0.351605488	0.377429689													113	1	19	1	2020_Feb_05_1203	Test	3.2.4	59.84182071		
Pictures/IA50_L40.bmp	Pictures/IA50_L40.bmp	Pictures/IA50.bmp	"That gamble doesn't sound too good"	0	safe					0	0	0	0	0	19	19	0																															1582.785682	None	1584.807678	1586.328355	1586.311642	None	1587.849027	None	2	1589.8376	None	1589.8376	None	1589.8376	None	None	None	None	None	1590.907084	None	1590.907084	None	right	1590.907084	None	None	None	1591.25801	1592.89566	0.880240553	0.306746486													113	1	19	1	2020_Feb_05_1203	Test	3.2.4	59.84182071		
										0	0	0	0																																																																									1593.112907	None	return	11.60493299	1593.112907	None	113	1	19	1	2020_Feb_05_1203	Test	3.2.4	59.84182071		
Pictures/IA75_L15.bmp	Pictures/IA75_L15.bmp	Pictures/IA75.bmp	"Trust me–gamble!"""""	1	risk					1	0	1	0	0	0	0	11													1604.877231	None	1604.877231	None	1604.877231	None	right	5.384608499	1604.877231	None	1604.877231	None	1604.877231	None	return	6.992390701	1604.877231	None	1611.929147	None	1613.934429	1615.455097	1615.438391	None	1616.959062	None	1	1618.947637	None	1618.947637	None	1618.947637	None	1619.448957	None	1619.448957	1620.451595	1621.55451	None	1621.55451	None	right	1621.55451	None	None	None	1622.105956	1623.543077	0.410214114	0.51532548													113	1	19	1	2020_Feb_05_1203	Test	3.2.4	59.84182071		
Pictures/IA75_L30.bmp	Pictures/IA75_L30.bmp	Pictures/IA75.bmp	"Hold back"	0	safe					1	0	1	0	0	1	1	2																															1623.559786	None	1625.581784	1627.102455	1627.085752	None	1628.673267	None	1	1630.611709	None	1630.611709	None	1630.611709	None	1631.397106	None	1631.397106	1632.399745	1633.502658	None	1633.502658	None	left	1633.502658	None	1634.973195	None	None	None	0.642137287	1.43117504													113	1	19	1	2020_Feb_05_1203	Test	3.2.4	59.84182071		
Pictures/IA100_L40.bmp	Pictures/IA100_L40.bmp	Pictures/IA100.bmp	"Think of the payoff"	1	risk					1	0	1	0	0	2	2	19																															1635.524649	None	1637.546649	1639.067316	1639.050613	None	1640.621413	None	2	1642.660122	None	1642.660122	None	1642.660122	None	None	None	None	None	1643.42881	None	1643.42881	None	right	1643.42881	None	None	None	1643.67947	1645.434094	0.593722244	0.217023899													113	1	19	1	2020_Feb_05_1203	Test	3.2.4	59.84182071		
Pictures/IA100_L80.bmp	Pictures/IA100_L80.bmp	Pictures/IA100.bmp	"Go all in!"""""	1	risk					1	0	1	0	0	3	3	6																															1645.450803	None	1647.472799	1648.993473	1648.976767	None	1650.54757	None	2	1652.502728	None	1652.502728	None	1652.502728	None	None	None	None	None	1653.455232	None	1653.455232	None	right	1653.455232	None	None	None	1653.572205	1655.460514	0.783114645	0.078607836													113	1	19	1	2020_Feb_05_1203	Test	3.2.4	59.84182071		
Pictures/IA100_G60.bmp	Pictures/IA100_G60.bmp	Pictures/IA100.bmp	"Be cautious"	0	safe					1	0	1	0	0	4	4	1																															1655.477225	None	1657.499221	1659.019895	1659.003185	None	1660.540573	None	1	1662.529144	None	1662.529144	None	1662.529144	None	1663.013717	None	1663.013717	1664.01639	1665.136013	None	1665.136013	None	left	1665.136013	None	1665.887995	1667.124581	None	None	0.364706582	0.709836828													113	1	19	1	2020_Feb_05_1203	Test	3.2.4	59.84182071		
Pictures/IA100_L60.bmp	Pictures/IA100_L60.bmp	Pictures/IA100.bmp	"You'd have a lot to lose"	0	safe					1	0	1	0	0	5	5	13																															1667.141293	None	1669.163288	1670.667251	1670.650543	None	1672.238062	None	1	1674.193217	None	1674.193217	None	1674.193217	None	1675.1123	None	1675.1123	1676.114938	1677.21785	None	1677.21785	None	left	1677.21785	None	1677.735881	1679.206419	None	None	0.788628039	0.483984291													113	1	19	1	2020_Feb_05_1203	Test	3.2.4	59.84182071		
Pictures/IA25_L20.bmp	Pictures/IA25_L20.bmp	Pictures/IA25.bmp	"Don't be tempted to gamble."""""	0	safe					1	0	1	0	0	6	6	17																															1679.22313	None	1681.245128	1682.765798	1682.749091	None	1684.253053	None	2	1686.27505	None	1686.27505	None	1686.27505	None	None	None	None	None	1686.893344	None	1686.893344	None	right	1686.893344	None	None	None	1686.976895	1688.881916	0.458791531	0.048493398													113	1	19	1	2020_Feb_05_1203	Test	3.2.4	59.84182071		
Pictures/IA80_40_G95p.bmp	Pictures/IA80_40_G95p.bmp	Pictures/IA80.bmp	"Think of the payoff"	1	risk					1	0	1	0	0	7	7	3																															1688.898624	None	1690.920621	1692.441294	1692.424587	None	1693.962054	None	1	1695.950545	None	1695.950545	None	1695.950545	None	1696.568839	None	1696.568839	1697.571477	1698.707815	None	1698.707815	None	left	1698.707815	None	1699.125573	1700.69638	None	None	0.49529292	0.378018369													113	1	19	1	2020_Feb_05_1203	Test	3.2.4	59.84182071		
Pictures/IA80_40_L95p.bmp	Pictures/IA80_40_L95p.bmp	Pictures/IA80.bmp	"Let's stay with the certain option."""""	0	safe					1	0	1	0	0	8	8	18																															1700.713099	None	1702.735088	1704.25576	1704.239053	None	1705.793147	None	2	1707.765011	None	1707.765011	None	1707.765011	None	None	None	None	None	1708.700817	None	1708.700817	None	right	1708.700817	None	None	None	1708.750941	1710.689379	0.720843757	0.001031121													113	1	19	1	2020_Feb_05_1203	Test	3.2.4	59.84182071		
Pictures/IA110_55_L95p.bmp	Pictures/IA110_55_L95p.bmp	Pictures/IA110.bmp	"Trust me"	1	risk					1	0	1	0	0	9	9	16																															1710.706092	None	1712.728087	1714.24876	1714.232053	None	1715.802857	None	1	1717.758012	None	1717.758012	None	1717.758012	None	1718.19249	None	1718.19249	1719.195125	1720.298039	None	1720.298039	None	right	1720.298039	None	None	None	1720.749223	1722.286608	0.335825065	0.403799723													113	1	19	1	2020_Feb_05_1203	Test	3.2.4	59.84182071		
Pictures/IA100_G40.bmp	Pictures/IA100_G40.bmp	Pictures/IA100.bmp	"Try your luck and gamble!"""""	1	risk					1	0	1	0	0	10	10	4																															1722.303319	None	1724.325315	1725.845988	1725.82928	None	1727.366665	None	1	1729.35524	None	1729.35524	None	1729.35524	None	1729.940113	None	1729.940113	1730.942755	1732.045661	None	1732.045661	None	right	1732.045661	None	None	None	1732.513556	1734.034231	0.482595126	0.424178716													113	1	19	1	2020_Feb_05_1203	Test	3.2.4	59.84182071		
Pictures/IA110_55_G95p.bmp	Pictures/IA110_55_G95p.bmp	Pictures/IA110.bmp	"Take a chance!"""""	1	risk					1	0	1	0	0	11	11	7																															1734.050942	None	1736.072945	1737.593611	1737.576907	None	1739.08087	None	1	1741.102863	None	1741.102863	None	1741.102863	None	1741.838132	None	1741.838132	1742.84077	1743.960394	None	1743.960394	None	left	1743.960394	None	1744.378158	1745.948962	None	None	0.646980081	0.381452801													113	1	19	1	2020_Feb_05_1203	Test	3.2.4	59.84182071		
Pictures/IA50_L30.bmp	Pictures/IA50_L30.bmp	Pictures/IA50.bmp	"Take a leap"	1	risk					1	0	1	0	0	12	12	5																															1745.965673	None	1747.987669	1749.508342	1749.491633	None	1751.029017	None	1	1753.017594	None	1753.017594	None	1753.017594	None	1753.485492	None	1753.485492	1754.488131	1755.607752	None	1755.607752	None	right	1755.607752	None	None	None	1756.142492	1757.613033	0.332259222	0.494079317													113	1	19	1	2020_Feb_05_1203	Test	3.2.4	59.84182071		
Pictures/IA25_G10.bmp	Pictures/IA25_G10.bmp	Pictures/IA25.bmp	"What's life without a little risk?"""""	1	risk					1	0	1	0	0	13	13	14																															1757.629743	None	1759.651747	1761.172417	1761.155708	None	1762.709799	None	2	1764.681665	None	1764.681665	None	1764.681665	None	None	None	None	None	1765.717727	None	1765.717727	None	right	1765.717727	None	None	None	1765.868121	1767.723008	0.860179807	0.112118697													113	1	19	1	2020_Feb_05_1203	Test	3.2.4	59.84182071		
Pictures/IA25_G20.bmp	Pictures/IA25_G20.bmp	Pictures/IA25.bmp	"I wouldn't gamble for this one. """""	0	safe					1	0	1	0	0	14	14	8																															1767.739719	None	1769.761716	1771.282389	1771.265682	None	1772.786355	None	2	1774.808388	None	1774.808388	None	1774.808388	None	None	None	None	None	1775.560333	None	1775.560333	None	left	1775.560333	None	1775.72745	1777.565611	None	None	0.565440189	0.1175034													113	1	19	1	2020_Feb_05_1203	Test	3.2.4	59.84182071		
Pictures/IA50_G40.bmp	Pictures/IA50_G40.bmp	Pictures/IA50.bmp	"It would probably be best to play it safe."""""	0	safe					1	0	1	0	0	15	15	0																															1777.582324	None	1779.604319	1781.124993	1781.108286	None	1782.628958	None	2	1784.634245	None	1784.634245	None	1784.634245	None	None	None	None	None	1785.302673	None	1785.302673	None	left	1785.302673	None	1785.503203	1787.307953	None	None	0.499589437	0.16716685													113	1	19	1	2020_Feb_05_1203	Test	3.2.4	59.84182071		
Pictures/IA50_G10.bmp	Pictures/IA50_G10.bmp	Pictures/IA50.bmp	"Go with the safe option here!"""""	0	safe					1	0	1	0	0	16	16	10																															1787.324663	None	1789.346676	1790.867338	1790.850629	None	1792.388011	None	2	1794.376586	None	1794.376586	None	1794.376586	None	None	None	None	None	1795.095148	None	1795.095148	None	right	1795.095148	None	None	None	1795.329096	1797.100425	0.557268059	0.190685565													113	1	19	1	2020_Feb_05_1203	Test	3.2.4	59.84182071		
Pictures/IA20_10_L95p.bmp	Pictures/IA20_10_L95p.bmp	Pictures/IA20.bmp	"Don't be tempted to gamble."""""	0	safe					1	0	1	0	0	17	17	15																															1797.117137	None	1799.139132	1800.659807	1800.643099	None	1802.230612	None	1	1804.169058	None	1804.169058	None	1804.169058	None	1804.837482	None	1804.837482	1805.840124	1806.943034	None	1806.943034	None	right	1806.943034	None	None	None	1807.360812	1808.931603	0.564784668	0.374798632													113	1	19	1	2020_Feb_05_1203	Test	3.2.4	59.84182071		
Pictures/IA50_L10.bmp	Pictures/IA50_L10.bmp	Pictures/IA50.bmp	"Play it safe"	0	safe					1	0	1	0	0	18	18	9																															1808.948314	None	1810.970313	1812.490985	1812.474281	None	1814.028373	None	2	1816.000236	None	1816.000236	None	1816.000236	None	None	None	None	None	1816.601821	None	1816.601821	None	right	1816.601821	None	None	None	1816.735505	1818.607101	0.437610735	0.10001397													113	1	19	1	2020_Feb_05_1203	Test	3.2.4	59.84182071		
Pictures/IA50_L20.bmp	Pictures/IA50_L20.bmp	Pictures/IA50.bmp	"Certainty is boring"	1	risk					1	0	1	0	0	19	19	12																															1818.623815	None	1820.64581	1822.166486	1822.149775	None	1823.703871	None	1	1825.675739	None	1825.675739	None	1825.675739	None	1826.628245	None	1826.628245	1827.630882	1828.733794	None	1828.733794	None	right	1828.733794	None	None	None	1829.987092	None	0.834104668	1.216019545													113	1	19	1	2020_Feb_05_1203	Test	3.2.4	59.84182071		
										1	0	1	0																																																																									1830.88948	None	return	6.532351287	1830.88948	None	113	1	19	1	2020_Feb_05_1203	Test	3.2.4	59.84182071		
Pictures/IA75_L45.bmp	Pictures/IA75_L45.bmp	Pictures/IA75.bmp	"Don't gamble for this one"	0	safe					2	0	2	0	0	0	0	3													1837.573752	None	1837.573752	None	1837.573752	None	left	2.76808532	1837.573752	None	1837.573752	None	1837.573752	None	return	4.927901751	1837.573752	None	1842.553545	None	1844.55883	1846.0795	1846.062796	None	1847.600178	None	2	1849.572045	None	1849.572045	None	1849.572045	None	None	None	None	None	1850.84206	None	1850.84206	None	right	1850.84206	None	None	None	1851.978382	None	1.073800673	1.09178628													113	1	19	1	2020_Feb_05_1203	Test	3.2.4	59.84182071		
Pictures/IA75_G30.bmp	Pictures/IA75_G30.bmp	Pictures/IA75.bmp	"Be bold"	1	risk					2	0	2	0	0	1	1	2																															1852.864049	None	1854.886044	1856.406721	1856.390012	None	1857.944103	None	1	1859.915969	None	1859.915969	None	1859.915969	None	1860.550968	None	1860.550968	1861.553614	1862.656525	None	1862.656525	None	left	1862.656525	None	1862.740077	1864.645094	None	None	0.529866376	0.037313504													113	1	19	1	2020_Feb_05_1203	Test	3.2.4	59.84182071		
Pictures/IA75_L15.bmp	Pictures/IA75_L15.bmp	Pictures/IA75.bmp	"Trust me–gamble!"""""	1	risk					2	0	2	0	0	2	2	8																															1864.661806	None	1866.683803	1868.204477	1868.18773	None	1869.725152	None	2	1871.713727	None	1871.713727	None	1871.713727	None	None	None	None	None	1872.398866	None	1872.398866	None	right	1872.398866	None	None	None	1872.448995	1874.404149	0.532126082	0.014961942													113	1	19	1	2020_Feb_05_1203	Test	3.2.4	59.84182071		
Pictures/IA40_20_L95p.bmp	Pictures/IA40_20_L95p.bmp	Pictures/IA40.bmp	"Trust me"	1	risk					2	0	2	0	0	3	3	16																															1874.420857	None	1876.442856	1877.963528	1877.946821	None	1879.484206	None	2	1881.472779	None	1881.472779	None	1881.472779	None	None	None	None	None	1882.208049	None	1882.208049	None	right	1882.208049	None	None	None	1882.375157	1884.213332	0.573075957	0.11778214													113	1	19	1	2020_Feb_05_1203	Test	3.2.4	59.84182071		
Pictures/IA100_L20.bmp	Pictures/IA100_L20.bmp	Pictures/IA100.bmp	"Try to win as much money as you can"	1	risk					2	0	2	0	0	4	4	9																															1884.230043	None	1886.252038	1887.77271	1887.756005	None	1889.293386	None	1	1891.281967	None	1891.281967	None	1891.281967	None	1892.735803	None	1892.735803	1893.738436	1894.841349	None	1894.841349	None	left	1894.841349	None	1895.559901	1896.829922	None	None	1.307889678	0.676487949													113	1	19	1	2020_Feb_05_1203	Test	3.2.4	59.84182071		
Pictures/IA100_G20.bmp	Pictures/IA100_G20.bmp	Pictures/IA100.bmp	"Go ahead and gamble!"""""	1	risk					2	0	2	0	0	5	5	6																															1896.846624	None	1898.868626	1900.389296	1900.372588	None	1901.909968	None	2	1903.898547	None	1903.898547	None	1903.898547	None	None	None	None	None	1905.118433	None	1905.118433	None	right	1905.118433	None	None	None	1905.235401	1907.107004	1.06730019	0.079402226													113	1	19	1	2020_Feb_05_1203	Test	3.2.4	59.84182071		
Pictures/IA100_L40.bmp	Pictures/IA100_L40.bmp	Pictures/IA100.bmp	"Think of the payoff"	1	risk					2	0	2	0	0	6	6	15																															1907.123716	None	1909.145707	1910.666379	1910.649673	None	1912.153636	None	2	1914.175633	None	1914.175633	None	1914.175633	None	None	None	None	None	1915.295251	None	1915.295251	None	right	1915.295251	None	None	None	1915.479065	1917.283818	0.958211688	0.134588188													113	1	19	1	2020_Feb_05_1203	Test	3.2.4	59.84182071		
Pictures/IA75_L60.bmp	Pictures/IA75_L60.bmp	Pictures/IA75.bmp	"Why not take the gamble?"""""	1	risk					2	0	2	0	0	7	7	18																															1917.30054	None	1919.322538	1920.843199	1920.826497	None	1922.363878	None	2	1924.352456	None	1924.352456	None	1924.352456	None	None	None	None	None	1924.98746	None	1924.98746	None	right	1924.98746	None	None	None	1925.087721	1926.992746	0.45338026	0.066373657													113	1	19	1	2020_Feb_05_1203	Test	3.2.4	59.84182071		
Pictures/IA110_55_G95p.bmp	Pictures/IA110_55_G95p.bmp	Pictures/IA110.bmp	"Take a chance!"""""	1	risk					2	0	2	0	0	8	8	12																															1927.009452	None	1929.031448	1930.55212	1930.535417	None	1932.072802	None	2	1934.061374	None	1934.061374	None	1934.061374	None	None	None	None	None	1935.080729	None	1935.080729	None	left	1935.080729	None	1935.398229	1937.069296	None	None	0.856477613	0.269109524													113	1	19	1	2020_Feb_05_1203	Test	3.2.4	59.84182071		
Pictures/IA50_G40.bmp	Pictures/IA50_G40.bmp	Pictures/IA50.bmp	"It would probably be best to play it safe."""""	0	safe					2	0	2	0	0	9	9	13																															1937.086012	None	1939.108013	1940.628676	1940.61197	None	1942.115936	None	1	1944.137931	None	1944.137931	None	1944.137931	None	1944.923333	None	1944.923333	1945.92597	1947.028883	None	1947.028883	None	left	1947.028883	None	1947.613755	1949.017451	None	None	0.619901522	0.536952884													113	1	19	1	2020_Feb_05_1203	Test	3.2.4	59.84182071		
Pictures/IA75_L30.bmp	Pictures/IA75_L30.bmp	Pictures/IA75.bmp	"Hold back"	0	safe					2	0	2	0	0	10	10	17																															1949.034166	None	1951.056163	1952.576832	1952.56013	None	1954.097511	None	1	1956.086086	None	1956.086086	None	1956.086086	None	1956.771226	None	1956.771226	1957.773866	1958.87678	None	1958.87678	None	left	1958.87678	None	1959.612042	1960.882056	None	None	0.535766025	0.689055856													113	1	19	1	2020_Feb_05_1203	Test	3.2.4	59.84182071		
Pictures/IA25_G15.bmp	Pictures/IA25_G15.bmp	Pictures/IA25.bmp	"I think you should take a gamble."""""	1	risk					2	0	2	0	0	11	11	11																															1960.898764	None	1962.920761	1964.441435	1964.42473	None	1965.962112	None	2	1967.950687	None	1967.950687	None	1967.950687	None	None	None	None	None	1968.502141	None	1968.502141	None	right	1968.502141	None	None	None	1969.087015	1970.49071	0.359160186	0.535704595													113	1	19	1	2020_Feb_05_1203	Test	3.2.4	59.84182071		
Pictures/IA50_G30.bmp	Pictures/IA50_G30.bmp	Pictures/IA50.bmp	"I think you should gamble."""""	1	risk					2	0	2	0	0	12	12	0																															1970.507422	None	1972.52942	1974.050095	1974.033387	None	1975.554058	None	1	1977.559349	None	1977.559349	None	1977.559349	None	1978.294585	None	1978.294585	1979.297253	1980.400166	None	1980.400166	None	left	1980.400166	None	1980.784509	1982.388736	None	None	0.606499177	0.341667847													113	1	19	1	2020_Feb_05_1203	Test	3.2.4	59.84182071		
Pictures/IA50_G20.bmp	Pictures/IA50_G20.bmp	Pictures/IA50.bmp	"Let's venture and take a risk!"""""	1	risk					2	0	2	0	0	13	13	5																															1982.405448	None	1984.427445	1985.948116	1985.93141	None	1987.468794	None	1	1989.45737	None	1989.45737	None	1989.45737	None	1990.810936	None	1990.810936	1991.813573	1992.916488	None	1992.916488	None	left	1992.916488	None	1993.5682	1994.905056	None	None	1.252484406	0.617339954													113	1	19	1	2020_Feb_05_1203	Test	3.2.4	59.84182071		
Pictures/IA50_L30.bmp	Pictures/IA50_L30.bmp	Pictures/IA50.bmp	"Take a leap"	1	risk					2	0	2	0	0	14	14	14																															1994.921767	None	1996.943766	1998.46444	1998.447731	None	1999.985116	None	2	2001.973691	None	2001.973691	None	2001.973691	None	None	None	None	None	2002.625408	None	2002.625408	None	right	2002.625408	None	None	None	2002.759091	2004.63069	0.480153617	0.092428336													113	1	19	1	2020_Feb_05_1203	Test	3.2.4	59.84182071		
Pictures/IA25_G5.bmp	Pictures/IA25_G5.bmp	Pictures/IA25.bmp	"Let's stay with the certain option."""""	0	safe					2	0	2	0	0	15	15	4																															2004.647402	None	2006.669399	2008.190073	2008.173365	None	2009.744174	None	2	2011.699327	None	2011.699327	None	2011.699327	None	None	None	None	None	2012.718678	None	2012.718678	None	right	2012.718678	None	None	None	2012.919205	2014.707249	0.850515153	0.151168741													113	1	19	1	2020_Feb_05_1203	Test	3.2.4	59.84182071		
Pictures/IA100_L60.bmp	Pictures/IA100_L60.bmp	Pictures/IA100.bmp	"You'd have a lot to lose"	0	safe					2	0	2	0	0	16	16	19																															2014.723958	None	2016.745961	2018.266631	2018.249927	None	2019.787307	None	2	2021.775883	None	2021.775883	None	2021.775883	None	None	None	None	None	2022.377469	None	2022.377469	None	right	2022.377469	None	None	None	2022.494443	2024.366045	0.429960369	0.06836642													113	1	19	1	2020_Feb_05_1203	Test	3.2.4	59.84182071		
Pictures/IA80_40_L95p.bmp	Pictures/IA80_40_L95p.bmp	Pictures/IA80.bmp	"Let's stay with the certain option."""""	0	safe					2	0	2	0	0	17	17	1																															2024.382752	None	2026.404751	2027.925422	2027.908717	None	2029.446102	None	2	2031.434676	None	2031.434676	None	2031.434676	None	None	None	None	None	2032.086395	None	2032.086395	None	right	2032.086395	None	None	None	2032.203366	2034.074965	0.4831658	0.071431228													113	1	19	1	2020_Feb_05_1203	Test	3.2.4	59.84182071		
Pictures/IA100_G40.bmp	Pictures/IA100_G40.bmp	Pictures/IA100.bmp	"Try your luck and gamble!"""""	1	risk					2	0	2	0	0	18	18	10																															2034.091676	None	2036.113676	2037.634347	2037.617639	None	2039.13836	None	2	2041.143602	None	2041.143602	None	2041.143602	None	None	None	None	None	2042.079403	None	2042.079403	None	left	2042.079403	None	2042.16295	2044.067971	None	None	0.726246087	0.038436302													113	1	19	1	2020_Feb_05_1203	Test	3.2.4	59.84182071		
Pictures/IA75_G60.bmp	Pictures/IA75_G60.bmp	Pictures/IA75.bmp	"Make it exciting"	1	risk					2	0	2	0	0	19	19	7																															2044.084725	None	2046.106682	2047.612801	2047.593977	None	2049.164737	None	2	2051.136608	None	2051.136608	None	2051.136608	None	None	None	None	None	2051.988855	None	2051.988855	None	left	2051.988855	None	2052.155964	2053.994135	None	None	0.677234973	0.12098728													113	1	19	1	2020_Feb_05_1203	Test	3.2.4	59.84182071		
										2	0	2	0																																																																									2054.161247	None	return	6.132581555	2054.161247	None	113	1	19	1	2020_Feb_05_1203	Test	3.2.4	59.84182071		
Pictures/IA40_20_L95p.bmp	Pictures/IA40_20_L95p.bmp	Pictures/IA40.bmp	"Trust me"	1	risk					3	0	3	0	0	0	0	3													2060.444474	None	2060.444474	None	2060.444474	None	left	4.937364733	2060.444474	None	2060.444474	None	2060.444474	None	return	7.353139198	2060.444474	None	2067.864045	None	2069.869318	2071.389994	2071.37329	None	2072.860538	None	2	2074.882535	None	2074.882535	None	2074.882535	None	None	None	None	None	2077.038218	None	2077.038218	None	right	2077.038218	None	None	None	2077.20532	2079.04351	2.003310012	0.127614762													113	1	19	1	2020_Feb_05_1203	Test	3.2.4	59.84182071		
Pictures/IA75_L60.bmp	Pictures/IA75_L60.bmp	Pictures/IA75.bmp	"Why not take the gamble?"""""	1	risk					3	0	3	0	0	1	1	4																															2079.060214	None	2081.082212	2082.602884	2082.586176	None	2084.173696	None	2	2086.112138	None	2086.112138	None	2086.112138	None	None	None	None	None	2086.897546	None	2086.897546	None	right	2086.897546	None	None	None	2086.981091	2088.886113	0.573715716	0.036289465													113	1	19	1	2020_Feb_05_1203	Test	3.2.4	59.84182071		
Pictures/IA25_G20.bmp	Pictures/IA25_G20.bmp	Pictures/IA25.bmp	"I wouldn't gamble for this one. """""	0	safe					3	0	3	0	0	2	2	10																															2088.902823	None	2090.924823	2092.445495	2092.428789	None	2093.966172	None	2	2095.954751	None	2095.954751	None	2095.954751	None	None	None	None	None	2096.62318	None	2096.62318	None	left	2096.62318	None	2096.756865	2098.628462	None	None	0.491095754	0.094649657													113	1	19	1	2020_Feb_05_1203	Test	3.2.4	59.84182071		
Pictures/IA75_G60.bmp	Pictures/IA75_G60.bmp	Pictures/IA75.bmp	"Make it exciting"	1	risk					3	0	3	0	0	3	3	6																															2098.645173	None	2100.667174	2102.187844	2102.171137	None	2103.691814	None	1	2105.697099	None	2105.697099	None	2105.697099	None	2106.248554	None	2106.248554	2107.251194	2108.354116	None	2108.354116	None	left	2108.354116	None	2108.771868	2110.342689	None	None	0.404750625	0.37171453													113	1	19	1	2020_Feb_05_1203	Test	3.2.4	59.84182071		
Pictures/IA75_G30.bmp	Pictures/IA75_G30.bmp	Pictures/IA75.bmp	"Be bold"	1	risk					3	0	3	0	0	4	4	18																															2110.359393	None	2112.381387	2113.902065	2113.885352	None	2115.389321	None	2	2117.411314	None	2117.411314	None	2117.411314	None	None	None	None	None	2118.129876	None	2118.129876	None	right	2118.129876	None	None	None	2118.430635	2120.135157	0.56252812	0.259957388													113	1	19	1	2020_Feb_05_1203	Test	3.2.4	59.84182071		
Pictures/IA110_55_G95p.bmp	Pictures/IA110_55_G95p.bmp	Pictures/IA110.bmp	"Take a chance!"""""	1	risk					3	0	3	0	0	5	5	2																															2120.151871	None	2122.173867	2123.69454	2123.677835	None	2125.181797	None	2	2127.203797	None	2127.203797	None	2127.203797	None	None	None	None	None	2127.972489	None	2127.972489	None	right	2127.972489	None	None	None	2128.106171	2129.977773	0.6180445	0.097348501													113	1	19	1	2020_Feb_05_1203	Test	3.2.4	59.84182071		
Pictures/IA25_G10.bmp	Pictures/IA25_G10.bmp	Pictures/IA25.bmp	"What's life without a little risk?"""""	1	risk					3	0	3	0	0	6	6	19																															2129.994483	None	2132.016481	2133.537156	2133.520448	None	2135.057837	None	1	2137.046412	None	2137.046412	None	2137.046412	None	2137.664713	None	2137.664713	2138.667347	2139.803681	None	2139.803681	None	right	2139.803681	None	None	None	2140.756189	2141.792252	0.487434908	0.914163858													113	1	19	1	2020_Feb_05_1203	Test	3.2.4	59.84182071		
Pictures/IA75_L45.bmp	Pictures/IA75_L45.bmp	Pictures/IA75.bmp	"Don't gamble for this one"	0	safe					3	0	3	0	0	7	7	9																															2141.808964	None	2143.830962	2145.35164	2145.334995	None	2146.838893	None	2	2148.860892	None	2148.860892	None	2148.860892	None	None	None	None	None	2149.896957	None	2149.896957	None	right	2149.896957	None	None	None	2150.047349	2151.885527	0.808953751	0.116877843													113	1	19	1	2020_Feb_05_1203	Test	3.2.4	59.84182071		
Pictures/IA50_L30.bmp	Pictures/IA50_L30.bmp	Pictures/IA50.bmp	"Take a leap"	1	risk					3	0	3	0	0	8	8	12																															2151.90224	None	2153.924238	2155.428201	2155.411495	None	2156.96559	None	2	2158.954167	None	2158.954167	None	2158.954167	None	None	None	None	None	2159.605887	None	2159.605887	None	right	2159.605887	None	None	None	2159.722866	2161.594457	0.4436882	0.071947618													113	1	19	1	2020_Feb_05_1203	Test	3.2.4	59.84182071		
Pictures/IA100_L40.bmp	Pictures/IA100_L40.bmp	Pictures/IA100.bmp	"Think of the payoff"	1	risk					3	0	3	0	0	9	9	0																															2161.611168	None	2163.63317	2165.153841	2165.137136	None	2166.657813	None	2	2168.663099	None	2168.663099	None	2168.663099	None	None	None	None	None	2169.247972	None	2169.247972	None	right	2169.247972	None	None	None	2169.331524	2171.236544	0.382755626	0.037879111													113	1	19	1	2020_Feb_05_1203	Test	3.2.4	59.84182071		
Pictures/IA100_G60.bmp	Pictures/IA100_G60.bmp	Pictures/IA100.bmp	"Be cautious"	0	safe					3	0	3	0	0	10	10	5																															2171.253255	None	2173.275255	2174.795931	2174.779223	None	2176.316612	None	2	2178.305184	None	2178.305184	None	2178.305184	None	None	None	None	None	2178.956905	None	2178.956905	None	left	2178.956905	None	2179.023744	2180.962186	None	None	0.476660455	0.032931719													113	1	19	1	2020_Feb_05_1203	Test	3.2.4	59.84182071		
Pictures/IA25_L5.bmp	Pictures/IA25_L5.bmp	Pictures/IA25.bmp	"It would be smarter to choose the safe option."""""	0	safe					3	0	3	0	0	11	11	7																															2180.978901	None	2183.0009	2184.521571	2184.504865	None	2186.042249	None	2	2188.030827	None	2188.030827	None	2188.030827	None	None	None	None	None	2188.665835	None	2188.665835	None	right	2188.665835	None	None	None	2188.715961	2190.654407	0.447008707	0.004010596													113	1	19	1	2020_Feb_05_1203	Test	3.2.4	59.84182071		
Pictures/IA50_L40.bmp	Pictures/IA50_L40.bmp	Pictures/IA50.bmp	"That gamble doesn't sound too good"	0	safe					3	0	3	0	0	12	12	1																															2190.671116	None	2192.693117	2194.213792	2194.197083	None	2195.734468	None	2	2197.723046	None	2197.723046	None	2197.723046	None	None	None	None	None	2198.341357	None	2198.341357	None	right	2198.341357	None	None	None	2199.862019	None	0.418798354	1.472473252													113	1	19	1	2020_Feb_05_1203	Test	3.2.4	59.84182071		
Pictures/IA100_G20.bmp	Pictures/IA100_G20.bmp	Pictures/IA100.bmp	"Go ahead and gamble!"""""	1	risk					3	0	3	0	0	13	13	17																															2200.346627	None	2202.368625	2203.8893	2203.872594	None	2205.393272	None	2	2207.39856	None	2207.39856	None	2207.39856	None	None	None	None	None	2208.033562	None	2208.033562	None	right	2208.033562	None	None	None	2208.150536	2210.022135	0.47928364	0.076270186													113	1	19	1	2020_Feb_05_1203	Test	3.2.4	59.84182071		
Pictures/IA80_40_L95p.bmp	Pictures/IA80_40_L95p.bmp	Pictures/IA80.bmp	"Let's stay with the certain option."""""	0	safe					3	0	3	0	0	14	14	15																															2210.038846	None	2212.060844	2213.58152	2213.564813	None	2215.068779	None	2	2217.090775	None	2217.090775	None	2217.090775	None	None	None	None	None	2218.110131	None	2218.110131	None	left	2218.110131	None	2218.277234	2220.115417	None	None	0.843072222	0.119709701													113	1	19	1	2020_Feb_05_1203	Test	3.2.4	59.84182071		
Pictures/IA50_G10.bmp	Pictures/IA50_G10.bmp	Pictures/IA50.bmp	"Go with the safe option here!"""""	0	safe					3	0	3	0	0	15	15	11																															2220.132124	None	2222.154122	2223.674797	2223.658089	None	2225.178769	None	2	2227.184059	None	2227.184059	None	2227.184059	None	None	None	None	None	2228.153275	None	2228.153275	None	right	2228.153275	None	None	None	2228.337102	2230.141859	0.805786161	0.140559881													113	1	19	1	2020_Feb_05_1203	Test	3.2.4	59.84182071		
Pictures/IA100_G80.bmp	Pictures/IA100_G80.bmp	Pictures/IA100.bmp	"Why not gamble?"""""	1	risk					3	0	3	0	0	16	16	14																															2230.158558	None	2232.180558	2233.701233	2233.684526	None	2235.255337	None	2	2237.210491	None	2237.210491	None	2237.210491	None	None	None	None	None	2237.728523	None	2237.728523	None	left	2237.728523	None	2237.845498	2239.717094	None	None	0.363352198	0.077311582													113	1	19	1	2020_Feb_05_1203	Test	3.2.4	59.84182071		
Pictures/IA20_10_G95p.bmp	Pictures/IA20_10_G95p.bmp	Pictures/IA20.bmp	"Take a leap"	1	risk					3	0	3	0	0	17	17	8																															2239.733804	None	2241.755805	2243.276483	2243.259772	None	2244.78045	None	2	2246.785735	None	2246.785735	None	2246.785735	None	None	None	None	None	2247.821798	None	2247.821798	None	left	2247.821798	None	2247.922061	2249.827083	None	None	0.844123683	0.05603723													113	1	19	1	2020_Feb_05_1203	Test	3.2.4	59.84182071		
Pictures/IA50_L10.bmp	Pictures/IA50_L10.bmp	Pictures/IA50.bmp	"Play it safe"	0	safe					3	0	3	0	0	18	18	13																															2249.843798	None	2251.865795	2253.386468	2253.369762	None	2254.907147	None	2	2256.895725	None	2256.895725	None	2256.895725	None	None	None	None	None	2257.764679	None	2257.764679	None	left	2257.764679	None	2257.831522	2259.769968	None	None	0.654125556	0.025165532													113	1	19	1	2020_Feb_05_1203	Test	3.2.4	59.84182071		
Pictures/IA40_20_G95p.bmp	Pictures/IA40_20_G95p.bmp	Pictures/IA40.bmp	"Hold back"	0	safe					3	0	3	0	0	19	19	16																															2259.786675	None	2261.808676	2263.329354	2263.312643	None	2264.883451	None	1	2266.838604	None	2266.838604	None	2266.838604	None	2267.908092	None	2267.908092	2268.910732	2270.013645	None	2270.013645	None	left	2270.013645	None	2270.347867	2272.018925	None	None	0.919243399	0.296189952													113	1	19	1	2020_Feb_05_1203	Test	3.2.4	59.84182071		
										3	0	3	0																																																																									2272.186038	None	return	8.099790057	2272.186038	None	113	1	19	1	2020_Feb_05_1203	Test	3.2.4	59.84182071		
Pictures/IA50_L20.bmp	Pictures/IA50_L20.bmp	Pictures/IA50.bmp	"Certainty is boring"	1	risk					4	0	4	0	0	0	0	17													2280.441137	None	2280.441137	None	2280.441137	None	right	1.620707767	2280.441137	None	2280.441137	None	2280.441137	None	return	3.492495383	2280.441137	None	2283.983808	None	2285.989098	2287.509771	2287.493063	None	2289.01374	None	2	2291.002318	None	2291.002318	None	2291.002318	None	None	None	None	None	2292.155357	None	2292.155357	None	right	2292.155357	None	None	None	2292.222199	2294.160642	0.971525291	0.026483136													113	1	19	1	2020_Feb_05_1203	Test	3.2.4	59.84182071		
Pictures/IA20_10_G95p.bmp	Pictures/IA20_10_G95p.bmp	Pictures/IA20.bmp	"Take a leap"	1	risk					4	0	4	0	0	1	1	7																															2294.177351	None	2296.199352	2297.720031	2297.703319	None	2299.240704	None	2	2301.229287	None	2301.229287	None	2301.229287	None	None	None	None	None	2301.89771	None	2301.89771	None	left	2301.89771	None	2302.031395	2303.903001	None	None	0.488561062	0.092124656													113	1	19	1	2020_Feb_05_1203	Test	3.2.4	59.84182071		
Pictures/IA50_G30.bmp	Pictures/IA50_G30.bmp	Pictures/IA50.bmp	"I think you should gamble."""""	1	risk					4	0	4	0	0	2	2	3																															2303.919708	None	2305.941707	2307.46238	2307.445674	None	2308.966354	None	2	2310.97164	None	2310.97164	None	2310.97164	None	None	None	None	None	2311.757042	None	2311.757042	None	left	2311.757042	None	2311.823883	2313.762324	None	None	0.594203034	0.032804241													113	1	19	1	2020_Feb_05_1203	Test	3.2.4	59.84182071		
Pictures/IA100_G20.bmp	Pictures/IA100_G20.bmp	Pictures/IA100.bmp	"Go ahead and gamble!"""""	1	risk					4	0	4	0	0	3	3	15																															2313.779038	None	2315.801035	2317.321711	2317.305004	None	2318.842384	None	2	2320.830972	None	2320.830972	None	2320.830972	None	None	None	None	None	2321.482687	None	2321.482687	None	right	2321.482687	None	None	None	2321.633079	2323.471259	0.494870033	0.115148207													113	1	19	1	2020_Feb_05_1203	Test	3.2.4	59.84182071		
Pictures/IA75_L30.bmp	Pictures/IA75_L30.bmp	Pictures/IA75.bmp	"Hold back"	0	safe					4	0	4	0	0	4	4	18																															2323.48797	None	2325.50997	2327.030647	2327.013938	None	2328.551327	None	2	2330.539901	None	2330.539901	None	2330.539901	None	None	None	None	None	2331.475704	None	2331.475704	None	right	2331.475704	None	None	None	2332.127417	2333.464273	0.761937477	0.610133601													113	1	19	1	2020_Feb_05_1203	Test	3.2.4	59.84182071		
Pictures/IA75_G45.bmp	Pictures/IA75_G45.bmp	Pictures/IA75.bmp	"Don't gamble for this one."""""	0	safe					4	0	4	0	0	5	5	10																															2333.480987	None	2335.502987	2337.02366	2337.006954	None	2338.527629	None	1	2340.532923	None	2340.532923	None	2340.532923	None	2341.468719	None	2341.468719	2342.471356	2343.590986	None	2343.590986	None	left	2343.590986	None	2344.042168	2345.579555	None	None	0.824926667	0.406849989													113	1	19	1	2020_Feb_05_1203	Test	3.2.4	59.84182071		
Pictures/IA25_G20.bmp	Pictures/IA25_G20.bmp	Pictures/IA25.bmp	"I wouldn't gamble for this one. """""	0	safe					4	0	4	0	0	6	6	2																															2345.596265	None	2347.618267	2349.13894	2349.122232	None	2350.626199	None	2	2352.648198	None	2352.648198	None	2352.648198	None	None	None	None	None	2353.333358	None	2353.333358	None	left	2353.333358	None	2353.700967	2355.321908	None	None	0.525640086	0.328450189													113	1	19	1	2020_Feb_05_1203	Test	3.2.4	59.84182071		
Pictures/IA100_L60.bmp	Pictures/IA100_L60.bmp	Pictures/IA100.bmp	"You'd have a lot to lose"	0	safe					4	0	4	0	0	7	7	1																															2355.338635	None	2357.36062	2358.881304	2358.864588	None	2360.40198	None	2	2362.390552	None	2362.390552	None	2362.390552	None	None	None	None	None	2362.908584	None	2362.908584	None	right	2362.908584	None	None	None	2363.008845	2364.913869	0.343290749	0.065249849													113	1	19	1	2020_Feb_05_1203	Test	3.2.4	59.84182071		
Pictures/IA25_L20.bmp	Pictures/IA25_L20.bmp	Pictures/IA25.bmp	"Don't be tempted to gamble."""""	0	safe					4	0	4	0	0	8	8	0																															2364.930579	None	2366.952579	2368.473253	2368.45655	None	2369.993932	None	1	2371.982514	None	2371.982514	None	2371.982514	None	2372.801338	None	2372.801338	2373.803942	2374.906889	None	2374.906889	None	right	2374.906889	None	None	None	2375.358098	2376.895466	0.703328967	0.402947426													113	1	19	1	2020_Feb_05_1203	Test	3.2.4	59.84182071		
Pictures/IA50_L10.bmp	Pictures/IA50_L10.bmp	Pictures/IA50.bmp	"Play it safe"	0	safe					4	0	4	0	0	9	9	5																															2376.912172	None	2378.934175	2380.454848	2380.438143	None	2381.942106	None	1	2383.964106	None	2383.964106	None	2383.964106	None	2384.899904	None	2384.899904	2385.902546	2387.022171	None	2387.022171	None	right	2387.022171	None	None	None	2387.556913	2389.027452	0.825747652	0.495662333													113	1	19	1	2020_Feb_05_1203	Test	3.2.4	59.84182071		
Pictures/IA25_L10.bmp	Pictures/IA25_L10.bmp	Pictures/IA25.bmp	"Dont be afraid to take the risk!"""""	1	risk					4	0	4	0	0	10	10	13																															2389.044163	None	2391.066164	2392.586843	2392.570132	None	2394.124227	None	1	2396.096094	None	2396.096094	None	2396.096094	None	2396.848076	None	2396.848076	2397.850719	2398.953635	None	2398.953635	None	right	2398.953635	None	None	None	2399.421528	2400.958914	0.62974811	0.428201632													113	1	19	1	2020_Feb_05_1203	Test	3.2.4	59.84182071		
Pictures/IA110_55_G95p.bmp	Pictures/IA110_55_G95p.bmp	Pictures/IA110.bmp	"Take a chance!"""""	1	risk					4	0	4	0	0	11	11	16																															2400.975626	None	2402.997625	2404.518303	2404.501594	None	2406.038979	None	2	2408.027559	None	2408.027559	None	2408.027559	None	None	None	None	None	2408.846384	None	2408.846384	None	right	2408.846384	None	None	None	2409.013488	2410.851666	0.666284945	0.127444789													113	1	19	1	2020_Feb_05_1203	Test	3.2.4	59.84182071		
Pictures/IA25_G5.bmp	Pictures/IA25_G5.bmp	Pictures/IA25.bmp	"Let's stay with the certain option."""""	0	safe					4	0	4	0	0	12	12	6																															2410.86838	None	2412.890379	2414.411052	2414.394348	None	2415.931731	None	2	2417.92031	None	2417.92031	None	2417.92031	None	None	None	None	None	2418.58874	None	2418.58874	None	right	2418.58874	None	None	None	2418.70571	2420.577317	0.493537396	0.073095721													113	1	19	1	2020_Feb_05_1203	Test	3.2.4	59.84182071		
Pictures/IA100_G60.bmp	Pictures/IA100_G60.bmp	Pictures/IA100.bmp	"Be cautious"	0	safe					4	0	4	0	0	13	13	8																															2420.594023	None	2422.616024	2424.1367	2424.119993	None	2425.623956	None	2	2427.645957	None	2427.645957	None	2427.645957	None	None	None	None	None	2428.966103	None	2428.966103	None	left	2428.966103	None	2429.166629	2430.971389	None	None	1.143888631	0.159720303													113	1	19	1	2020_Feb_05_1203	Test	3.2.4	59.84182071		
Pictures/IA20_10_L95p.bmp	Pictures/IA20_10_L95p.bmp	Pictures/IA20.bmp	"Don't be tempted to gamble."""""	0	safe					4	0	4	0	0	14	14	19																															2430.988101	None	2433.010099	2434.530778	2434.514068	None	2436.051454	None	2	2438.040035	None	2438.040035	None	2438.040035	None	None	None	None	None	2438.725176	None	2438.725176	None	right	2438.725176	None	None	None	2438.858861	2440.730456	0.533798826	0.096658899													113	1	19	1	2020_Feb_05_1203	Test	3.2.4	59.84182071		
Pictures/IA75_G15.bmp	Pictures/IA75_G15.bmp	Pictures/IA75.bmp	"Take a chance!"""""	1	risk					4	0	4	0	0	15	15	4																															2440.747167	None	2442.76917	2444.289843	2444.273139	None	2445.810519	None	2	2447.799099	None	2447.799099	None	2447.799099	None	None	None	None	None	2448.400685	None	2448.400685	None	right	2448.400685	None	None	None	2448.567791	2450.405981	0.446738491	0.133151232													113	1	19	1	2020_Feb_05_1203	Test	3.2.4	59.84182071		
Pictures/IA100_L40.bmp	Pictures/IA100_L40.bmp	Pictures/IA100.bmp	"Think of the payoff"	1	risk					4	0	4	0	0	16	16	14																															2450.422682	None	2452.444681	2453.965356	2453.948648	None	2455.452615	None	2	2457.474614	None	2457.474614	None	2457.474614	None	None	None	None	None	2457.992646	None	2457.992646	None	right	2457.992646	None	None	None	2458.092908	2459.99793	0.347230633	0.053194365													113	1	19	1	2020_Feb_05_1203	Test	3.2.4	59.84182071		
Pictures/IA100_G40.bmp	Pictures/IA100_G40.bmp	Pictures/IA100.bmp	"Try your luck and gamble!"""""	1	risk					4	0	4	0	0	17	17	12																															2460.014642	None	2462.036647	2463.557317	2463.540611	None	2465.061284	None	1	2467.066574	None	2467.066574	None	2467.066574	None	2468.019085	None	2468.019085	2469.021726	2470.124641	None	2470.124641	None	left	2470.124641	None	2470.475561	2472.113211	None	None	0.851267842	0.30519539													113	1	19	1	2020_Feb_05_1203	Test	3.2.4	59.84182071		
Pictures/IA50_G20.bmp	Pictures/IA50_G20.bmp	Pictures/IA50.bmp	"Let's venture and take a risk!"""""	1	risk					4	0	4	0	0	18	18	9																															2472.129923	None	2474.151926	2475.6726	2475.655892	None	2477.193276	None	2	2479.181875	None	2479.181875	None	2479.181875	None	None	None	None	None	2479.415812	None	2479.415812	None	right	2479.415812	None	None	None	2479.58291	2481.421093	0.063975659	0.126032833													113	1	19	1	2020_Feb_05_1203	Test	3.2.4	59.84182071		
Pictures/IA25_L15.bmp	Pictures/IA25_L15.bmp	Pictures/IA25.bmp	"There's not much on the line here"	1	risk					4	0	4	0	0	19	19	11																															2481.437806	None	2483.459801	2484.963765	2484.947064	None	2486.501155	None	2	2488.489735	None	2488.489735	None	2488.489735	None	None	None	None	None	2488.957635	None	2488.957635	None	right	2488.957635	None	None	None	2489.007763	2490.946207	0.300108717	0.01620797													113	1	19	1	2020_Feb_05_1203	Test	3.2.4	59.84182071		
										4	0	4	0																																																																									2491.11332	None	return	6.004512741	2491.11332	None	113	1	19	1	2020_Feb_05_1203	Test	3.2.4	59.84182071		
Pictures/IA100_G20.bmp	Pictures/IA100_G20.bmp	Pictures/IA100.bmp	"Go ahead and gamble!"""""	1	risk					5	0	5	0	0	0	0	12													2497.27958	None	2497.27958	None	2497.27958	None	left	1.070254301	2497.27958	None	2497.27958	None	2497.27958	None	return	4.982028489	2497.27958	None	2502.309472	None	2504.33151	2505.852184	2505.835482	None	2507.356152	None	2	2509.344741	None	2509.344741	None	2509.344741	None	None	None	None	None	2510.113422	None	2510.113422	None	right	2510.113422	None	None	None	2510.430923	2512.102	0.605098033	0.276427452													113	1	19	1	2020_Feb_05_1203	Test	3.2.4	59.84182071		
Pictures/IA100_G40.bmp	Pictures/IA100_G40.bmp	Pictures/IA100.bmp	"Try your luck and gamble!"""""	1	risk					5	0	5	0	0	1	1	17																															2512.118708	None	2514.140708	2515.661385	2515.644676	None	2517.148641	None	2	2519.170642	None	2519.170642	None	2519.170642	None	None	None	None	None	2519.939336	None	2519.939336	None	left	2519.939336	None	2520.173285	2521.944619	None	None	0.603204615	0.186503809													113	1	19	1	2020_Feb_05_1203	Test	3.2.4	59.84182071		
Pictures/IA40_20_G95p.bmp	Pictures/IA40_20_G95p.bmp	Pictures/IA40.bmp	"Hold back"	0	safe					5	0	5	0	0	2	2	18																															2521.96133	None	2523.983331	2525.504006	2525.4873	None	2526.991262	None	1	2529.013264	None	2529.013264	None	2529.013264	None	2531.152241	None	2531.152241	2532.154878	2533.257792	None	2533.257792	None	left	2533.257792	None	2534.594647	None	None	None	2.000571407	1.300046761													113	1	19	1	2020_Feb_05_1203	Test	3.2.4	59.84182071		
Pictures/IA110_55_L95p.bmp	Pictures/IA110_55_L95p.bmp	Pictures/IA110.bmp	"Trust me"	1	risk					5	0	5	0	0	3	3	8																															2535.279786	None	2537.301786	2538.822461	2538.805755	None	2540.343151	None	2	2542.33172	None	2542.33172	None	2542.33172	None	None	None	None	None	2542.849751	None	2542.849751	None	right	2542.849751	None	None	None	2542.983434	2544.838326	0.354125622	0.100084192													113	1	19	1	2020_Feb_05_1203	Test	3.2.4	59.84182071		
Pictures/IA50_L30.bmp	Pictures/IA50_L30.bmp	Pictures/IA50.bmp	"Take a leap"	1	risk					5	0	5	0	0	4	4	10																															2544.855035	None	2546.87704	2548.397711	2548.381005	None	2549.918393	None	2	2551.906971	None	2551.906971	None	2551.906971	None	None	None	None	None	2552.374879	None	2552.374879	None	right	2552.374879	None	None	None	2552.425002	2554.38016	0.298863816	0.006967833													113	1	19	1	2020_Feb_05_1203	Test	3.2.4	59.84182071		
Pictures/IA75_L15.bmp	Pictures/IA75_L15.bmp	Pictures/IA75.bmp	"Trust me–gamble!"""""	1	risk					5	0	5	0	0	5	5	2																															2554.396866	None	2556.418869	2557.939541	2557.922833	None	2559.460221	None	2	2561.4488	None	2561.4488	None	2561.4488	None	None	None	None	None	2562.00026	None	2562.00026	None	right	2562.00026	None	None	None	2562.651969	2563.988826	0.397040859	0.605573052													113	1	19	1	2020_Feb_05_1203	Test	3.2.4	59.84182071		
Pictures/IA20_10_L95p.bmp	Pictures/IA20_10_L95p.bmp	Pictures/IA20.bmp	"Don't be tempted to gamble."""""	0	safe					5	0	5	0	0	6	6	13																															2564.005538	None	2566.027538	2567.548214	2567.53151	None	2569.035476	None	2	2571.057473	None	2571.057473	None	2571.057473	None	None	None	None	None	2572.09354	None	2572.09354	None	left	2572.09354	None	2572.160378	2574.098822	None	None	0.852360012	0.024297785													113	1	19	1	2020_Feb_05_1203	Test	3.2.4	59.84182071		
Pictures/IA100_L60.bmp	Pictures/IA100_L60.bmp	Pictures/IA100.bmp	"You'd have a lot to lose"	0	safe					5	0	5	0	0	7	7	4																															2574.115532	None	2576.137534	2577.658208	2577.641505	None	2579.14547	None	2	2581.167468	None	2581.167468	None	2581.167468	None	None	None	None	None	2581.835895	None	2581.835895	None	right	2581.835895	None	None	None	2582.086556	2583.824441	0.4943734	0.201946737													113	1	19	1	2020_Feb_05_1203	Test	3.2.4	59.84182071		
Pictures/IA25_G20.bmp	Pictures/IA25_G20.bmp	Pictures/IA25.bmp	"I wouldn't gamble for this one. """""	0	safe					5	0	5	0	0	8	8	5																															2583.841146	None	2585.863179	2587.367149	2587.350449	None	2588.887827	None	2	2590.893114	None	2590.893114	None	2590.893114	None	None	None	None	None	2591.778786	None	2591.778786	None	right	2591.778786	None	None	None	2591.929176	2593.767358	0.696729275	0.107061156													113	1	19	1	2020_Feb_05_1203	Test	3.2.4	59.84182071		
Pictures/IA75_L60.bmp	Pictures/IA75_L60.bmp	Pictures/IA75.bmp	"Why not take the gamble?"""""	1	risk					5	0	5	0	0	9	9	6																															2593.784067	None	2595.806068	2597.326744	2597.310036	None	2598.830712	None	2	2600.836001	None	2600.836001	None	2600.836001	None	None	None	None	None	2601.821954	None	2601.821954	None	right	2601.821954	None	None	None	2601.989041	2603.810471	0.81784003	0.119884261													113	1	19	1	2020_Feb_05_1203	Test	3.2.4	59.84182071		
Pictures/IA20_10_G95p.bmp	Pictures/IA20_10_G95p.bmp	Pictures/IA20.bmp	"Take a leap"	1	risk					5	0	5	0	0	10	10	7																															2603.827224	None	2605.849218	2607.353185	2607.336501	None	2608.873827	None	2	2610.879154	None	2610.879154	None	2610.879154	None	None	None	None	None	2612.182591	None	2612.182591	None	left	2612.182591	None	2612.299566	2614.171163	None	None	1.118697469	0.079243362													113	1	19	1	2020_Feb_05_1203	Test	3.2.4	59.84182071		
Pictures/IA100_L80.bmp	Pictures/IA100_L80.bmp	Pictures/IA100.bmp	"Go all in!"""""	1	risk					5	0	5	0	0	11	11	0																															2614.187876	None	2616.20988	2617.73055	2617.713845	None	2619.234519	None	2	2621.239816	None	2621.239816	None	2621.239816	None	None	None	None	None	2621.891529	None	2621.891529	None	right	2621.891529	None	None	None	2621.975079	2623.880071	0.502031747	0.042315142													113	1	19	1	2020_Feb_05_1203	Test	3.2.4	59.84182071		
Pictures/IA75_G15.bmp	Pictures/IA75_G15.bmp	Pictures/IA75.bmp	"Take a chance!"""""	1	risk					5	0	5	0	0	12	12	9																															2623.896811	None	2625.918779	2627.439488	2627.42278	None	2628.943456	None	2	2630.948746	None	2630.948746	None	2630.948746	None	None	None	None	None	2631.399937	None	2631.399937	None	right	2631.399937	None	None	None	2631.450065	2633.388512	0.297097357	0.013888596													113	1	19	1	2020_Feb_05_1203	Test	3.2.4	59.84182071		
Pictures/IA25_G5.bmp	Pictures/IA25_G5.bmp	Pictures/IA25.bmp	"Let's stay with the certain option."""""	0	safe					5	0	5	0	0	13	13	16																															2633.40522	None	2635.427221	2636.947899	2636.931189	None	2638.435154	None	2	2640.457159	None	2640.457159	None	2640.457159	None	None	None	None	None	2641.042031	None	2641.042031	None	right	2641.042031	None	None	None	2641.092165	2643.030604	0.404689333	0.011819053													113	1	19	1	2020_Feb_05_1203	Test	3.2.4	59.84182071		
Pictures/IA100_G60.bmp	Pictures/IA100_G60.bmp	Pictures/IA100.bmp	"Be cautious"	0	safe					5	0	5	0	0	14	14	19																															2643.047318	None	2645.069319	2646.589991	2646.573288	None	2648.093965	None	2	2650.099248	None	2650.099248	None	2650.099248	None	None	None	None	None	2650.717547	None	2650.717547	None	left	2650.717547	None	2650.750965	2652.722829	None	None	0.434581948	0.000282395													113	1	19	1	2020_Feb_05_1203	Test	3.2.4	59.84182071		
Pictures/IA50_G20.bmp	Pictures/IA50_G20.bmp	Pictures/IA50.bmp	"Let's venture and take a risk!"""""	1	risk					5	0	5	0	0	15	15	1																															2652.73954	None	2654.761543	2656.282218	2656.265509	None	2657.769477	None	2	2659.791476	None	2659.791476	None	2659.791476	None	None	None	None	None	2660.309506	None	2660.309506	None	right	2660.309506	None	None	None	2660.743983	2662.314792	0.342370211	0.392323795													113	1	19	1	2020_Feb_05_1203	Test	3.2.4	59.84182071		
Pictures/IA75_G60.bmp	Pictures/IA75_G60.bmp	Pictures/IA75.bmp	"Make it exciting"	1	risk					5	0	5	0	0	16	16	11																															2662.331504	None	2664.353507	2665.87418	2665.857477	None	2667.428283	None	2	2669.383438	None	2669.383438	None	2669.383438	None	None	None	None	None	2670.620034	None	2670.620034	None	left	2670.620034	None	2671.188194	2672.625316	None	None	1.054409041	0.521806411													113	1	19	1	2020_Feb_05_1203	Test	3.2.4	59.84182071		
Pictures/IA25_L10.bmp	Pictures/IA25_L10.bmp	Pictures/IA25.bmp	"Dont be afraid to take the risk!"""""	1	risk					5	0	5	0	0	17	17	15																															2672.642027	None	2674.664028	2676.184708	2676.168002	None	2677.671962	None	1	2679.693979	None	2679.693979	None	2679.693979	None	2680.211992	None	2680.211992	2681.214635	2682.317547	None	2682.317547	None	right	2682.317547	None	None	None	2683.036108	2684.306121	0.391862227	0.672293269													113	1	19	1	2020_Feb_05_1203	Test	3.2.4	59.84182071		
Pictures/IA100_L20.bmp	Pictures/IA100_L20.bmp	Pictures/IA100.bmp	"Try to win as much money as you can"	1	risk					5	0	5	0	0	18	18	14																															2684.322831	None	2686.344843	2687.865509	2687.848801	None	2689.369479	None	1	2691.374771	None	2691.374771	None	2691.374771	None	2691.94293	None	2691.94293	2692.94557	2694.048485	None	2694.048485	None	left	2694.048485	None	2694.650066	2696.053767	None	None	0.423058834	0.565341845													113	1	19	1	2020_Feb_05_1203	Test	3.2.4	59.84182071		
Pictures/IA40_20_L95p.bmp	Pictures/IA40_20_L95p.bmp	Pictures/IA40.bmp	"Trust me"	1	risk					5	0	5	0	0	19	19	3																															2696.070477	None	2698.092481	2699.613154	2699.596448	None	2701.117125	None	2	2703.122417	None	2703.122417	None	2703.122417	None	None	None	None	None	2703.824226	None	2703.824226	None	right	2703.824226	None	None	None	2703.891108	2705.829548	0.515442918	0.029609755													113	1	19	1	2020_Feb_05_1203	Test	3.2.4	59.84182071		
										5	0	5	0																																																																									2705.996658	None	return	3.593175034	2705.996658	None	113	1	19	1	2020_Feb_05_1203	Test	3.2.4	59.84182071		
Pictures/IA50_L40.bmp	Pictures/IA50_L40.bmp	Pictures/IA50.bmp	"That gamble doesn't sound too good"	0	safe					6	0	6	0	0	0	0	7													2709.756575	None	2709.756575	None	2709.756575	None	left	1.31325799	2709.756575	None	2709.756575	None	2709.756575	None	return	3.233045152	2709.756575	None	2713.048587	None	2715.053877	2716.574552	2716.557848	None	2718.06181	None	2	2720.067101	None	2720.067101	None	2720.067101	None	None	None	None	None	2720.618552	None	2720.618552	None	right	2720.618552	None	None	None	2721.019607	2722.623838	0.36275654	0.811298475													113	1	19	1	2020_Feb_05_1203	Test	3.2.4	59.84182071		
Pictures/IA75_G15.bmp	Pictures/IA75_G15.bmp	Pictures/IA75.bmp	"Take a chance!"""""	1	risk					6	0	6	0	0	1	1	13																															2722.640549	None	2724.662551	2726.183229	2726.166518	None	2727.670481	None	2	2729.692484	None	2729.692484	None	2729.692484	None	None	None	None	None	2730.260648	None	2730.260648	None	right	2730.260648	None	None	None	2730.327493	2732.265933	0.401356118	0.033182427													113	1	19	1	2020_Feb_05_1203	Test	3.2.4	59.84182071		
Pictures/IA75_L15.bmp	Pictures/IA75_L15.bmp	Pictures/IA75.bmp	"Trust me–gamble!"""""	1	risk					6	0	6	0	0	2	2	11																															2732.282644	None	2734.304644	2735.825319	2735.808611	None	2737.312577	None	2	2739.334601	None	2739.334601	None	2739.334601	None	None	None	None	None	2740.170118	None	2740.170118	None	right	2740.170118	None	None	None	2740.704856	2742.175397	0.663235348	0.707731359													113	1	19	1	2020_Feb_05_1203	Test	3.2.4	59.84182071		
Pictures/IA50_G40.bmp	Pictures/IA50_G40.bmp	Pictures/IA50.bmp	"It would probably be best to play it safe."""""	0	safe					6	0	6	0	0	3	3	6																															2742.192111	None	2744.214111	2745.734787	2745.718079	None	2747.238755	None	2	2749.244045	None	2749.244045	None	2749.244045	None	None	None	None	None	2749.74533	None	2749.74533	None	left	2749.74533	None	2750.31353	2751.750651	None	None	0.321803619	0.524514443													113	1	19	1	2020_Feb_05_1203	Test	3.2.4	59.84182071		
Pictures/IA100_L60.bmp	Pictures/IA100_L60.bmp	Pictures/IA100.bmp	"You'd have a lot to lose"	0	safe					6	0	6	0	0	4	4	15																															2751.767363	None	2753.789363	2755.310037	2755.293337	None	2756.814006	None	2	2758.819297	None	2758.819297	None	2758.819297	None	None	None	None	None	2760.189578	None	2760.189578	None	right	2760.189578	None	None	None	2760.724318	2762.19486	1.186549919	0.496254894													113	1	19	1	2020_Feb_05_1203	Test	3.2.4	59.84182071		
Pictures/IA50_L30.bmp	Pictures/IA50_L30.bmp	Pictures/IA50.bmp	"Take a leap"	1	risk					6	0	6	0	0	5	5	5																															2762.211572	None	2764.233571	2765.754248	2765.737543	None	2767.258221	None	2	2769.263508	None	2769.263508	None	2769.263508	None	None	None	None	None	2770.867742	None	2770.867742	None	right	2770.867742	None	None	None	2771.803535	2772.873025	1.414334684	0.890092643													113	1	19	1	2020_Feb_05_1203	Test	3.2.4	59.84182071		
Pictures/IA100_G20.bmp	Pictures/IA100_G20.bmp	Pictures/IA100.bmp	"Go ahead and gamble!"""""	1	risk					6	0	6	0	0	6	6	0																															2772.889733	None	2774.911732	2776.43241	2776.415701	None	2777.919667	None	2	2779.941666	None	2779.941666	None	2779.941666	None	None	None	None	None	2780.961029	None	2780.961029	None	right	2780.961029	None	None	None	2781.629449	2782.966311	0.864169582	0.628801097													113	1	19	1	2020_Feb_05_1203	Test	3.2.4	59.84182071		
Pictures/IA20_10_L95p.bmp	Pictures/IA20_10_L95p.bmp	Pictures/IA20.bmp	"Don't be tempted to gamble."""""	0	safe					6	0	6	0	0	7	7	4																															2782.983019	None	2785.005019	2786.525696	2786.508986	None	2788.029663	None	2	2790.034953	None	2790.034953	None	2790.034953	None	None	None	None	None	2790.519566	None	2790.519566	None	right	2790.519566	None	None	None	2791.221411	2792.52485	0.314913218	0.654270227													113	1	19	1	2020_Feb_05_1203	Test	3.2.4	59.84182071		
Pictures/IA25_L20.bmp	Pictures/IA25_L20.bmp	Pictures/IA25.bmp	"Don't be tempted to gamble."""""	0	safe					6	0	6	0	0	8	8	1																															2792.541559	None	2794.56356	2796.084238	2796.067528	None	2797.58821	None	2	2799.593494	None	2799.593494	None	2799.593494	None	None	None	None	None	2800.729829	None	2800.729829	None	left	2800.729829	None	2801.314696	2802.718399	None	None	1.004356381	0.540009261													113	1	19	1	2020_Feb_05_1203	Test	3.2.4	59.84182071		
Pictures/IA100_G40.bmp	Pictures/IA100_G40.bmp	Pictures/IA100.bmp	"Try your luck and gamble!"""""	1	risk					6	0	6	0	0	9	9	8																															2802.735113	None	2804.757112	2806.277786	2806.261077	None	2807.781758	None	2	2809.787051	None	2809.787051	None	2809.787051	None	None	None	None	None	2810.85653	None	2810.85653	None	left	2810.85653	None	2811.558379	2812.861817	None	None	0.914791369	0.653313723													113	1	19	1	2020_Feb_05_1203	Test	3.2.4	59.84182071		
Pictures/IA25_G10.bmp	Pictures/IA25_G10.bmp	Pictures/IA25.bmp	"What's life without a little risk?"""""	1	risk					6	0	6	0	0	10	10	2																															2812.878525	None	2814.90053	2816.421201	2816.404497	None	2817.925172	None	1	2819.93046	None	2819.93046	None	2819.93046	None	2822.888263	None	2822.888263	2823.890901	2825.027239	None	2825.027239	None	left	2825.027239	None	2825.344751	2827.015808	None	None	2.827384797	0.282591967													113	1	19	1	2020_Feb_05_1203	Test	3.2.4	59.84182071		
Pictures/IA50_G30.bmp	Pictures/IA50_G30.bmp	Pictures/IA50.bmp	"I think you should gamble."""""	1	risk					6	0	6	0	0	11	11	18																															2827.032519	None	2829.05449	2830.575197	2830.55849	None	2832.095882	None	2	2834.084455	None	2834.084455	None	2834.084455	None	None	None	None	None	2835.204074	None	2835.204074	None	right	2835.204074	None	None	None	2835.855794	2837.192647	0.961389163	0.617763702													113	1	19	1	2020_Feb_05_1203	Test	3.2.4	59.84182071		
Pictures/IA110_55_G95p.bmp	Pictures/IA110_55_G95p.bmp	Pictures/IA110.bmp	"Take a chance!"""""	1	risk					6	0	6	0	0	12	12	19																															2837.209362	None	2839.23136	2840.752034	2840.735328	None	2842.256003	None	2	2844.261294	None	2844.261294	None	2844.261294	None	None	None	None	None	2845.130257	None	2845.130257	None	left	2845.130257	None	2845.815389	2847.118826	None	None	0.712549193	0.643578963													113	1	19	1	2020_Feb_05_1203	Test	3.2.4	59.84182071		
Pictures/IA25_L5.bmp	Pictures/IA25_L5.bmp	Pictures/IA25.bmp	"It would be smarter to choose the safe option."""""	0	safe					6	0	6	0	0	13	13	16																															2847.135508	None	2849.15754	2850.678213	2850.661509	None	2852.182182	None	2	2854.187472	None	2854.187472	None	2854.187472	None	None	None	None	None	2855.373949	None	2855.373949	None	left	2855.373949	None	2855.992228	2857.362536	None	None	1.010372493	0.583891107													113	1	19	1	2020_Feb_05_1203	Test	3.2.4	59.84182071		
Pictures/IA25_L10.bmp	Pictures/IA25_L10.bmp	Pictures/IA25.bmp	"Dont be afraid to take the risk!"""""	1	risk					6	0	6	0	0	14	14	10																															2857.379223	None	2859.401223	2860.921903	2860.905191	None	2862.425873	None	2	2864.43116	None	2864.43116	None	2864.43116	None	None	None	None	None	2866.102228	None	2866.102228	None	left	2866.102228	None	2867.18843	None	None	None	1.494681812	1.039611214													113	1	19	1	2020_Feb_05_1203	Test	3.2.4	59.84182071		
Pictures/IA100_G60.bmp	Pictures/IA100_G60.bmp	Pictures/IA100.bmp	"Be cautious"	0	safe					6	0	6	0	0	15	15	9																															2868.107513	None	2870.129513	2871.65019	2871.633482	None	2873.154158	None	2	2875.159449	None	2875.159449	None	2875.159449	None	None	None	None	None	2877.732905	None	2877.732905	None	left	2877.732905	None	2878.351206	2879.72148	None	None	2.398395712	0.576936289													113	1	19	1	2020_Feb_05_1203	Test	3.2.4	59.84182071		
Pictures/IA20_10_G95p.bmp	Pictures/IA20_10_G95p.bmp	Pictures/IA20.bmp	"Take a leap"	1	risk					6	0	6	0	0	16	16	14																															2879.738186	None	2881.760215	2883.280861	2883.264156	None	2884.768121	None	2	2886.790123	None	2886.790123	None	2886.790123	None	None	None	None	None	2887.876288	None	2887.876288	None	left	2887.876288	None	2888.628299	2889.864894	None	None	0.903727169	0.713547175													113	1	19	1	2020_Feb_05_1203	Test	3.2.4	59.84182071		
Pictures/IA75_G45.bmp	Pictures/IA75_G45.bmp	Pictures/IA75.bmp	"Don't gamble for this one."""""	0	safe					6	0	6	0	0	17	17	3																															2889.881605	None	2891.903606	2893.424281	2893.407574	None	2894.928253	None	2	2896.933539	None	2896.933539	None	2896.933539	None	None	None	None	None	2897.75237	None	2897.75237	None	left	2897.75237	None	2898.470924	2899.740938	None	None	0.624308063	0.67746547													113	1	19	1	2020_Feb_05_1203	Test	3.2.4	59.84182071		
Pictures/IA75_L60.bmp	Pictures/IA75_L60.bmp	Pictures/IA75.bmp	"Why not take the gamble?"""""	1	risk					6	0	6	0	0	18	18	17																															2899.757649	None	2901.779656	2903.300327	2903.283619	None	2904.804296	None	2	2906.809586	None	2906.809586	None	2906.809586	None	None	None	None	None	2907.528147	None	2907.528147	None	right	2907.528147	None	None	None	2908.246706	2909.516721	0.54025953	0.677689772													113	1	19	1	2020_Feb_05_1203	Test	3.2.4	59.84182071		
Pictures/IA80_40_L95p.bmp	Pictures/IA80_40_L95p.bmp	Pictures/IA80.bmp	"Let's stay with the certain option."""""	0	safe					6	0	6	0	0	19	19	12																															2909.533433	None	2911.555438	2913.076109	2913.059415	None	2914.580077	None	2	2916.585369	None	2916.585369	None	2916.585369	None	None	None	None	None	2918.423549	None	2918.423549	None	right	2918.423549	None	None	None	2919.225659	2920.428829	1.668487678	0.758293198													113	1	19	1	2020_Feb_05_1203	Test	3.2.4	59.84182071		
										6	0	6	0																																																																									2920.595943	None	return	2.577884969	2920.595943	None	113	1	19	1	2020_Feb_05_1203	Test	3.2.4	59.84182071		
Pictures/IA100_G60.bmp	Pictures/IA100_G60.bmp	Pictures/IA100.bmp	"Be cautious"	0	safe					7	0	7	0	0	0	0	8													2923.336529	None	2923.336529	None	2923.336529	None	left	1.445297849	2923.336529	None	2923.336529	None	2923.336529	None	return	3.133153465	2923.336529	None	2926.528254	None	2928.533543	2930.054218	2930.037512	None	2931.541478	None	2	2933.546767	None	2933.546767	None	2933.546767	None	None	None	None	None	2934.248581	None	2934.248581	None	right	2934.248581	None	None	None	2934.766646	2936.237194	0.531068683	0.477253371													113	1	19	1	2020_Feb_05_1203	Test	3.2.4	59.84182071		
Pictures/IA25_G15.bmp	Pictures/IA25_G15.bmp	Pictures/IA25.bmp	"I think you should take a gamble."""""	1	risk					7	0	7	0	0	1	1	2																															2936.253902	None	2938.275907	2939.79658	2939.779874	None	2941.300547	None	2	2943.305843	None	2943.305843	None	2943.305843	None	None	None	None	None	2943.773739	None	2943.773739	None	right	2943.773739	None	None	None	2944.057819	2945.762316	0.259999198	1.600098869													113	1	19	1	2020_Feb_05_1203	Test	3.2.4	59.84182071		
Pictures/IA50_G40.bmp	Pictures/IA50_G40.bmp	Pictures/IA50.bmp	"It would probably be best to play it safe."""""	0	safe					7	0	7	0	0	2	2	7																															2945.779024	None	2947.801027	2949.321703	2949.304996	None	2950.80896	None	2	2952.830961	None	2952.830961	None	2952.830961	None	None	None	None	None	2953.098331	None	2953.098331	None	right	2953.098331	None	None	None	2953.315568	2955.10362	0.094891312	1.843523503													113	1	19	1	2020_Feb_05_1203	Test	3.2.4	59.84182071		
Pictures/IA100_L20.bmp	Pictures/IA100_L20.bmp	Pictures/IA100.bmp	"Try to win as much money as you can"	1	risk					7	0	7	0	0	3	3	12																															2955.120331	None	2957.142329	2958.663011	2958.646296	None	2960.150262	None	2	2962.172263	None	2962.172263	None	2962.172263	None	None	None	None	None	2962.389503	None	2962.389503	None	right	2962.389503	None	None	None	2962.590028	2964.39479	0.02558645	1.840332065													113	1	19	1	2020_Feb_05_1203	Test	3.2.4	59.84182071		
Pictures/IA40_20_L95p.bmp	Pictures/IA40_20_L95p.bmp	Pictures/IA40.bmp	"Trust me"	1	risk					7	0	7	0	0	4	4	18																															2964.4115	None	2966.433519	2967.95418	2967.937468	None	2969.45815	None	2	2971.463438	None	2971.463438	None	2971.463438	None	None	None	None	None	2971.864491	None	2971.864491	None	right	2971.864491	None	None	None	2972.06502	2973.869778	0.246428611	1.949335762													113	1	19	1	2020_Feb_05_1203	Test	3.2.4	59.84182071		
Pictures/IA20_10_L95p.bmp	Pictures/IA20_10_L95p.bmp	Pictures/IA20.bmp	"Don't be tempted to gamble."""""	0	safe					7	0	7	0	0	5	5	19																															2973.886491	None	2975.908491	2977.429174	2977.412484	None	2978.933129	None	2	2980.93842	None	2980.93842	None	2980.93842	None	None	None	None	None	2981.389612	None	2981.389612	None	left	2981.389612	None	2981.523296	2983.394912	None	None	0.28342241	0.096221042													113	1	19	1	2020_Feb_05_1203	Test	3.2.4	59.84182071		
Pictures/IA100_G40.bmp	Pictures/IA100_G40.bmp	Pictures/IA100.bmp	"Try your luck and gamble!"""""	1	risk					7	0	7	0	0	6	6	6																															2983.411609	None	2985.433611	2986.954287	2986.937584	None	2988.441543	None	2	2990.46355	None	2990.46355	None	2990.46355	None	None	None	None	None	2991.148684	None	2991.148684	None	right	2991.148684	None	None	None	2991.248946	2993.15397	0.534283337	1.969143333													113	1	19	1	2020_Feb_05_1203	Test	3.2.4	59.84182071		
Pictures/IA50_G20.bmp	Pictures/IA50_G20.bmp	Pictures/IA50.bmp	"Let's venture and take a risk!"""""	1	risk					7	0	7	0	0	7	7	14																															2993.17068	None	2995.192681	2996.713358	2996.696647	None	2998.217327	None	2	3000.222618	None	3000.222618	None	3000.222618	None	None	None	None	None	3000.439855	None	3000.439855	None	right	3000.439855	None	None	None	3000.606961	3002.445139	0.039233204	1.04597438													113	1	19	1	2020_Feb_05_1203	Test	3.2.4	59.84182071		
Pictures/IA100_L40.bmp	Pictures/IA100_L40.bmp	Pictures/IA100.bmp	"Think of the payoff"	1	risk					7	0	7	0	0	8	8	17																															3002.461852	None	3004.483853	3006.004535	3005.987825	None	3007.508503	None	2	3009.513789	None	3009.513789	None	3009.513789	None	None	None	None	None	3009.898133	None	3009.898133	None	right	3009.898133	None	None	None	3010.031816	3011.90342	0.228069252	1.683694145													113	1	19	1	2020_Feb_05_1203	Test	3.2.4	59.84182071		
Pictures/IA110_55_G95p.bmp	Pictures/IA110_55_G95p.bmp	Pictures/IA110.bmp	"Take a chance!"""""	1	risk					7	0	7	0	0	9	9	1																															3011.920142	None	3013.942135	3015.462816	3015.446142	None	3016.966777	None	2	3018.972067	None	3018.972067	None	3018.972067	None	None	None	None	None	3019.456678	None	3019.456678	None	right	3019.456678	None	3019.724048	3021.027488	3021.027488	None	0.265774735	1.869150937													113	1	19	1	2020_Feb_05_1203	Test	3.2.4	59.84182071		
Pictures/IA25_G5.bmp	Pictures/IA25_G5.bmp	Pictures/IA25.bmp	"Let's stay with the certain option."""""	0	safe					7	0	7	0	0	10	10	4																															3021.478673	None	3023.500678	3025.021353	3025.004641	None	3026.542031	None	2	3028.530608	None	3028.530608	None	3028.530608	None	None	None	None	None	3028.948376	None	3028.948376	None	left	3028.948376	None	3029.082059	3030.953666	None	None	0.243235829	0.089460038													113	1	19	1	2020_Feb_05_1203	Test	3.2.4	59.84182071		
Pictures/IA50_L20.bmp	Pictures/IA50_L20.bmp	Pictures/IA50.bmp	"Certainty is boring"	1	risk					7	0	7	0	0	11	11	13																															3030.970375	None	3032.992374	3034.513049	3034.496343	None	3036.033731	None	2	3038.022317	None	3038.022317	None	3038.022317	None	None	None	None	None	3038.490211	None	3038.490211	None	right	3038.490211	None	None	None	3038.657316	3040.495495	0.295517857	0.427615005													113	1	19	1	2020_Feb_05_1203	Test	3.2.4	59.84182071		
Pictures/IA50_G10.bmp	Pictures/IA50_G10.bmp	Pictures/IA50.bmp	"Go with the safe option here!"""""	0	safe					7	0	7	0	0	12	12	11																															3040.512209	None	3042.534208	3044.054892	3044.038179	None	3045.558847	None	2	3047.564138	None	3047.564138	None	3047.564138	None	None	None	None	None	3047.915069	None	3047.915069	None	left	3047.915069	None	3047.981908	3049.920353	None	None	0.177703999	1.682765779													113	1	19	1	2020_Feb_05_1203	Test	3.2.4	59.84182071		
Pictures/IA25_L15.bmp	Pictures/IA25_L15.bmp	Pictures/IA25.bmp	"There's not much on the line here"	1	risk					7	0	7	0	0	13	13	0																															3049.937064	None	3051.959071	3053.47974	3053.463043	None	3054.983712	None	2	3056.989002	None	3056.989002	None	3056.989002	None	None	None	None	None	3057.189528	None	3057.189528	None	left	3057.189528	None	3057.624003	3059.194816	None	None	0.016826063	1.12829902													113	1	19	1	2020_Feb_05_1203	Test	3.2.4	59.84182071		
Pictures/IA100_G80.bmp	Pictures/IA100_G80.bmp	Pictures/IA100.bmp	"Why not gamble?"""""	1	risk					7	0	7	0	0	14	14	15																															3059.211525	None	3061.233529	3062.7542	3062.737493	None	3064.258149	None	2	3066.26346	None	3066.26346	None	3066.26346	None	None	None	None	None	3066.463988	None	3066.463988	None	left	3066.463988	None	3066.647805	3068.452563	None	None	0.022391723	0.597848807													113	1	19	1	2020_Feb_05_1203	Test	3.2.4	59.84182071		
Pictures/IA75_G30.bmp	Pictures/IA75_G30.bmp	Pictures/IA75.bmp	"Be bold"	1	risk					7	0	7	0	0	15	15	3																															3068.469289	None	3070.491274	3071.99524	3071.97853	None	3073.515918	None	2	3075.521213	None	3075.521213	None	3075.521213	None	None	None	None	None	3075.721761	None	3075.721761	None	left	3075.721761	None	3076.005826	3077.710345	None	None	0.004642472	0.652083875													113	1	19	1	2020_Feb_05_1203	Test	3.2.4	59.84182071		
Pictures/IA75_L15.bmp	Pictures/IA75_L15.bmp	Pictures/IA75.bmp	"Trust me–gamble!"""""	1	risk					7	0	7	0	0	16	16	10																															3077.727096	None	3079.749053	3081.269707	3081.253021	None	3082.773713	None	2	3084.778965	None	3084.778965	None	3084.778965	None	None	None	None	None	3085.296991	None	3085.296991	None	right	3085.296991	None	None	None	3085.363833	3087.302323	0.338881756	0.028855066													113	1	19	1	2020_Feb_05_1203	Test	3.2.4	59.84182071		
Pictures/IA75_L45.bmp	Pictures/IA75_L45.bmp	Pictures/IA75.bmp	"Don't gamble for this one"	0	safe					7	0	7	0	0	17	17	9																															3087.319035	None	3089.340999	3090.861665	3090.844957	None	3092.382348	None	2	3094.370925	None	3094.370925	None	3094.370925	None	None	None	None	None	3096.008579	None	3096.008579	None	right	3096.008579	None	None	None	3096.309373	3098.013862	1.450910498	0.725243689													113	1	19	1	2020_Feb_05_1203	Test	3.2.4	59.84182071		
Pictures/IA40_20_G95p.bmp	Pictures/IA40_20_G95p.bmp	Pictures/IA40.bmp	"Hold back"	0	safe					7	0	7	0	0	18	18	16																															3098.030573	None	3100.052573	3101.573258	3101.556545	None	3103.09393	None	2	3105.082517	None	3105.082517	None	3105.082517	None	None	None	None	None	3105.433436	None	3105.433436	None	left	3105.433436	None	3105.567118	3107.438724	None	None	0.179322404	1.956395254													113	1	19	1	2020_Feb_05_1203	Test	3.2.4	59.84182071		
Pictures/IA100_L80.bmp	Pictures/IA100_L80.bmp	Pictures/IA100.bmp	"Go all in!"""""	1	risk					7	0	7	0	0	19	19	5																															3107.455431	None	3109.477434	3110.998111	3110.981404	None	3112.518787	None	2	3114.507371	None	3114.507371	None	3114.507371	None	None	None	None	None	3114.79145	None	3114.79145	None	left	3114.79145	None	3115.844223	None	3115.008685	3116.044755	0.122477312	1.718375513													113	1	19	1	2020_Feb_05_1203	Test	3.2.4	59.84182071		
										7	0	7	0																																																																									3116.963845	None	return	4.529988447	3116.963845	None	113	1	19	1	2020_Feb_05_1203	Test	3.2.4	59.84182071		
Pictures/IA20_10_G95p.bmp	Pictures/IA20_10_G95p.bmp	Pictures/IA20.bmp	"Take a leap"	1	risk					8	0	8	0	0	0	0	6													3121.659566	None	3121.659566	None	3121.659566	None	left	1.154262063	3121.659566	None	3121.659566	None	3121.659566	None	return	2.282050734	3121.659566	None	3123.999065	None	3126.004356	3127.525035	3127.50832	None	3129.029002	None	2	3131.017583	None	3131.017583	None	3131.017583	None	None	None	None	None	3131.351802	None	3131.351802	None	left	3131.351802	None	3131.552325	3133.357096	None	None	0.148256837	1.934020273													113	1	19	1	2020_Feb_05_1203	Test	3.2.4	59.84182071		
Pictures/IA25_L15.bmp	Pictures/IA25_L15.bmp	Pictures/IA25.bmp	"There's not much on the line here"	1	risk					8	0	8	0	0	1	1	12																															3133.373794	None	3135.395794	3136.916474	3136.899764	None	3138.403727	None	2	3140.425733	None	3140.425733	None	3140.425733	None	None	None	None	None	3140.726526	None	3140.726526	None	left	3140.726526	None	3141.344827	3142.715095	None	None	0.132107908	0.575309883													113	1	19	1	2020_Feb_05_1203	Test	3.2.4	59.84182071		
Pictures/IA50_L10.bmp	Pictures/IA50_L10.bmp	Pictures/IA50.bmp	"Play it safe"	0	safe					8	0	8	0	0	2	2	7																															3142.731807	None	3144.75381	3146.274484	3146.257778	None	3147.778454	None	2	3149.78375	None	3149.78375	None	3149.78375	None	None	None	None	None	3151.053764	None	3151.053764	None	right	3151.053764	None	None	None	3151.939427	3153.042334	1.102092295	0.840073417													113	1	19	1	2020_Feb_05_1203	Test	3.2.4	59.84182071		
Pictures/IA25_L10.bmp	Pictures/IA25_L10.bmp	Pictures/IA25.bmp	"Dont be afraid to take the risk!"""""	1	risk					8	0	8	0	0	3	3	2																															3153.059046	None	3155.081048	3156.601722	3156.585016	None	3158.088984	None	2	3160.110985	None	3160.110985	None	3160.110985	None	None	None	None	None	3161.013364	None	3161.013364	None	right	3161.013364	None	None	None	3161.330866	3163.001936	0.734857228	0.280463382													113	1	19	1	2020_Feb_05_1203	Test	3.2.4	59.84182071		
Pictures/IA50_G40.bmp	Pictures/IA50_G40.bmp	Pictures/IA50.bmp	"It would probably be best to play it safe."""""	0	safe					8	0	8	0	0	4	4	17																															3163.018647	None	3165.040652	3166.561328	3166.544618	None	3168.082006	None	1	3170.070587	None	3170.070587	None	3170.070587	None	3170.822571	None	3170.822571	3171.825209	3172.928125	None	3172.928125	None	left	3172.928125	None	3172.994964	3174.933408	None	None	0.599247534	0.229694912													113	1	19	1	2020_Feb_05_1203	Test	3.2.4	59.84182071		
Pictures/IA40_20_G95p.bmp	Pictures/IA40_20_G95p.bmp	Pictures/IA40.bmp	"Hold back"	0	safe					8	0	8	0	0	5	5	5																															3174.950122	None	3176.972121	3178.492797	3178.476089	None	3179.980056	None	2	3182.002059	None	3182.002059	None	3182.002059	None	None	None	None	None	3182.837595	None	3182.837595	None	left	3182.837595	None	3183.405757	3184.842878	None	None	0.667774579	0.528236863													113	1	19	1	2020_Feb_05_1203	Test	3.2.4	59.84182071		
Pictures/IA100_G20.bmp	Pictures/IA100_G20.bmp	Pictures/IA100.bmp	"Go ahead and gamble!"""""	1	risk					8	0	8	0	0	6	6	19																															3184.859598	None	3186.881591	3188.402268	3188.385565	None	3189.906238	None	2	3191.911528	None	3191.911528	None	3191.911528	None	None	None	None	None	3192.63009	None	3192.63009	None	right	3192.63009	None	None	None	3193.248384	3194.618664	0.55831818	0.58373753													113	1	19	1	2020_Feb_05_1203	Test	3.2.4	59.84182071		
Pictures/IA75_G15.bmp	Pictures/IA75_G15.bmp	Pictures/IA75.bmp	"Take a chance!"""""	1	risk					8	0	8	0	0	7	7	8																															3194.635378	None	3196.657378	3198.178052	3198.161345	None	3199.698733	None	None	3201.687321	None	3201.687321	None	3201.687321	None	None	None	None	None	3204.812219	None	3204.812219	None	right	3204.812219	None	None	None	3206.149077	None		1.297608729													113	1	19	1	2020_Feb_05_1203	Test	3.2.4	59.84182071		
Pictures/IA50_L40.bmp	Pictures/IA50_L40.bmp	Pictures/IA50.bmp	"That gamble doesn't sound too good"	0	safe					8	0	8	0	0	8	8	14																															3206.834218	None	3208.856225	3210.376895	3210.36019	None	3211.880865	None	2	3213.886157	None	3213.886157	None	3213.886157	None	None	None	None	None	3214.638106	None	3214.638106	None	right	3214.638106	None	None	None	3215.273146	3216.643424	0.551689325	0.599728199													113	1	19	1	2020_Feb_05_1203	Test	3.2.4	59.84182071		
Pictures/IA50_G30.bmp	Pictures/IA50_G30.bmp	Pictures/IA50.bmp	"I think you should gamble."""""	1	risk					8	0	8	0	0	9	9	10																															3216.660136	None	3218.682137	3220.202814	3220.186107	None	3221.723497	None	2	3223.712074	None	3223.712074	None	3223.712074	None	None	None	None	None	3224.614454	None	3224.614454	None	left	3224.614454	None	3224.865111	3226.603027	None	None	0.725773735	0.215372401													113	1	19	1	2020_Feb_05_1203	Test	3.2.4	59.84182071		
Pictures/IA110_55_G95p.bmp	Pictures/IA110_55_G95p.bmp	Pictures/IA110.bmp	"Take a chance!"""""	1	risk					8	0	8	0	0	10	10	9																															3226.619744	None	3228.641741	3230.162423	3230.145711	None	3231.683101	None	2	3233.671685	None	3233.671685	None	3233.671685	None	None	None	None	None	3234.67434	None	3234.67434	None	left	3234.67434	None	3234.874854	3236.679613	None	None	0.838160569	0.163489975													113	1	19	1	2020_Feb_05_1203	Test	3.2.4	59.84182071		
Pictures/IA75_L30.bmp	Pictures/IA75_L30.bmp	Pictures/IA75.bmp	"Hold back"	0	safe					8	0	8	0	0	11	11	4																															3236.696317	None	3238.71832	3240.238997	3240.22229	None	3241.759677	None	2	3243.748255	None	3243.748255	None	3243.748255	None	None	None	None	None	3243.965496	None	3243.965496	None	right	3243.965496	None	None	None	3245.168665	None	0.041603714	1.160343944													113	1	19	1	2020_Feb_05_1203	Test	3.2.4	59.84182071		
Pictures/IA75_L60.bmp	Pictures/IA75_L60.bmp	Pictures/IA75.bmp	"Why not take the gamble?"""""	1	risk					8	0	8	0	0	12	12	1																															3245.987493	None	3248.009494	3249.53017	3249.513464	None	3251.050857	None	2	3253.12295	None	3253.12295	None	3253.12295	None	None	None	None	None	3253.925105	None	3253.925105	None	right	3253.925105	None	None	None	3255.111562	None	0.626893334	1.136723315													113	1	19	1	2020_Feb_05_1203	Test	3.2.4	59.84182071		
Pictures/IA75_G60.bmp	Pictures/IA75_G60.bmp	Pictures/IA75.bmp	"Make it exciting"	1	risk					8	0	8	0	0	13	13	0																															3255.930385	None	3257.952387	3259.473063	3259.456358	None	3260.977035	None	1	3262.982326	None	3262.982326	None	3262.982326	None	3263.517069	None	3263.517069	3264.519708	3265.622623	None	3265.622623	None	left	3265.622623	None	3265.940122	3267.611196	None	None	0.415516571	0.487225378													113	1	19	1	2020_Feb_05_1203	Test	3.2.4	59.84182071		
Pictures/IA25_L5.bmp	Pictures/IA25_L5.bmp	Pictures/IA25.bmp	"It would be smarter to choose the safe option."""""	0	safe					8	0	8	0	0	14	14	3																															3267.627911	None	3269.64991	3271.170585	3271.153879	None	3272.691267	None	2	3274.679845	None	3274.679845	None	3274.679845	None	None	None	None	None	3275.298144	None	3275.298144	None	left	3275.298144	None	3277.036062	None	None	None	0.429998995	1.699689968													113	1	19	1	2020_Feb_05_1203	Test	3.2.4	59.84182071		
Pictures/IA100_G60.bmp	Pictures/IA100_G60.bmp	Pictures/IA100.bmp	"Be cautious"	0	safe					8	0	8	0	0	15	15	18																															3277.320139	None	3279.34215	3280.846109	3280.829404	None	3282.366793	None	2	3284.37208	None	3284.37208	None	3284.37208	None	None	None	None	None	3287.012379	None	3287.012379	None	left	3287.012379	None	3287.597255	3289.00095	None	None	2.457750844	0.545457851													113	1	19	1	2020_Feb_05_1203	Test	3.2.4	59.84182071		
Pictures/IA50_L30.bmp	Pictures/IA50_L30.bmp	Pictures/IA50.bmp	"Take a leap"	1	risk					8	0	8	0	0	16	16	16																															3289.01766	None	3291.039662	3292.56034	3292.543636	None	3294.081021	None	2	3296.069605	None	3296.069605	None	3296.069605	None	None	None	None	None	3296.387104	None	3296.387104	None	right	3296.387104	None	None	None	3297.573568	None	0.120242219	1.138732423													113	1	19	1	2020_Feb_05_1203	Test	3.2.4	59.84182071		
Pictures/IA50_G20.bmp	Pictures/IA50_G20.bmp	Pictures/IA50.bmp	"Let's venture and take a risk!"""""	1	risk					8	0	8	0	0	17	17	15																															3298.39239	None	3300.414392	3301.93507	3301.918362	None	3303.439035	None	2	3305.44433	None	3305.44433	None	3305.44433	None	None	None	None	None	3305.778545	None	3305.778545	None	right	3305.778545	None	None	None	3305.912225	3307.78383	0.145515255	0.099290088													113	1	19	1	2020_Feb_05_1203	Test	3.2.4	59.84182071		
Pictures/IA75_G30.bmp	Pictures/IA75_G30.bmp	Pictures/IA75.bmp	"Be bold"	1	risk					8	0	8	0	0	18	18	13																															3307.80054	None	3309.822542	3311.343232	3311.326511	None	3312.830478	None	2	3314.852478	None	3314.852478	None	3314.852478	None	None	None	None	None	3315.036295	None	3315.036295	None	left	3315.036295	None	3316.122491	None	None	None	0.025365724	1.37754003													113	1	19	1	2020_Feb_05_1203	Test	3.2.4	59.84182071		
Pictures/IA80_40_L95p.bmp	Pictures/IA80_40_L95p.bmp	Pictures/IA80.bmp	"Let's stay with the certain option."""""	0	safe					8	0	8	0	0	19	19	11																															3317.041581	None	3319.063585	3320.584264	3320.567562	None	3322.104947	None	2	3324.093522	None	3324.093522	None	3324.093522	None	None	None	None	None	3324.411028	None	3324.411028	None	right	3324.411028	None	None	None	3324.49458	3326.416316	0.136327946	1.714809163													113	1	19	1	2020_Feb_05_1203	Test	3.2.4	59.84182071		
										8	0	8	0																																																																									3326.583425	None	return	2.686399359	3326.583425	None	113	1	19	1	2020_Feb_05_1203	Test	3.2.4	59.84182071		
Pictures/IA20_10_L95p.bmp	Pictures/IA20_10_L95p.bmp	Pictures/IA20.bmp	"Don't be tempted to gamble."""""	0	safe					9	0	9	0	0	0	0	19													3329.424254	None	3329.424254	None	3329.424254	None	left	2.629584906	3329.424254	None	3329.424254	None	3329.424254	None	return	3.677362109	3329.424254	None	3333.167456	None	3335.172744	3336.693419	3336.676719	None	3338.19739	None	2	3340.185972	None	3340.185972	None	3340.185972	None	None	None	None	None	3340.486768	None	3340.486768	None	left	3340.486768	None	3340.603737	3342.47534	None	None	0.131863887	1.935069285													113	1	19	1	2020_Feb_05_1203	Test	3.2.4	59.84182071		
Pictures/IA75_G45.bmp	Pictures/IA75_G45.bmp	Pictures/IA75.bmp	"Don't gamble for this one."""""	0	safe					9	0	9	0	0	1	1	9																															3342.492054	None	3344.514053	3346.034727	3346.018022	None	3347.53866	None	2	3349.543985	None	3349.543985	None	3349.543985	None	None	None	None	None	3349.794654	None	3349.794654	None	left	3349.794654	None	3350.14557	3351.783224	None	None	0.077838711	1.947175562													113	1	19	1	2020_Feb_05_1203	Test	3.2.4	59.84182071		
Pictures/IA80_40_L95p.bmp	Pictures/IA80_40_L95p.bmp	Pictures/IA80.bmp	"Let's stay with the certain option."""""	0	safe					9	0	9	0	0	2	2	1																															3351.799935	None	3353.821937	3355.342644	3355.325906	None	3356.829873	None	2	3358.851872	None	3358.851872	None	3358.851872	None	None	None	None	None	3359.470173	None	3359.470173	None	right	3359.470173	None	None	None	3359.553721	3361.458744	0.441972726	1.567660519													113	1	19	1	2020_Feb_05_1203	Test	3.2.4	59.84182071		
Pictures/IA80_40_G95p.bmp	Pictures/IA80_40_G95p.bmp	Pictures/IA80.bmp	"Think of the payoff"	1	risk					9	0	9	0	0	3	3	4																															3361.475453	None	3363.514171	3365.018138	3365.001433	None	3366.538819	None	2	3368.527395	None	3368.527395	None	3368.527395	None	None	None	None	None	3368.82819	None	3368.82819	None	right	3368.82819	None	None	None	3368.89503	3370.833474	0.118453357	1.673647603													113	1	19	1	2020_Feb_05_1203	Test	3.2.4	59.84182071		
Pictures/IA25_L10.bmp	Pictures/IA25_L10.bmp	Pictures/IA25.bmp	"Dont be afraid to take the risk!"""""	1	risk					9	0	9	0	0	4	4	17																															3370.850184	None	3372.872188	3374.392864	3374.376157	None	3375.913548	None	2	3377.902134	None	3377.902134	None	3377.902134	None	None	None	None	None	3378.136075	None	3378.136075	None	right	3378.136075	None	None	None	3378.336617	3380.14136	0.015725933	1.629761004													113	1	19	1	2020_Feb_05_1203	Test	3.2.4	59.84182071		
Pictures/IA75_L60.bmp	Pictures/IA75_L60.bmp	Pictures/IA75.bmp	"Why not take the gamble?"""""	1	risk					9	0	9	0	0	5	5	18																															3380.158078	None	3382.180075	3383.700754	3383.68404	None	3385.188009	None	1	3387.21001	None	3387.21001	None	3387.21001	None	3387.861732	None	3387.861732	3388.864369	3389.967287	None	3389.967287	None	right	3389.967287	None	3390.351638	3391.454536	3391.454536	None	0.53182339	1.838539453													113	1	19	1	2020_Feb_05_1203	Test	3.2.4	59.84182071		
Pictures/IA100_L40.bmp	Pictures/IA100_L40.bmp	Pictures/IA100.bmp	"Think of the payoff"	1	risk					9	0	9	0	0	6	6	10																															3391.972575	None	3393.994571	3395.515251	3395.49854	None	3397.019215	None	1	3399.024508	None	3399.024508	None	3399.024508	None	3399.158193	None	3399.158193	3400.160832	3401.263746	None	3401.263746	None	right	3401.263746	None	None	None	3402.06586	3403.269033	0.013343476	0.758084167													113	1	19	1	2020_Feb_05_1203	Test	3.2.4	59.84182071		
Pictures/IA100_G20.bmp	Pictures/IA100_G20.bmp	Pictures/IA100.bmp	"Go ahead and gamble!"""""	1	risk					9	0	9	0	0	7	7	5																															3403.285743	None	3405.307745	3406.828429	3406.811716	None	3408.315684	None	2	3410.337694	None	3410.337694	None	3410.337694	None	None	None	None	None	3410.805587	None	3410.805587	None	right	3410.805587	None	None	None	3410.972687	3412.810868	0.2761424	0.128255689													113	1	19	1	2020_Feb_05_1203	Test	3.2.4	59.84182071		
Pictures/IA75_L45.bmp	Pictures/IA75_L45.bmp	Pictures/IA75.bmp	"Don't gamble for this one"	0	safe					9	0	9	0	0	8	8	0																															3412.827581	None	3414.849583	3416.370263	3416.353561	None	3417.874231	None	2	3419.879517	None	3419.879517	None	3419.879517	None	None	None	None	None	3420.263863	None	3420.263863	None	right	3420.263863	None	None	None	3420.464392	3422.269152	0.214326927	1.773976683													113	1	19	1	2020_Feb_05_1203	Test	3.2.4	59.84182071		
Pictures/IA100_L20.bmp	Pictures/IA100_L20.bmp	Pictures/IA100.bmp	"