Choice	Choice2	Amount	AdviceVar1	GambleAdviceNum	GambleAdviceType	practice.thisRepN	practice.thisTrialN	practice.thisN	practice.thisIndex	trials_2.thisRepN	trials_2.thisTrialN	trials_2.thisN	trials_2.thisIndex	trials.thisRepN	trials.thisTrialN	trials.thisN	trials.thisIndex	text.started	text.stopped	key_resp_4.keys	key_resp_4.rt	key_resp_4.started	key_resp_4.stopped	instructions.started	instructions.stopped	space.keys	space.rt	space.started	space.stopped	chooseInst.started	chooseInst.stopped	Ad1.started	Ad1.stopped	Ad2.started	Ad2.stopped	key_resp_3.keys	key_resp_3.rt	key_resp_3.started	key_resp_3.stopped	Ad1pic.started	Ad1pic.stopped	Ad2pic.started	Ad2pic.stopped	enter.keys	enter.rt	enter.started	enter.stopped	iSi.started	iSi.stopped	receiveMoneyPicture.started	receiveMoneyPicture.stopped	ISI2.started	ISI2.stopped	ChoicePic.started	ChoicePic.stopped	response.keys	response.started	response.stopped	yesNo.started	yesNo.stopped	ask.started	ask.stopped	getAdv.started	getAdv.stopped	textForCode.started	textForCode.stopped	blank.started	blank.stopped	ChoicePic2.started	ChoicePic2.stopped	resp.keys	resp.started	resp.stopped	checkL1.started	checkL1.stopped	checkR1.started	checkR1.stopped	response.rt	resp.rt	EndPrac.started	EndPrac.stopped	key_resp.keys	key_resp.rt	key_resp.started	key_resp.stopped	endText.started	endText.stopped	key_resp_2.keys	key_resp_2.rt	key_resp_2.started	key_resp_2.stopped	participant	session	age	gender (0=male	 1 = female	 2 = other)	date	expName	psychopyVersion	frameRate
																		224.7787879	None	space	617.6363593	224.7787879	None																																																																					114	1	18	0	2020_Feb_05_1300	Test	3.2.4	59.83743676		
																								842.4400527	None	space	3.847116296	842.4400527	None																																																															114	1	18	0	2020_Feb_05_1300	Test	3.2.4	59.83743676		
																														846.9018225	None	846.9018225	None	846.9018225	None	left	6.753323905	846.9018225	None																																																					114	1	18	0	2020_Feb_05_1300	Test	3.2.4	59.83743676		
																																								846.9018225	None	846.9018225	None	return	10.66518381	846.9018225	None																																													114	1	18	0	2020_Feb_05_1300	Test	3.2.4	59.83743676		
Pictures/IA100_G20.bmp	Pictures/IA100_G20.bmp	Pictures/IA100.bmp	"Go ahead and gamble!"""""	1	risk	0	0	0	4																																							857.6301227	None	859.652127	861.1728017	861.1561045	None	862.6934879	None	None	864.7489079	None	864.7489079	None	864.7489079	None	None	None	None	None	867.8069873	None	867.8069873	None	None	867.8069873	None	None	None	None	None															114	1	18	0	2020_Feb_05_1300	Test	3.2.4	59.83743676		
Pictures/IA50_G10.bmp	Pictures/IA50_G10.bmp	Pictures/IA50.bmp	"Go with the safe option here!"""""	0	safe	0	1	1	0																																							869.8122714	None	871.8676985	873.3716527	873.3549567	None	874.9257677	None	1	876.8642156	None	876.8642156	None	876.8642156	None	878.8360915	None	878.8360915	879.8387274	880.9583617	None	880.9583617	None	left	880.9583617	None	882.3620418	None	None	None	1.838952984	1.360781885													114	1	18	0	2020_Feb_05_1300	Test	3.2.4	59.83743676		
Pictures/IA50_G20.bmp	Pictures/IA50_G20.bmp	Pictures/IA50.bmp	"Let's venture and take a risk!"""""	1	risk	0	2	2	1																																							882.9803512	None	885.0023566	886.5230311	886.5063159	None	888.0604225	None	1	890.0322977	None	890.0322977	None	890.0322977	None	891.0015231	None	891.0015231	892.0041566	893.1237883	None	893.1237883	None	right	893.1237883	None	None	None	893.8757655	895.1290591	0.838864339	0.715356607													114	1	18	0	2020_Feb_05_1300	Test	3.2.4	59.83743676		
Pictures/IA50_G30.bmp	Pictures/IA50_G30.bmp	Pictures/IA50.bmp	"I think you should gamble."""""	1	risk	0	3	3	2																																							895.1457804	None	897.1677844	898.6884621	898.6717441	None	900.2425632	None	1	902.197714	None	902.197714	None	902.197714	None	904.370112	None	904.370112	905.3727545	906.5090945	None	906.5090945	None	right	906.5090945	None	None	None	907.2777922	908.5143766	2.049439651	0.722055409													114	1	18	0	2020_Feb_05_1300	Test	3.2.4	59.83743676		
Pictures/IA100_G40.bmp	Pictures/IA100_G40.bmp	Pictures/IA100.bmp	"Try your luck and gamble!"""""	1	risk	0	4	4	5																																							908.5310968	None	910.5531024	912.0737786	912.0570628	None	913.6111734	None	1	915.5830415	None	915.5830415	None	915.5830415	None	916.6024048	None	916.6024048	917.6050395	918.7079538	None	918.7079538	None	left	918.7079538	None	919.593622	920.6965197	None	None	0.904117075	0.851192397													114	1	18	0	2020_Feb_05_1300	Test	3.2.4	59.83743676		
Pictures/IA50_G40.bmp	Pictures/IA50_G40.bmp	Pictures/IA50.bmp	"It would probably be best to play it safe."""""	0	safe	0	5	5	3																																							920.7132396	None	922.7352632	924.2559232	924.2392054	None	925.7933183	None	1	927.7651901	None	927.7651901	None	927.7651901	None	928.5338688	None	928.5338688	929.53651	930.6394278	None	930.6394278	None	left	930.6394278	None	931.1407557	932.6447128	None	None	0.625971133	0.455734489													114	1	18	0	2020_Feb_05_1300	Test	3.2.4	59.83743676		
																																																																																932.6614349	None	space	9.577719442	932.6614349	None							114	1	18	0	2020_Feb_05_1300	Test	3.2.4	59.83743676		
Pictures/IA75_L60.bmp	Pictures/IA75_L60.bmp	Pictures/IA75.bmp	"Why not take the gamble?"""""	1	risk					0	0	0	0	0	0	0	18													942.4037998	None	942.4037998	None	942.4037998	None	left	7.211351698	942.4037998	None	942.4037998	None	942.4037998	None	return	10.08314718	942.4037998	None	952.5472376	None	954.5692333	956.0732089	956.0564901	None	957.6273316	None	1	959.5657505	None	959.5657505	None	959.5657505	None	961.8217051	None	961.8217051	962.8243465	963.9272615	None	963.9272615	None	None	963.9272615	None	None	None	None	None	2.153403383														114	1	18	0	2020_Feb_05_1300	Test	3.2.4	59.83743676		
Pictures/IA100_L80.bmp	Pictures/IA100_L80.bmp	Pictures/IA100.bmp	"Go all in!"""""	1	risk					0	0	0	0	0	1	1	6																															965.9325516	None	967.9545642	969.4752295	969.4585343	None	971.0126207	None	1	972.9844913	None	972.9844913	None	972.9844913	None	973.8033169	None	973.8033169	974.8059604	975.9088779	None	975.9088779	None	right	975.9088779	None	None	None	976.2765208	977.9141637	0.742671454	0.33026375													114	1	18	0	2020_Feb_05_1300	Test	3.2.4	59.83743676		
Pictures/IA50_G30.bmp	Pictures/IA50_G30.bmp	Pictures/IA50.bmp	"I think you should gamble."""""	1	risk					0	0	0	0	0	2	2	16																															977.9308839	None	979.9529066	981.473568	981.4568497	None	982.96084	None	1	984.9828205	None	984.9828205	None	984.9828205	None	985.9019142	None	985.9019142	986.904552	988.0074673	None	988.0074673	None	left	988.0074673	None	988.4586546	989.9960458	None	None	0.816336812	0.415680779													114	1	18	0	2020_Feb_05_1300	Test	3.2.4	59.83743676		
Pictures/IA75_G45.bmp	Pictures/IA75_G45.bmp	Pictures/IA75.bmp	"Don't gamble for this one."""""	0	safe					0	0	0	0	0	3	3	15																															990.0127649	None	992.0347684	993.5554517	993.5387294	None	995.0928566	None	2	997.0647185	None	997.0647185	None	997.0647185	None	None	None	None	None	997.7164221	None	997.7164221	None	right	997.7164221	None	None	None	998.5352448	999.7050083	0.494441366	0.770734702													114	1	18	0	2020_Feb_05_1300	Test	3.2.4	59.83743676		
Pictures/IA80_40_G95p.bmp	Pictures/IA80_40_G95p.bmp	Pictures/IA80.bmp	"Think of the payoff"	1	risk					0	0	0	0	0	4	4	8																															999.7217115	None	1001.777138	1003.281113	1003.264395	None	1004.801785	None	1	1006.773656	None	1006.773656	None	1006.773656	None	1007.859859	None	1007.859859	1008.862495	1009.965421	None	1009.965421	None	right	1009.965421	None	None	None	1010.483441	1011.954004	0.969502397	0.481717677													114	1	18	0	2020_Feb_05_1300	Test	3.2.4	59.83743676		
Pictures/IA50_L30.bmp	Pictures/IA50_L30.bmp	Pictures/IA50.bmp	"Take a leap"	1	risk					0	0	0	0	0	5	5	0																															1011.970709	None	1013.992714	1015.513397	1015.496674	None	1017.050789	None	1	1019.022658	None	1019.022658	None	1019.022658	None	1020.593463	None	1020.593463	1021.596101	1022.699016	None	1022.699016	None	right	1022.699016	None	None	None	1023.367455	1024.704311	1.432496296	0.628132419													114	1	18	0	2020_Feb_05_1300	Test	3.2.4	59.83743676		
Pictures/IA40_20_G95p.bmp	Pictures/IA40_20_G95p.bmp	Pictures/IA40.bmp	"Hold back"	0	safe					0	0	0	0	0	6	6	3																															1024.721024	None	1026.759741	1028.280442	1028.263714	None	1029.767666	None	1	1031.772988	None	1031.772988	None	1031.772988	None	1032.64195	None	1032.64195	1033.644571	1034.764215	None	1034.764215	None	None	1034.764215	None	None	None	None	None	0.730159737														114	1	18	0	2020_Feb_05_1300	Test	3.2.4	59.83743676		
Pictures/IA100_G40.bmp	Pictures/IA100_G40.bmp	Pictures/IA100.bmp	"Try your luck and gamble!"""""	1	risk					0	0	0	0	0	7	7	14																															1036.769474	None	1038.791483	1040.312159	1040.29546	None	1041.816129	None	1	1043.821424	None	1043.821424	None	1043.821424	None	1046.094086	None	1046.094086	1047.096729	1048.199645	None	1048.199645	None	right	1048.199645	None	None	None	1048.63413	1050.204932	2.153747382	0.399515577													114	1	18	0	2020_Feb_05_1300	Test	3.2.4	59.83743676		
Pictures/IA25_L10.bmp	Pictures/IA25_L10.bmp	Pictures/IA25.bmp	"Dont be afraid to take the risk!"""""	1	risk					0	0	0	0	0	8	8	12																															1050.221653	None	1052.277079	1053.781035	1053.76434	None	1055.301728	None	1	1057.273601	None	1057.273601	None	1057.273601	None	1058.443344	None	1058.443344	1059.445985	1060.565613	None	1060.565613	None	right	1060.565613	None	None	None	1061.083643	1062.554188	1.053565307	0.481535188													114	1	18	0	2020_Feb_05_1300	Test	3.2.4	59.83743676		
Pictures/IA20_10_L95p.bmp	Pictures/IA20_10_L95p.bmp	Pictures/IA20.bmp	"Don't be tempted to gamble."""""	0	safe					0	0	0	0	0	9	9	2																															1062.570909	None	1064.609627	1066.130305	1066.113589	None	1067.667688	None	2	1069.622858	None	1069.622858	None	1069.622858	None	None	None	None	None	1070.725768	None	1070.725768	None	right	1070.725768	None	None	None	1072.664206	None	0.952302688	1.897385333													114	1	18	0	2020_Feb_05_1300	Test	3.2.4	59.83743676		
Pictures/IA50_L10.bmp	Pictures/IA50_L10.bmp	Pictures/IA50.bmp	"Play it safe"	0	safe					0	0	0	0	0	10	10	9																															1072.747776	None	1074.769774	1076.290456	1076.273735	None	1077.827843	None	2	1079.799718	None	1079.799718	None	1079.799718	None	None	None	None	None	1081.270269	None	1081.270269	None	right	1081.270269	None	None	None	1081.470781	1083.275543	1.271458749	0.160874848													114	1	18	0	2020_Feb_05_1300	Test	3.2.4	59.83743676		
Pictures/IA80_40_L95p.bmp	Pictures/IA80_40_L95p.bmp	Pictures/IA80.bmp	"Let's stay with the certain option."""""	0	safe					0	0	0	0	0	11	11	1																															1083.292265	None	1085.31427	1086.834947	1086.81823	None	1088.389052	None	1	1090.344203	None	1090.344203	None	1090.344203	None	1091.33015	None	1091.33015	1092.332754	1093.435706	None	1093.435706	None	right	1093.435706	None	None	None	1093.953749	1095.424284	0.854957818	0.475446377													114	1	18	0	2020_Feb_05_1300	Test	3.2.4	59.83743676		
Pictures/IA110_55_G95p.bmp	Pictures/IA110_55_G95p.bmp	Pictures/IA110.bmp	"Take a chance!"""""	1	risk					0	0	0	0	0	12	12	11																															1095.440985	None	1097.479701	1099.000379	1098.983682	None	1100.521072	None	1	1102.492944	None	1102.492944	None	1102.492944	None	1103.244918	None	1103.244918	1104.247559	1105.350477	None	1105.350477	None	left	1105.350477	None	1105.701401	1107.339088	None	None	0.658217674	0.31267015													114	1	18	0	2020_Feb_05_1300	Test	3.2.4	59.83743676		
Pictures/IA50_L40.bmp	Pictures/IA50_L40.bmp	Pictures/IA50.bmp	"That gamble doesn't sound too good"	0	safe					0	0	0	0	0	13	13	17																															1107.355765	None	1109.377769	1110.898448	1110.881755	None	1112.435846	None	1	1114.407714	None	1114.407714	None	1114.407714	None	1115.594191	None	1115.594191	1116.596833	1117.699748	None	1117.699748	None	right	1117.699748	None	None	None	1118.351467	1119.688326	1.023447665	0.603408276													114	1	18	0	2020_Feb_05_1300	Test	3.2.4	59.83743676		
Pictures/IA100_L20.bmp	Pictures/IA100_L20.bmp	Pictures/IA100.bmp	"Try to win as much money as you can"	1	risk					0	0	0	0	0	14	14	5																															1119.705026	None	1121.727032	1123.247711	1123.231014	None	1124.785104	None	2	1126.756976	None	1126.756976	None	1126.756976	None	None	None	None	None	1128.478199	None	1128.478199	None	right	1128.478199	None	None	None	1128.561747	1130.466763	1.530198693	0.040953474													114	1	18	0	2020_Feb_05_1300	Test	3.2.4	59.83743676		
Pictures/IA75_G30.bmp	Pictures/IA75_G30.bmp	Pictures/IA75.bmp	"Be bold"	1	risk					0	0	0	0	0	15	15	13																															1130.483486	None	1132.505494	1134.026169	1134.009455	None	1135.563566	None	2	1137.535481	None	1137.535481	None	1137.535481	None	None	None	None	None	1138.287411	None	1138.287411	None	left	1138.287411	None	1138.50465	1140.275999	None	None	0.591668521	0.167745598													114	1	18	0	2020_Feb_05_1300	Test	3.2.4	59.83743676		
Pictures/IA110_55_L95p.bmp	Pictures/IA110_55_L95p.bmp	Pictures/IA110.bmp	"Trust me"	1	risk					0	0	0	0	0	16	16	19																															1140.292698	None	1142.314706	1143.835384	1143.818686	None	1145.372779	None	2	1147.344653	None	1147.344653	None	1147.344653	None	None	None	None	None	1148.313873	None	1148.313873	None	right	1148.313873	None	None	None	1148.848627	1150.319181	0.814506868	0.501282957													114	1	18	0	2020_Feb_05_1300	Test	3.2.4	59.83743676		
Pictures/IA40_20_L95p.bmp	Pictures/IA40_20_L95p.bmp	Pictures/IA40.bmp	"Trust me"	1	risk					0	0	0	0	0	17	17	4																															1150.335874	None	1152.357881	1153.878566	1153.861864	None	1155.432668	None	2	1157.387801	None	1157.387801	None	1157.387801	None	None	None	None	None	1158.373774	None	1158.373774	None	right	1158.373774	None	None	None	1158.674556	1160.379062	0.771361536	0.257381491													114	1	18	0	2020_Feb_05_1300	Test	3.2.4	59.83743676		
Pictures/IA25_G5.bmp	Pictures/IA25_G5.bmp	Pictures/IA25.bmp	"Let's stay with the certain option."""""	0	safe					0	0	0	0	0	18	18	7																															1160.395764	None	1162.417769	1163.938446	1163.92175	None	1165.475843	None	1	1167.447716	None	1167.447716	None	1167.447716	None	1169.369463	None	1169.369463	1170.372109	1171.491733	None	1171.491733	None	None	1171.491733	None	None	None	None	None	1.799437188														114	1	18	0	2020_Feb_05_1300	Test	3.2.4	59.83743676		
Pictures/IA25_G20.bmp	Pictures/IA25_G20.bmp	Pictures/IA25.bmp	"I wouldn't gamble for this one. """""	0	safe					0	0	0	0	0	19	19	10																															1173.49702	None	1175.519028	1177.03971	1177.022988	None	1178.560389	None	2	1180.548966	None	1180.548966	None	1180.548966	None	None	None	None	None	1181.133841	None	1181.133841	None	right	1181.133841	None	None	None	1181.468065	1183.139139	0.378198793	0.289312879													114	1	18	0	2020_Feb_05_1300	Test	3.2.4	59.83743676		
										0	0	0	0																																																																									1183.373083	None	return	12.57005968	1183.373083	None	114	1	18	0	2020_Feb_05_1300	Test	3.2.4	59.83743676		
Pictures/IA100_L40.bmp	Pictures/IA100_L40.bmp	Pictures/IA100.bmp	"Think of the payoff"	1	risk					1	0	1	0	0	0	0	8													1196.106705	None	1196.106705	None	1196.106705	None	right	3.276452195	1196.106705	None	1196.106705	None	1196.106705	None	return	4.860350661	1196.106705	None	1201.019672	None	1203.024956	1204.545635	1204.528944	None	1206.066329	None	2	1208.038204	None	1208.038204	None	1208.038204	None	None	None	None	None	1208.740045	None	1208.740045	None	right	1208.740045	None	None	None	1209.174534	1210.745333	0.520959017	0.395120236													114	1	18	0	2020_Feb_05_1300	Test	3.2.4	59.83743676		
Pictures/IA100_G80.bmp	Pictures/IA100_G80.bmp	Pictures/IA100.bmp	"Why not gamble?"""""	1	risk					1	0	1	0	0	1	1	16																															1210.762057	None	1212.784063	1214.304743	1214.288025	None	1215.842136	None	1	1217.814008	None	1217.814008	None	1217.814008	None	1219.050606	None	1219.050606	1220.053251	1221.156157	None	1221.156157	None	right	1221.156157	None	None	None	1221.507082	1223.144744	1.137148963	0.314990672													114	1	18	0	2020_Feb_05_1300	Test	3.2.4	59.83743676		
Pictures/IA25_L5.bmp	Pictures/IA25_L5.bmp	Pictures/IA25.bmp	"It would be smarter to choose the safe option."""""	0	safe					1	0	1	0	0	2	2	17																															1223.161449	None	1225.183448	1226.704131	1226.687434	None	1228.241525	None	1	1230.213398	None	1230.213398	None	1230.213398	None	1231.31631	None	1231.31631	1232.318955	1233.421869	None	1233.421869	None	right	1233.421869	None	None	None	1233.97333	1235.410447	0.937765458	0.505281745													114	1	18	0	2020_Feb_05_1300	Test	3.2.4	59.83743676		
Pictures/IA75_G15.bmp	Pictures/IA75_G15.bmp	Pictures/IA75.bmp	"Take a chance!"""""	1	risk					1	0	1	0	0	3	3	0																															1235.427169	None	1237.449139	1238.969854	1238.953153	None	1240.507247	None	1	1242.479127	None	1242.479127	None	1242.479127	None	1243.565317	None	1243.565317	1244.567955	1245.670872	None	1245.670872	None	right	1245.670872	None	None	None	1246.33931	1247.676173	1.000030317	0.632273486													114	1	18	0	2020_Feb_05_1300	Test	3.2.4	59.83743676		
Pictures/IA25_L15.bmp	Pictures/IA25_L15.bmp	Pictures/IA25.bmp	"There's not much on the line here"	1	risk					1	0	1	0	0	4	4	12																															1247.692871	None	1249.714877	1251.302399	1251.285676	None	1252.772953	None	1	1254.744822	None	1254.744822	None	1254.744822	None	1256.03157	None	1256.03157	1257.034209	1258.153838	None	1258.153838	None	None	1258.153838	None	None	None	None	None	1.134335445														114	1	18	0	2020_Feb_05_1300	Test	3.2.4	59.83743676		
Pictures/IA110_55_G95p.bmp	Pictures/IA110_55_G95p.bmp	Pictures/IA110.bmp	"Take a chance!"""""	1	risk					1	0	1	0	0	5	5	18																															1260.159126	None	1262.181134	1263.70181	1263.685094	None	1265.205788	None	1	1267.211085	None	1267.211085	None	1267.211085	None	1268.113466	None	1268.113466	1269.116109	1270.219022	None	1270.219022	None	left	1270.219022	None	1270.586645	1272.22431	None	None	0.804070954	0.332120123													114	1	18	0	2020_Feb_05_1300	Test	3.2.4	59.83743676		
Pictures/IA50_L10.bmp	Pictures/IA50_L10.bmp	Pictures/IA50.bmp	"Play it safe"	0	safe					1	0	1	0	0	6	6	5																															1272.241015	None	1274.263019	1275.783697	1275.767002	None	1277.270961	None	1	1279.292981	None	1279.292981	None	1279.292981	None	1280.563	None	1280.563	1281.565641	1282.668555	None	1282.668555	None	left	1282.668555	None	1283.01948	1284.657125	None	None	1.138183684	0.306596132													114	1	18	0	2020_Feb_05_1300	Test	3.2.4	59.83743676		
Pictures/IA50_L40.bmp	Pictures/IA50_L40.bmp	Pictures/IA50.bmp	"That gamble doesn't sound too good"	0	safe					1	0	1	0	0	7	7	4																															1284.673847	None	1286.695856	1288.216533	1288.199816	None	1289.753929	None	1	1291.725805	None	1291.725805	None	1291.725805	None	1293.463727	None	1293.463727	1294.466364	1295.569284	None	1295.569284	None	left	1295.569284	None	1296.688903	None	None	None	1.58535333	1.069871658													114	1	18	0	2020_Feb_05_1300	Test	3.2.4	59.83743676		
Pictures/IA100_G20.bmp	Pictures/IA100_G20.bmp	Pictures/IA100.bmp	"Go ahead and gamble!"""""	1	risk					1	0	1	0	0	8	8	2																															1297.574566	None	1299.596571	1301.117249	1301.100553	None	1302.637934	None	1	1304.62653	None	1304.62653	None	1304.62653	None	1306.297599	None	1306.297599	1307.300239	1308.403158	None	1308.403158	None	left	1308.403158	None	1309.20528	1310.408457	None	None	1.556631627	0.755993246													114	1	18	0	2020_Feb_05_1300	Test	3.2.4	59.83743676		
Pictures/IA25_G15.bmp	Pictures/IA25_G15.bmp	Pictures/IA25.bmp	"I think you should take a gamble."""""	1	risk					1	0	1	0	0	9	9	14																															1310.425157	None	1312.447165	1313.967849	1313.951156	None	1315.505239	None	1	1317.477115	None	1317.477115	None	1317.477115	None	1318.880824	None	1318.880824	1319.883464	1320.986379	None	1320.986379	None	right	1320.986379	None	None	None	1322.456936	None	1.274049021	1.420767143													114	1	18	0	2020_Feb_05_1300	Test	3.2.4	59.83743676		
Pictures/IA100_G40.bmp	Pictures/IA100_G40.bmp	Pictures/IA100.bmp	"Try your luck and gamble!"""""	1	risk					1	0	1	0	0	10	10	9																															1323.00838	None	1325.030387	1326.551065	1326.534372	None	1328.071753	None	1	1330.060349	None	1330.060349	None	1330.060349	None	1330.96274	None	1330.96274	1331.965385	1333.101712	None	1333.101712	None	left	1333.101712	None	1333.619742	1335.090296	None	None	0.778820921	0.473441155													114	1	18	0	2020_Feb_05_1300	Test	3.2.4	59.83743676		
Pictures/IA75_L60.bmp	Pictures/IA75_L60.bmp	Pictures/IA75.bmp	"Why not take the gamble?"""""	1	risk					1	0	1	0	0	11	11	3																															1335.106989	None	1337.128997	1338.649678	1338.632985	None	1340.170364	None	1	1342.158957	None	1342.158957	None	1342.158957	None	1343.02791	None	1343.02791	1344.030553	1345.133469	None	1345.133469	None	right	1345.133469	None	None	None	1346.771132	None	0.752201729	1.593679061													114	1	18	0	2020_Feb_05_1300	Test	3.2.4	59.83743676		
Pictures/IA100_L80.bmp	Pictures/IA100_L80.bmp	Pictures/IA100.bmp	"Go all in!"""""	1	risk					1	0	1	0	0	12	12	1																															1347.155479	None	1349.17749	1350.698167	1350.681449	None	1352.218851	None	1	1354.207425	None	1354.207425	None	1354.207425	None	1355.026261	None	1355.026261	1356.028897	1357.131814	None	1357.131814	None	right	1357.131814	None	None	None	1357.549581	1359.120407	0.735739082	0.371333635													114	1	18	0	2020_Feb_05_1300	Test	3.2.4	59.83743676		
Pictures/IA110_55_L95p.bmp	Pictures/IA110_55_L95p.bmp	Pictures/IA110.bmp	"Trust me"	1	risk					1	0	1	0	0	13	13	7																															1359.137106	None	1361.159118	1362.679794	1362.6631	None	1364.16706	None	2	1366.189074	None	1366.189074	None	1366.189074	None	None	None	None	None	1367.876854	None	1367.876854	None	right	1367.876854	None	None	None	1368.328041	1369.865433	1.522093679	0.410297778													114	1	18	0	2020_Feb_05_1300	Test	3.2.4	59.83743676		
Pictures/IA40_20_L95p.bmp	Pictures/IA40_20_L95p.bmp	Pictures/IA40.bmp	"Trust me"	1	risk					1	0	1	0	0	14	14	15																															1369.882153	None	1371.904162	1373.408119	1373.391423	None	1374.912103	None	2	1376.934101	None	1376.934101	None	1376.934101	None	None	None	None	None	1377.886626	None	1377.886626	None	right	1377.886626	None	None	None	1378.137283	1379.875207	0.825064333	0.216515852													114	1	18	0	2020_Feb_05_1300	Test	3.2.4	59.83743676		
Pictures/IA50_L30.bmp	Pictures/IA50_L30.bmp	Pictures/IA50.bmp	"Take a leap"	1	risk					1	0	1	0	0	15	15	10																															1379.891906	None	1381.913917	1383.434598	1383.417901	None	1384.938565	None	1	1386.943863	None	1386.943863	None	1386.943863	None	1387.712569	None	1387.712569	1388.715215	1389.818134	None	1389.818134	None	left	1389.818134	None	1391.004593	None	None	None	0.623309112	1.14102003													114	1	18	0	2020_Feb_05_1300	Test	3.2.4	59.83743676		
Pictures/IA80_40_G95p.bmp	Pictures/IA80_40_G95p.bmp	Pictures/IA80.bmp	"Think of the payoff"	1	risk					1	0	1	0	0	16	16	11																															1391.823411	None	1393.845418	1395.366102	1395.349402	None	1396.886784	None	1	1398.875394	None	1398.875394	None	1398.875394	None	1399.911404	None	1399.911404	1400.91409	1402.017015	None	1402.017015	None	left	1402.017015	None	1402.384634	1404.022299	None	None	0.827764437	0.318125968													114	1	18	0	2020_Feb_05_1300	Test	3.2.4	59.83743676		
Pictures/IA75_G60.bmp	Pictures/IA75_G60.bmp	Pictures/IA75.bmp	"Make it exciting"	1	risk					1	0	1	0	0	17	17	19																															1404.039004	None	1406.06101	1407.565052	1407.548298	None	1409.119086	None	1	1411.090958	None	1411.090958	None	1411.090958	None	1412.110316	None	1412.110316	1413.11296	1414.232587	None	1414.232587	None	left	1414.232587	None	1414.867603	1416.237878	None	None	0.876207783	0.590565267													114	1	18	0	2020_Feb_05_1300	Test	3.2.4	59.83743676		
Pictures/IA75_G30.bmp	Pictures/IA75_G30.bmp	Pictures/IA75.bmp	"Be bold"	1	risk					1	0	1	0	0	18	18	6																															1416.254599	None	1418.276606	1419.797289	1419.780569	None	1421.317974	None	2	1423.306546	None	1423.306546	None	1423.306546	None	None	None	None	None	1425.094617	None	1425.094617	None	left	1425.094617	None	1426.164089	None	None	None	1.636616136	1.032536765													114	1	18	0	2020_Feb_05_1300	Test	3.2.4	59.83743676		
Pictures/IA100_L20.bmp	Pictures/IA100_L20.bmp	Pictures/IA100.bmp	"Try to win as much money as you can"	1	risk					1	0	1	0	0	19	19	13																															1427.099906	None	1429.121909	1430.642594	1430.625873	None	1432.14657	None	2	1434.151866	None	1434.151866	None	1434.151866	None	None	None	None	None	1434.753456	None	1434.753456	None	right	1434.753456	None	None	None	1435.020819	1436.75874	0.423296897	0.221700466													114	1	18	0	2020_Feb_05_1300	Test	3.2.4	59.83743676		
										1	0	1	0																																																																									1436.925847	None	return	7.209312783	1436.925847	None	114	1	18	0	2020_Feb_05_1300	Test	3.2.4	59.83743676		
Pictures/IA25_L5.bmp	Pictures/IA25_L5.bmp	Pictures/IA25.bmp	"It would be smarter to choose the safe option."""""	0	safe					2	0	2	0	0	0	0	8													1444.295312	None	1444.295312	None	1444.295312	None	left	1.255835785	1444.295312	None	1444.295312	None	1444.295312	None	return	5.015626149	1444.295312	None	1449.358683	None	1451.38069	1452.901365	1452.88465	None	1454.371911	None	2	1456.393929	None	1456.393929	None	1456.393929	None	None	None	None	None	1458.466067	None	1458.466067	None	right	1458.466067	None	None	None	1459.03422	1460.471358	1.877232718	0.525085565													114	1	18	0	2020_Feb_05_1300	Test	3.2.4	59.83743676		
Pictures/IA75_G45.bmp	Pictures/IA75_G45.bmp	Pictures/IA75.bmp	"Don't gamble for this one."""""	0	safe					2	0	2	0	0	1	1	7																															1460.488059	None	1462.51007	1464.030758	1464.014051	None	1465.551432	None	1	1467.540054	None	1467.540054	None	1467.540054	None	1468.191764	None	1468.191764	1469.194394	1470.297312	None	1470.297312	None	left	1470.297312	None	1470.848762	1472.285881	None	None	0.547096078	0.517832255													114	1	18	0	2020_Feb_05_1300	Test	3.2.4	59.83743676		
Pictures/IA25_G20.bmp	Pictures/IA25_G20.bmp	Pictures/IA25.bmp	"I wouldn't gamble for this one. """""	0	safe					2	0	2	0	0	2	2	5																															1472.302605	None	1474.324613	1475.845291	1475.828578	None	1477.332554	None	1	1479.35455	None	1479.35455	None	1479.35455	None	1480.240233	None	1480.240233	1481.242877	1482.379215	None	1482.379215	None	left	1482.379215	None	1482.713419	1484.367787	None	None	0.764609476	0.291932257													114	1	18	0	2020_Feb_05_1300	Test	3.2.4	59.83743676		
Pictures/IA25_L15.bmp	Pictures/IA25_L15.bmp	Pictures/IA25.bmp	"There's not much on the line here"	1	risk					2	0	2	0	0	3	3	2																															1484.384513	None	1486.406513	1487.927199	1487.910481	None	1489.447881	None	1	1491.436461	None	1491.436461	None	1491.436461	None	1492.856876	None	1492.856876	1493.859521	1495.046005	None	1495.046005	None	right	1495.046005	None	None	None	1496.282595	None	1.282699033	1.201133138													114	1	18	0	2020_Feb_05_1300	Test	3.2.4	59.83743676		
Pictures/IA50_L20.bmp	Pictures/IA50_L20.bmp	Pictures/IA50.bmp	"Certainty is boring"	1	risk					2	0	2	0	0	4	4	11																															1497.068001	None	1499.090012	1500.610692	1500.593972	None	1502.148085	None	1	1504.119966	None	1504.119966	None	1504.119966	None	1505.13932	None	1505.13932	1506.141963	1507.261595	None	1507.261595	None	right	1507.261595	None	None	None	1508.498176	None	0.911194795	1.20154523													114	1	18	0	2020_Feb_05_1300	Test	3.2.4	59.83743676		
Pictures/IA100_L60.bmp	Pictures/IA100_L60.bmp	Pictures/IA100.bmp	"You'd have a lot to lose"	0	safe					2	0	2	0	0	5	5	17																															1509.283582	None	1511.305595	1512.826273	1512.809578	None	1514.363672	None	1	1516.335545	None	1516.335545	None	1516.335545	None	1518.60822	None	1518.60822	1519.610867	1520.713786	None	1520.713786	None	right	1520.713786	None	None	None	1522.652223	None	2.127623819	1.89336634													114	1	18	0	2020_Feb_05_1300	Test	3.2.4	59.83743676		
Pictures/IA25_L20.bmp	Pictures/IA25_L20.bmp	Pictures/IA25.bmp	"Don't be tempted to gamble."""""	0	safe					2	0	2	0	0	6	6	14																															1522.73579	None	1524.757799	1526.278475	1526.261758	None	1527.815871	None	1	1529.787747	None	1529.787747	None	1529.787747	None	1530.372623	None	1530.372623	1531.375264	1532.478186	None	1532.478186	None	left	1532.478186	None	1532.845809	1534.48348	None	None	0.483412794	0.320966													114	1	18	0	2020_Feb_05_1300	Test	3.2.4	59.83743676		
Pictures/IA100_G60.bmp	Pictures/IA100_G60.bmp	Pictures/IA100.bmp	"Be cautious"	0	safe					2	0	2	0	0	7	7	15																															1534.500178	None	1536.522186	1538.042867	1538.026171	None	1539.580265	None	1	1541.552139	None	1541.552139	None	1541.552139	None	1543.022689	None	1543.022689	1544.025342	1545.128255	None	1545.128255	None	left	1545.128255	None	1545.713128	1547.116832	None	None	1.343025292	0.550890607													114	1	18	0	2020_Feb_05_1300	Test	3.2.4	59.83743676		
Pictures/IA25_G10.bmp	Pictures/IA25_G10.bmp	Pictures/IA25.bmp	"What's life without a little risk?"""""	1	risk					2	0	2	0	0	8	8	9																															1547.133553	None	1549.15557	1550.67624	1550.659529	None	1552.213636	None	1	1554.185521	None	1554.185521	None	1554.185521	None	1555.52238	None	1555.52238	1556.525015	1557.627938	None	1557.627938	None	right	1557.627938	None	None	None	1558.847822	None	1.205640819	1.179208666													114	1	18	0	2020_Feb_05_1300	Test	3.2.4	59.83743676		
Pictures/IA40_20_G95p.bmp	Pictures/IA40_20_G95p.bmp	Pictures/IA40.bmp	"Hold back"	0	safe					2	0	2	0	0	9	9	4																															1559.63323	None	1561.655234	1563.17592	1563.159202	None	1564.696609	None	1	1566.685182	None	1566.685182	None	1566.685182	None	1567.988634	None	1567.988634	1568.991274	1570.094195	None	1570.094195	None	left	1570.094195	None	1570.47854	1572.082776	None	None	1.153982997	0.34496004													114	1	18	0	2020_Feb_05_1300	Test	3.2.4	59.83743676		
Pictures/IA50_G40.bmp	Pictures/IA50_G40.bmp	Pictures/IA50.bmp	"It would probably be best to play it safe."""""	0	safe					2	0	2	0	0	10	10	13																															1572.099479	None	1574.121484	1575.642166	1575.625469	None	1577.162853	None	1	1579.151449	None	1579.151449	None	1579.151449	None	1581.07319	None	1581.07319	1582.075833	1583.178752	None	1583.178752	None	left	1583.178752	None	1583.847169	1585.167323	None	None	1.783711544	0.620400014													114	1	18	0	2020_Feb_05_1300	Test	3.2.4	59.83743676		
Pictures/IA80_40_L95p.bmp	Pictures/IA80_40_L95p.bmp	Pictures/IA80.bmp	"Let's stay with the certain option."""""	0	safe					2	0	2	0	0	11	11	3																															1585.184042	None	1587.206055	1588.726732	1588.710016	None	1590.247419	None	2	1592.235995	None	1592.235995	None	1592.235995	None	None	None	None	None	1593.389039	None	1593.389039	None	right	1593.389039	None	None	None	1593.756683	1595.394337	0.979165933	0.322112408													114	1	18	0	2020_Feb_05_1300	Test	3.2.4	59.83743676		
Pictures/IA20_10_L95p.bmp	Pictures/IA20_10_L95p.bmp	Pictures/IA20.bmp	"Don't be tempted to gamble."""""	0	safe					2	0	2	0	0	12	12	16																															1595.411053	None	1597.43306	1598.953761	1598.937033	None	1600.45772	None	2	1602.463017	None	1602.463017	None	1602.463017	None	None	None	None	None	1602.981052	None	1602.981052	None	right	1602.981052	None	None	None	1603.298559	1604.969632	0.336144448	0.274101339													114	1	18	0	2020_Feb_05_1300	Test	3.2.4	59.83743676		
Pictures/IA75_G30.bmp	Pictures/IA75_G30.bmp	Pictures/IA75.bmp	"Be bold"	1	risk					2	0	2	0	0	13	13	10																															1604.986345	None	1607.008351	1608.529033	1608.512315	None	1610.033006	None	1	1612.038311	None	1612.038311	None	1612.038311	None	1612.890557	None	1612.890557	1613.8932	1614.996118	None	1614.996118	None	left	1614.996118	None	1615.948629	1616.984687	None	None	0.736853203	0.915021107													114	1	18	0	2020_Feb_05_1300	Test	3.2.4	59.83743676		
Pictures/IA100_G40.bmp	Pictures/IA100_G40.bmp	Pictures/IA100.bmp	"Try your luck and gamble!"""""	1	risk					2	0	2	0	0	14	14	12																															1617.001409	None	1619.023422	1620.544099	1620.527381	None	1622.031363	None	1	1624.053325	None	1624.053325	None	1624.053325	None	1625.172983	None	1625.172983	1626.175629	1627.295255	None	1627.295255	None	left	1627.295255	None	1628.130805	1629.300549	None	None	1.017834219	0.79190492													114	1	18	0	2020_Feb_05_1300	Test	3.2.4	59.83743676		
Pictures/IA75_L60.bmp	Pictures/IA75_L60.bmp	Pictures/IA75.bmp	"Why not take the gamble?"""""	1	risk					2	0	2	0	0	15	15	6																															1629.317265	None	1631.339279	1632.843239	1632.826543	None	1634.347224	None	1	1636.369223	None	1636.369223	None	1636.369223	None	1637.973469	None	1637.973469	1638.976117	1640.079033	None	1640.079033	None	right	1640.079033	None	None	None	1641.265494	None	1.493939642	1.14413243													114	1	18	0	2020_Feb_05_1300	Test	3.2.4	59.83743676		
Pictures/IA110_55_G95p.bmp	Pictures/IA110_55_G95p.bmp	Pictures/IA110.bmp	"Take a chance!"""""	1	risk					2	0	2	0	0	16	16	18																															1642.084313	None	1644.106323	1645.610303	1645.593588	None	1647.147689	None	1	1649.136287	None	1649.136287	None	1649.136287	None	1650.322741	None	1650.322741	1651.32539	1652.42831	None	1652.42831	None	left	1652.42831	None	1652.929638	1654.433623	None	None	1.094873051	0.466831857													114	1	18	0	2020_Feb_05_1300	Test	3.2.4	59.83743676		
Pictures/IA100_L40.bmp	Pictures/IA100_L40.bmp	Pictures/IA100.bmp	"Think of the payoff"	1	risk					2	0	2	0	0	17	17	0																															1654.450314	None	1656.472316	1657.992998	1657.976304	None	1659.513684	None	1	1661.502282	None	1661.502282	None	1661.502282	None	1662.538349	None	1662.538349	1663.540994	1664.643913	None	1664.643913	None	right	1664.643913	None	None	None	1665.212072	1666.649205	0.912876747	0.523242679													114	1	18	0	2020_Feb_05_1300	Test	3.2.4	59.83743676		
Pictures/IA25_L10.bmp	Pictures/IA25_L10.bmp	Pictures/IA25.bmp	"Dont be afraid to take the risk!"""""	1	risk					2	0	2	0	0	18	18	19																															1666.665907	None	1668.687917	1670.208597	1670.191901	None	1671.729287	None	2	1673.717879	None	1673.717879	None	1673.717879	None	None	None	None	None	1675.639614	None	1675.639614	None	right	1675.639614	None	None	None	1675.840151	1677.644917	1.769278149	0.151532767													114	1	18	0	2020_Feb_05_1300	Test	3.2.4	59.83743676		
Pictures/IA75_L15.bmp	Pictures/IA75_L15.bmp	Pictures/IA75.bmp	"Trust me–gamble!"""""	1	risk					2	0	2	0	0	19	19	1																															1677.661615	None	1679.683626	1681.204306	1681.18761	None	1682.741702	None	2	1684.71358	None	1684.71358	None	1684.71358	None	None	None	None	None	1685.265051	None	1685.265051	None	right	1685.265051	None	None	None	1685.498982	1687.270343	0.389583397	0.198099626													114	1	18	0	2020_Feb_05_1300	Test	3.2.4	59.83743676		
										2	0	2	0																																																																									1687.437441	None	return	6.705713027	1687.437441	None	114	1	18	0	2020_Feb_05_1300	Test	3.2.4	59.83743676		
Pictures/IA110_55_L95p.bmp	Pictures/IA110_55_L95p.bmp	Pictures/IA110.bmp	"Trust me"	1	risk					3	0	3	0	0	0	0	19													1694.305591	None	1694.305591	None	1694.305591	None	right	1.685554019	1694.305591	None	1694.305591	None	1694.305591	None	return	2.861373166	1694.305591	None	1697.229977	None	1699.235283	1700.755957	1700.739242	None	1702.259924	None	2	1704.248522	None	1704.248522	None	1704.248522	None	None	None	None	None	1705.384855	None	1705.384855	None	right	1705.384855	None	None	None	1705.568673	1707.373444	0.982622598	0.142297513													114	1	18	0	2020_Feb_05_1300	Test	3.2.4	59.83743676		
Pictures/IA75_L45.bmp	Pictures/IA75_L45.bmp	Pictures/IA75.bmp	"Don't gamble for this one"	0	safe					3	0	3	0	0	1	1	7																															1707.390138	None	1709.412148	1710.932834	1710.916132	None	1712.503649	None	1	1714.442102	None	1714.442102	None	1714.442102	None	1716.146619	None	1716.146619	1717.149258	1718.252176	None	1718.252176	None	left	1718.252176	None	1718.603108	1720.240748	None	None	1.565059908	0.306976507													114	1	18	0	2020_Feb_05_1300	Test	3.2.4	59.83743676		
Pictures/IA100_L60.bmp	Pictures/IA100_L60.bmp	Pictures/IA100.bmp	"You'd have a lot to lose"	0	safe					3	0	3	0	0	2	2	11																															1720.257472	None	1722.27948	1723.800161	1723.783445	None	1725.287428	None	2	1727.309451	None	1727.309451	None	1727.309451	None	None	None	None	None	1728.546023	None	1728.546023	None	right	1728.546023	None	None	None	1728.763259	1730.534618	1.049696321	0.173130936													114	1	18	0	2020_Feb_05_1300	Test	3.2.4	59.83743676		
Pictures/IA25_G20.bmp	Pictures/IA25_G20.bmp	Pictures/IA25.bmp	"I wouldn't gamble for this one. """""	0	safe					3	0	3	0	0	3	3	9																															1730.551316	None	1732.573325	1734.094012	1734.07731	None	1735.581271	None	2	1737.603293	None	1737.603293	None	1737.603293	None	None	None	None	None	1738.321855	None	1738.321855	None	right	1738.321855	None	None	None	1738.438827	1740.310443	0.547865317	0.077287934													114	1	18	0	2020_Feb_05_1300	Test	3.2.4	59.83743676		
Pictures/IA100_L80.bmp	Pictures/IA100_L80.bmp	Pictures/IA100.bmp	"Go all in!"""""	1	risk					3	0	3	0	0	4	4	4																															1740.327161	None	1742.349147	1743.86983	1743.853136	None	1745.373805	None	2	1747.379104	None	1747.379104	None	1747.379104	None	None	None	None	None	1748.080956	None	1748.080956	None	right	1748.080956	None	None	None	1748.899783	1750.069547	0.540059838	0.782194496													114	1	18	0	2020_Feb_05_1300	Test	3.2.4	59.83743676		
Pictures/IA100_G40.bmp	Pictures/IA100_G40.bmp	Pictures/IA100.bmp	"Try your luck and gamble!"""""	1	risk					3	0	3	0	0	5	5	16																															1750.086251	None	1752.108259	1753.62894	1753.612243	None	1755.149625	None	2	1757.138222	None	1757.138222	None	1757.138222	None	None	None	None	None	1758.190998	None	1758.190998	None	left	1758.190998	None	1758.458374	1760.196298	None	None	0.860938537	0.232144436													114	1	18	0	2020_Feb_05_1300	Test	3.2.4	59.83743676		
Pictures/IA110_55_G95p.bmp	Pictures/IA110_55_G95p.bmp	Pictures/IA110.bmp	"Take a chance!"""""	1	risk					3	0	3	0	0	6	6	15																															1760.213002	None	1762.235011	1763.75569	1763.738996	None	1765.242956	None	1	1767.264974	None	1767.264974	None	1767.264974	None	1768.685381	None	1768.685381	1769.688026	1770.790944	None	1770.790944	None	left	1770.790944	None	1771.476083	1772.779536	None	None	1.334179381	0.6482011													114	1	18	0	2020_Feb_05_1300	Test	3.2.4	59.83743676		
Pictures/IA75_L15.bmp	Pictures/IA75_L15.bmp	Pictures/IA75.bmp	"Trust me–gamble!"""""	1	risk					3	0	3	0	0	7	7	14																															1772.79624	None	1774.818249	1776.338928	1776.322232	None	1777.826193	None	1	1779.848211	None	1779.848211	None	1779.848211	None	1781.101523	None	1781.101523	1782.104171	1783.207085	None	1783.207085	None	right	1783.207085	None	None	None	1784.945	None	1.150948688	1.688068305													114	1	18	0	2020_Feb_05_1300	Test	3.2.4	59.83743676		
Pictures/IA20_10_L95p.bmp	Pictures/IA20_10_L95p.bmp	Pictures/IA20.bmp	"Don't be tempted to gamble."""""	0	safe					3	0	3	0	0	8	8	5																															1785.229089	None	1787.251104	1788.77178	1788.755062	None	1790.275754	None	2	1792.281061	None	1792.281061	None	1792.281061	None	None	None	None	None	1794.787676	None	1794.787676	None	right	1794.787676	None	None	None	1796.274934	None	2.310099005	1.443476605													114	1	18	0	2020_Feb_05_1300	Test	3.2.4	59.83743676		
Pictures/IA75_G15.bmp	Pictures/IA75_G15.bmp	Pictures/IA75.bmp	"Take a chance!"""""	1	risk					3	0	3	0	0	9	9	8																															1796.792973	None	1798.814979	1800.335665	1800.318946	None	1801.839636	None	1	1803.844934	None	1803.844934	None	1803.844934	None	1805.499318	None	1805.499318	1806.50195	1807.621575	None	1807.621575	None	right	1807.621575	None	None	None	1808.00592	1809.610159	1.570235615	0.337589379													114	1	18	0	2020_Feb_05_1300	Test	3.2.4	59.83743676		
Pictures/IA25_L10.bmp	Pictures/IA25_L10.bmp	Pictures/IA25.bmp	"Dont be afraid to take the risk!"""""	1	risk					3	0	3	0	0	10	10	2																															1809.626862	None	1811.648869	1813.169552	1813.152854	None	1814.656815	None	1	1816.678835	None	1816.678835	None	1816.678835	None	1817.915427	None	1817.915427	1818.918068	1820.037699	None	1820.037699	None	right	1820.037699	None	None	None	1820.355201	1822.026279	1.120331395	0.281469318													114	1	18	0	2020_Feb_05_1300	Test	3.2.4	59.83743676		
Pictures/IA50_L30.bmp	Pictures/IA50_L30.bmp	Pictures/IA50.bmp	"Take a leap"	1	risk					3	0	3	0	0	11	11	6																															1822.043001	None	1824.065011	1825.585693	1825.568976	None	1827.106383	None	1	1829.094955	None	1829.094955	None	1829.094955	None	1830.264722	None	1830.264722	1831.26737	1832.370286	None	1832.370286	None	right	1832.370286	None	None	None	1832.871595	1834.375569	1.024205756	0.46083996													114	1	18	0	2020_Feb_05_1300	Test	3.2.4	59.83743676		
Pictures/IA100_L20.bmp	Pictures/IA100_L20.bmp	Pictures/IA100.bmp	"Try to win as much money as you can"	1	risk					3	0	3	0	0	12	12	3																															1834.392289	None	1836.414328	1837.93498	1837.91827	None	1839.455667	None	2	1841.444244	None	1841.444244	None	1841.444244	None	None	None	None	None	1842.430185	None	1842.430185	None	right	1842.430185	None	None	None	1843.299153	1844.435481	0.802917206	0.832952635													114	1	18	0	2020_Feb_05_1300	Test	3.2.4	59.83743676		
Pictures/IA100_L40.bmp	Pictures/IA100_L40.bmp	Pictures/IA100.bmp	"Think of the payoff"	1	risk					3	0	3	0	0	13	13	10																															1844.452198	None	1846.474206	1847.994892	1847.978135	None	1849.498827	None	2	1851.50417	None	1851.50417	None	1851.50417	None	None	None	None	None	1852.590366	None	1852.590366	None	right	1852.590366	None	None	None	1852.790882	1854.59565	0.918990182	0.152786589													114	1	18	0	2020_Feb_05_1300	Test	3.2.4	59.83743676		
Pictures/IA25_L5.bmp	Pictures/IA25_L5.bmp	Pictures/IA25.bmp	"It would be smarter to choose the safe option."""""	0	safe					3	0	3	0	0	14	14	1																															1854.612374	None	1856.63438	1858.155064	1858.138348	None	1859.675747	None	2	1861.664332	None	1861.664332	None	1861.664332	None	None	None	None	None	1863.017912	None	1863.017912	None	left	1863.017912	None	1863.452379	1865.0232	None	None	1.158819067	0.397256773													114	1	18	0	2020_Feb_05_1300	Test	3.2.4	59.83743676		
Pictures/IA100_G60.bmp	Pictures/IA100_G60.bmp	Pictures/IA100.bmp	"Be cautious"	0	safe					3	0	3	0	0	15	15	18																															1865.039914	None	1867.061926	1868.582612	1868.565891	None	1870.103296	None	2	1872.091876	None	1872.091876	None	1872.091876	None	None	None	None	None	1874.799032	None	1874.799032	None	left	1874.799032	None	1875.166656	1876.804326	None	None	2.531288206	0.328119868													114	1	18	0	2020_Feb_05_1300	Test	3.2.4	59.83743676		
Pictures/IA40_20_G95p.bmp	Pictures/IA40_20_G95p.bmp	Pictures/IA40.bmp	"Hold back"	0	safe					3	0	3	0	0	16	16	12																															1876.821026	None	1878.843036	1880.36372	1880.347025	None	1881.884412	None	2	1883.873004	None	1883.873004	None	1883.873004	None	None	None	None	None	1884.959235	None	1884.959235	None	left	1884.959235	None	1885.8783	1886.947788	None	None	0.910156971	0.879877575													114	1	18	0	2020_Feb_05_1300	Test	3.2.4	59.83743676		
Pictures/IA50_G30.bmp	Pictures/IA50_G30.bmp	Pictures/IA50.bmp	"I think you should gamble."""""	1	risk					3	0	3	0	0	17	17	0																															1886.964492	None	1888.986499	1890.507181	1890.490488	None	1892.027867	None	2	1894.016466	None	1894.016466	None	1894.016466	None	None	None	None	None	1896.840593	None	1896.840593	None	right	1896.840593	None	None	None	1897.14137	1898.845884	2.654683619	0.262558943													114	1	18	0	2020_Feb_05_1300	Test	3.2.4	59.83743676		
Pictures/IA75_L60.bmp	Pictures/IA75_L60.bmp	Pictures/IA75.bmp	"Why not take the gamble?"""""	1	risk					3	0	3	0	0	18	18	13																															1898.862588	None	1900.884596	1902.388579	1902.371863	None	1903.925966	None	1	1905.914565	None	1905.914565	None	1905.914565	None	1906.633121	None	1906.633121	1907.635761	1908.738685	None	1908.738685	None	right	1908.738685	None	None	None	1910.025409	None	0.59659475	1.244467558													114	1	18	0	2020_Feb_05_1300	Test	3.2.4	59.83743676		
Pictures/IA50_L10.bmp	Pictures/IA50_L10.bmp	Pictures/IA50.bmp	"Play it safe"	0	safe					3	0	3	0	0	19	19	17																															1910.743978	None	1912.765983	1914.269965	1914.253252	None	1915.790641	None	2	1917.795941	None	1917.795941	None	1917.795941	None	None	None	None	None	1918.464388	None	1918.464388	None	right	1918.464388	None	None	None	1918.564635	1920.469676	0.4912263	0.054776065													114	1	18	0	2020_Feb_05_1300	Test	3.2.4	59.83743676		
										3	0	3	0																																																																									1920.636784	None	return	9.554352267	1920.636784	None	114	1	18	0	2020_Feb_05_1300	Test	3.2.4	59.83743676		
Pictures/IA100_G60.bmp	Pictures/IA100_G60.bmp	Pictures/IA100.bmp	"Be cautious"	0	safe					4	0	4	0	0	0	0	14													1930.345766	None	1930.345766	None	1930.345766	None	left	2.133377324	1930.345766	None	1930.345766	None	1930.345766	None	return	3.205163231	1930.345766	None	1933.604363	None	1935.609674	1937.130356	1937.113643	None	1938.600903	None	None	1940.639631	None	1940.639631	None	1940.639631	None	None	None	None	None	1943.731132	None	1943.731132	None	right	1943.731132	None	None	None	1945.636152	None		1.868013779													114	1	18	0	2020_Feb_05_1300	Test	3.2.4	59.83743676		
Pictures/IA75_G60.bmp	Pictures/IA75_G60.bmp	Pictures/IA75.bmp	"Make it exciting"	1	risk					4	0	4	0	0	1	1	16																															1945.753129	None	1947.775134	1949.295817	1949.279121	None	1950.816504	None	2	1952.805102	None	1952.805102	None	1952.805102	None	None	None	None	None	1953.089186	None	1953.089186	None	right	1953.089186	None	None	None	1953.674061	1955.077768	0.114050044	0.541967195													114	1	18	0	2020_Feb_05_1300	Test	3.2.4	59.83743676		
Pictures/IA25_G20.bmp	Pictures/IA25_G20.bmp	Pictures/IA25.bmp	"I wouldn't gamble for this one. """""	0	safe					4	0	4	0	0	2	2	15																															1955.09447	None	1957.116481	1958.637162	1958.620463	None	1960.157845	None	1	1962.146447	None	1962.146447	None	1962.146447	None	1963.149096	None	1963.149096	1964.151739	1965.254669	None	1965.254669	None	right	1965.254669	None	None	None	1966.424401	None	0.876732906	1.128476263													114	1	18	0	2020_Feb_05_1300	Test	3.2.4	59.83743676		
Pictures/IA75_L30.bmp	Pictures/IA75_L30.bmp	Pictures/IA75.bmp	"Hold back"	0	safe					4	0	4	0	0	3	3	1																															1967.276651	None	1969.298661	1970.819344	1970.802647	None	1972.356746	None	2	1974.328621	None	1974.328621	None	1974.328621	None	None	None	None	None	1975.414823	None	1975.414823	None	left	1975.414823	None	1975.916153	1977.420113	None	None	0.902546418	0.464324221													114	1	18	0	2020_Feb_05_1300	Test	3.2.4	59.83743676		
Pictures/IA100_G20.bmp	Pictures/IA100_G20.bmp	Pictures/IA100.bmp	"Go ahead and gamble!"""""	1	risk					4	0	4	0	0	4	4	19																															1977.436837	None	1979.458845	1980.979531	1980.962818	None	1982.500215	None	2	1984.488809	None	1984.488809	None	1984.488809	None	None	None	None	None	1985.45803	None	1985.45803	None	right	1985.45803	None	None	None	1985.842381	1987.446613	0.79035204	0.341122362													114	1	18	0	2020_Feb_05_1300	Test	3.2.4	59.83743676		
Pictures/IA20_10_L95p.bmp	Pictures/IA20_10_L95p.bmp	Pictures/IA20.bmp	"Don't be tempted to gamble."""""	0	safe					4	0	4	0	0	5	5	5																															1987.463314	None	1989.485324	1991.006005	1990.98931	None	1992.526696	None	2	1994.515292	None	1994.515292	None	1994.515292	None	None	None	None	None	1996.086104	None	1996.086104	None	left	1996.086104	None	1996.43702	1998.074691	None	None	1.387869081	0.305061055													114	1	18	0	2020_Feb_05_1300	Test	3.2.4	59.83743676		
Pictures/IA75_G45.bmp	Pictures/IA75_G45.bmp	Pictures/IA75.bmp	"Don't gamble for this one."""""	0	safe					4	0	4	0	0	6	6	12																															1998.091398	None	2000.113407	2001.634084	2001.617387	None	2003.154769	None	2	2005.14337	None	2005.14337	None	2005.14337	None	None	None	None	None	2005.778382	None	2005.778382	None	right	2005.778382	None	None	None	2006.229568	2007.783661	0.479790526	0.412772224													114	1	18	0	2020_Feb_05_1300	Test	3.2.4	59.83743676		
Pictures/IA25_L10.bmp	Pictures/IA25_L10.bmp	Pictures/IA25.bmp	"Dont be afraid to take the risk!"""""	1	risk					4	0	4	0	0	7	7	6																															2007.800385	None	2009.822394	2011.343076	2011.326359	None	2012.863766	None	1	2014.852341	None	2014.852341	None	2014.852341	None	2016.205978	None	2016.205978	2017.208649	2018.328229	None	2018.328229	None	right	2018.328229	None	None	None	2019.013362	2020.33351	1.226830642	0.638908923													114	1	18	0	2020_Feb_05_1300	Test	3.2.4	59.83743676		
Pictures/IA75_L60.bmp	Pictures/IA75_L60.bmp	Pictures/IA75.bmp	"Why not take the gamble?"""""	1	risk					4	0	4	0	0	8	8	0																															2020.350233	None	2022.372216	2023.876182	2023.859482	None	2025.396873	None	2	2027.402179	None	2027.402179	None	2027.402179	None	None	None	None	None	2028.271136	None	2028.271136	None	right	2028.271136	None	None	None	2028.605339	2030.276418	0.716980318	0.296011154													114	1	18	0	2020_Feb_05_1300	Test	3.2.4	59.83743676		
Pictures/IA20_10_G95p.bmp	Pictures/IA20_10_G95p.bmp	Pictures/IA20.bmp	"Take a leap"	1	risk					4	0	4	0	0	9	9	13																															2030.293138	None	2032.315161	2033.83583	2033.819117	None	2035.373193	None	2	2037.345109	None	2037.345109	None	2037.345109	None	None	None	None	None	2038.865795	None	2038.865795	None	left	2038.865795	None	2040.169221	None	None	None	1.342059671	1.261357781													114	1	18	0	2020_Feb_05_1300	Test	3.2.4	59.83743676		
Pictures/IA50_G10.bmp	Pictures/IA50_G10.bmp	Pictures/IA50.bmp	"Go with the safe option here!"""""	0	safe					4	0	4	0	0	10	10	11																															2040.887786	None	2042.909796	2044.430476	2044.413782	None	2045.951173	None	1	2047.939762	None	2047.939762	None	2047.939762	None	2048.80872	None	2048.80872	2049.811358	2050.91428	None	2050.91428	None	left	2050.91428	None	2052.100743	None	None	None	0.755402639	1.140871143													114	1	18	0	2020_Feb_05_1300	Test	3.2.4	59.83743676		
Pictures/IA50_L30.bmp	Pictures/IA50_L30.bmp	Pictures/IA50.bmp	"Take a leap"	1	risk					4	0	4	0	0	11	11	4																															2052.919581	None	2054.941591	2056.462272	2056.445561	None	2057.949539	None	1	2059.971539	None	2059.971539	None	2059.971539	None	2060.907353	None	2060.907353	2061.909997	2063.029629	None	2063.029629	None	right	2063.029629	None	None	None	2063.597782	2065.018213	0.795615746	0.521524419													114	1	18	0	2020_Feb_05_1300	Test	3.2.4	59.83743676		
Pictures/IA40_20_L95p.bmp	Pictures/IA40_20_L95p.bmp	Pictures/IA40.bmp	"Trust me"	1	risk					4	0	4	0	0	12	12	17																															2065.034912	None	2067.056921	2068.577609	2068.560908	None	2070.098293	None	2	2072.086895	None	2072.086895	None	2072.086895	None	None	None	None	None	2073.122963	None	2073.122963	None	right	2073.122963	None	None	None	2073.490586	2075.111544	0.880274155	0.324186496													114	1	18	0	2020_Feb_05_1300	Test	3.2.4	59.83743676		
Pictures/IA25_L15.bmp	Pictures/IA25_L15.bmp	Pictures/IA25.bmp	"There's not much on the line here"	1	risk					4	0	4	0	0	13	13	10																															2075.128246	None	2077.150254	2078.670937	2078.654242	None	2080.191624	None	1	2082.18022	None	2082.18022	None	2082.18022	None	2083.032472	None	2083.032472	2084.035126	2085.138037	None	2085.138037	None	right	2085.138037	None	None	None	2085.940141	2087.143323	0.706941718	0.765107649													114	1	18	0	2020_Feb_05_1300	Test	3.2.4	59.83743676		
Pictures/IA80_40_L95p.bmp	Pictures/IA80_40_L95p.bmp	Pictures/IA80.bmp	"Let's stay with the certain option."""""	0	safe					4	0	4	0	0	14	14	7																															2087.160042	None	2089.18205	2090.702734	2090.686016	None	2092.223423	None	2	2094.211998	None	2094.211998	None	2094.211998	None	None	None	None	None	2095.298211	None	2095.298211	None	right	2095.298211	None	None	None	2095.431897	2097.303504	0.907165133	0.084946933													114	1	18	0	2020_Feb_05_1300	Test	3.2.4	59.83743676		
Pictures/IA25_G15.bmp	Pictures/IA25_G15.bmp	Pictures/IA25.bmp	"I think you should take a gamble."""""	1	risk					4	0	4	0	0	15	15	3																															2097.320206	None	2099.342217	2100.862899	2100.846206	None	2102.383587	None	1	2104.372185	None	2104.372185	None	2104.372185	None	2105.52522	None	2105.52522	2106.527864	2107.647496	None	2107.647496	None	right	2107.647496	None	None	None	2108.249091	2109.652803	1.034968112	0.551649387													114	1	18	0	2020_Feb_05_1300	Test	3.2.4	59.83743676		
Pictures/IA75_L45.bmp	Pictures/IA75_L45.bmp	Pictures/IA75.bmp	"Don't gamble for this one"	0	safe					4	0	4	0	0	16	16	8																															2109.669499	None	2111.691511	2113.212193	2113.195458	None	2114.732879	None	1	2116.721467	None	2116.721467	None	2116.721467	None	2117.623863	None	2117.623863	2118.6265	2119.762836	None	2119.762836	None	left	2119.762836	None	2120.9326	None	None	None	0.765692221	1.124313428													114	1	18	0	2020_Feb_05_1300	Test	3.2.4	59.83743676		
Pictures/IA100_G40.bmp	Pictures/IA100_G40.bmp	Pictures/IA100.bmp	"Try your luck and gamble!"""""	1	risk					4	0	4	0	0	17	17	9																															2121.784852	None	2123.806861	2125.327543	2125.31083	None	2126.848232	None	1	2128.83681	None	2128.83681	None	2128.83681	None	2129.638938	None	2129.638938	2130.641583	2131.761214	None	2131.761214	None	left	2131.761214	None	2133.41558	None	None	None	0.690349995	1.613932757													114	1	18	0	2020_Feb_05_1300	Test	3.2.4	59.83743676		
Pictures/IA50_G40.bmp	Pictures/IA50_G40.bmp	Pictures/IA50.bmp	"It would probably be best to play it safe."""""	0	safe					4	0	4	0	0	18	18	18																															2133.766496	None	2135.788505	2137.309192	2137.292496	None	2138.829878	None	2	2140.818478	None	2140.818478	None	2140.818478	None	None	None	None	None	2141.57046	None	2141.57046	None	right	2141.57046	None	None	None	2141.971516	2143.575743	0.540681225	0.356692018													114	1	18	0	2020_Feb_05_1300	Test	3.2.4	59.83743676		
Pictures/IA50_G30.bmp	Pictures/IA50_G30.bmp	Pictures/IA50.bmp	"I think you should gamble."""""	1	risk					4	0	4	0	0	19	19	2																															2143.59247	None	2145.614475	2147.135159	2147.118442	None	2148.622422	None	1	2150.644425	None	2150.644425	None	2150.644425	None	2151.814179	None	2151.814179	2152.816824	2153.919743	None	2153.919743	None	right	2153.919743	None	None	None	2154.705149	2155.908325	1.042734613	1.503395898													114	1	18	0	2020_Feb_05_1300	Test	3.2.4	59.83743676		
										4	0	4	0																																																																									2156.07545	None	return	14.96369349	2156.07545	None	114	1	18	0	2020_Feb_05_1300	Test	3.2.4	59.83743676		
Pictures/IA20_10_G95p.bmp	Pictures/IA20_10_G95p.bmp	Pictures/IA20.bmp	"Take a leap"	1	risk					5	0	5	0	0	0	0	19													2171.198728	None	2171.198728	None	2171.198728	None	left	1.400424336	2171.198728	None	2171.198728	None	2171.198728	None	return	2.048199421	2171.198728	None	2173.304289	None	2175.309595	2176.830279	2176.81356	None	2178.300821	None	1	2180.322843	None	2180.322843	None	2180.322843	None	2181.024686	None	2181.024686	2182.02733	2183.130251	None	2183.130251	None	left	2183.130251	None	2184.717775	None	None	None	0.564305883	1.548905397													114	1	18	0	2020_Feb_05_1300	Test	3.2.4	59.83743676		
Pictures/IA20_10_L95p.bmp	Pictures/IA20_10_L95p.bmp	Pictures/IA20.bmp	"Don't be tempted to gamble."""""	0	safe					5	0	5	0	0	1	1	7																															2185.135555	None	2187.157572	2188.678247	2188.66153	None	2190.165513	None	2	2192.187514	None	2192.187514	None	2192.187514	None	None	None	None	None	2192.839345	None	2192.839345	None	right	2192.839345	None	None	None	2192.906074	2194.844539	0.499642496	0.023769474													114	1	18	0	2020_Feb_05_1300	Test	3.2.4	59.83743676		
Pictures/IA25_L5.bmp	Pictures/IA25_L5.bmp	Pictures/IA25.bmp	"It would be smarter to choose the safe option."""""	0	safe					5	0	5	0	0	2	2	0																															2194.861245	None	2196.883249	2198.403933	2198.387237	None	2199.924617	None	2	2201.913225	None	2201.913225	None	2201.913225	None	None	None	None	None	2202.598363	None	2202.598363	None	right	2202.598363	None	None	None	2202.715335	2204.603646	0.517932348	0.072789382													114	1	18	0	2020_Feb_05_1300	Test	3.2.4	59.83743676		
Pictures/IA75_G45.bmp	Pictures/IA75_G45.bmp	Pictures/IA75.bmp	"Don't gamble for this one."""""	0	safe					5	0	5	0	0	3	3	1																															2204.620367	None	2206.642383	2208.163061	2208.146342	None	2209.650326	None	2	2211.672325	None	2211.672325	None	2211.672325	None	None	None	None	None	2212.257213	None	2212.257213	None	left	2212.257213	None	2212.340764	2214.245789	None	None	0.430837032	0.045930664													114	1	18	0	2020_Feb_05_1300	Test	3.2.4	59.83743676		
Pictures/IA40_20_G95p.bmp	Pictures/IA40_20_G95p.bmp	Pictures/IA40.bmp	"Hold back"	0	safe					5	0	5	0	0	4	4	2																															2214.262507	None	2216.284521	2217.805202	2217.788485	None	2219.309178	None	2	2221.314479	None	2221.314479	None	2221.314479	None	None	None	None	None	2222.751611	None	2222.751611	None	left	2222.751611	None	2224.606525	None	None	None	1.244690045	1.815544433													114	1	18	0	2020_Feb_05_1300	Test	3.2.4	59.83743676		
Pictures/IA50_G10.bmp	Pictures/IA50_G10.bmp	Pictures/IA50.bmp	"Go with the safe option here!"""""	0	safe					5	0	5	0	0	5	5	16																															2224.756895	None	2226.778902	2228.299585	2228.282888	None	2229.820272	None	2	2231.808872	None	2231.808872	None	2231.808872	None	None	None	None	None	2232.460593	None	2232.460593	None	right	2232.460593	None	None	None	2233.012046	2234.449177	0.470291338	0.506575886													114	1	18	0	2020_Feb_05_1300	Test	3.2.4	59.83743676		
Pictures/IA25_G15.bmp	Pictures/IA25_G15.bmp	Pictures/IA25.bmp	"I think you should take a gamble."""""	1	risk					5	0	5	0	0	6	6	8																															2234.465876	None	2236.487889	2238.008569	2237.991875	None	2239.495836	None	2	2241.517845	None	2241.517845	None	2241.517845	None	None	None	None	None	2242.136144	None	2242.136144	None	right	2242.136144	None	None	None	2242.403525	2244.141441	0.44132748	0.222999157													114	1	18	0	2020_Feb_05_1300	Test	3.2.4	59.83743676		
Pictures/IA80_40_L95p.bmp	Pictures/IA80_40_L95p.bmp	Pictures/IA80.bmp	"Let's stay with the certain option."""""	0	safe					5	0	5	0	0	7	7	5																															2244.158132	None	2246.180171	2247.700854	2247.684142	None	2249.188118	None	2	2251.210119	None	2251.210119	None	2251.210119	None	None	None	None	None	2251.644612	None	2251.644612	None	right	2251.644612	None	None	None	2251.744863	2253.649905	0.261034528	0.066542926													114	1	18	0	2020_Feb_05_1300	Test	3.2.4	59.83743676		
Pictures/IA75_L15.bmp	Pictures/IA75_L15.bmp	Pictures/IA75.bmp	"Trust me–gamble!"""""	1	risk					5	0	5	0	0	8	8	6																															2253.666606	None	2255.688618	2257.209303	2257.192602	None	2258.72999	None	2	2260.718585	None	2260.718585	None	2260.718585	None	None	None	None	None	2261.687812	None	2261.687812	None	right	2261.687812	None	None	None	2262.239267	2263.676385	0.784566344	0.511349399													114	1	18	0	2020_Feb_05_1300	Test	3.2.4	59.83743676		
Pictures/IA100_L20.bmp	Pictures/IA100_L20.bmp	Pictures/IA100.bmp	"Try to win as much money as you can"	1	risk					5	0	5	0	0	9	9	13																															2263.693106	None	2265.715115	2267.219078	2267.202383	None	2268.756489	None	2	2270.745063	None	2270.745063	None	2270.745063	None	None	None	None	None	2271.279826	None	2271.279826	None	right	2271.279826	None	None	None	2271.497059	2273.268394	0.358108029	0.175325221													114	1	18	0	2020_Feb_05_1300	Test	3.2.4	59.83743676		
Pictures/IA25_L15.bmp	Pictures/IA25_L15.bmp	Pictures/IA25.bmp	"There's not much on the line here"	1	risk					5	0	5	0	0	10	10	14																															2273.285117	None	2275.307124	2276.827834	2276.81111	None	2278.315075	None	1	2280.337077	None	2280.337077	None	2280.337077	None	2282.843697	None	2282.843697	2283.846341	2284.949262	None	2284.949262	None	right	2284.949262	None	None	None	2285.41717	2286.954579	2.34208399	0.425887359													114	1	18	0	2020_Feb_05_1300	Test	3.2.4	59.83743676		
Pictures/IA100_L40.bmp	Pictures/IA100_L40.bmp	Pictures/IA100.bmp	"Think of the payoff"	1	risk					5	0	5	0	0	11	11	3																															2286.971266	None	2288.993275	2290.51396	2290.497267	None	2292.034649	None	2	2294.023244	None	2294.023244	None	2294.023244	None	None	None	None	None	2294.491145	None	2294.491145	None	right	2294.491145	None	None	None	2294.725088	2296.496441	0.311916042	0.196002583													114	1	18	0	2020_Feb_05_1300	Test	3.2.4	59.83743676		
Pictures/IA80_40_G95p.bmp	Pictures/IA80_40_G95p.bmp	Pictures/IA80.bmp	"Think of the payoff"	1	risk					5	0	5	0	0	12	12	18																															2296.513142	None	2298.535151	2300.055837	2300.039141	None	2301.576519	None	2	2303.565122	None	2303.565122	None	2303.565122	None	None	None	None	None	2305.42001	None	2305.42001	None	left	2305.42001	None	2305.737514	2307.408595	None	None	1.738026708	0.283140678													114	1	18	0	2020_Feb_05_1300	Test	3.2.4	59.83743676		
Pictures/IA25_G10.bmp	Pictures/IA25_G10.bmp	Pictures/IA25.bmp	"What's life without a little risk?"""""	1	risk					5	0	5	0	0	13	13	9																															2307.425315	None	2309.447327	2310.968015	2310.951309	None	2312.488715	None	1	2314.477277	None	2314.477277	None	2314.477277	None	2316.432452	None	2316.432452	2317.435095	2318.538015	None	2318.538015	None	right	2318.538015	None	None	None	2319.991853	None	1.825884933	1.413142699													114	1	18	0	2020_Feb_05_1300	Test	3.2.4	59.83743676		
Pictures/IA50_L30.bmp	Pictures/IA50_L30.bmp	Pictures/IA50.bmp	"Take a leap"	1	risk					5	0	5	0	0	14	14	11																															2320.543297	None	2322.56531	2324.085992	2324.069298	None	2325.606681	None	2	2327.595278	None	2327.595278	None	2327.595278	None	None	None	None	None	2328.581218	None	2328.581218	None	right	2328.581218	None	None	None	2328.698189	2330.569797	0.811880071	0.073926972													114	1	18	0	2020_Feb_05_1300	Test	3.2.4	59.83743676		
Pictures/IA100_L80.bmp	Pictures/IA100_L80.bmp	Pictures/IA100.bmp	"Go all in!"""""	1	risk					5	0	5	0	0	15	15	4																															2330.586499	None	2332.608512	2334.129194	2334.112499	None	2335.633171	None	2	2337.63847	None	2337.63847	None	2337.63847	None	None	None	None	None	2338.357033	None	2338.357033	None	right	2338.357033	None	None	None	2338.641115	2340.345629	0.584690682	0.242124474													114	1	18	0	2020_Feb_05_1300	Test	3.2.4	59.83743676		
Pictures/IA50_L40.bmp	Pictures/IA50_L40.bmp	Pictures/IA50.bmp	"That gamble doesn't sound too good"	0	safe					5	0	5	0	0	16	16	12																															2340.362329	None	2342.384341	2343.905021	2343.888325	None	2345.409003	None	2	2347.414296	None	2347.414296	None	2347.414296	None	None	None	None	None	2348.366831	None	2348.366831	None	right	2348.366831	None	None	None	2348.533924	2350.372119	0.760862964	0.128311566													114	1	18	0	2020_Feb_05_1300	Test	3.2.4	59.83743676		
Pictures/IA100_G40.bmp	Pictures/IA100_G40.bmp	Pictures/IA100.bmp	"Try your luck and gamble!"""""	1	risk					5	0	5	0	0	17	17	15																															2350.388823	None	2352.410828	2353.931513	2353.914815	None	2355.418779	None	1	2357.4408	None	2357.4408	None	2357.4408	None	2359.045035	None	2359.045035	2360.047681	2361.184024	None	2361.184024	None	right	2361.184024	None	None	None	2362.186659	None	1.478357595	0.959121287													114	1	18	0	2020_Feb_05_1300	Test	3.2.4	59.83743676		
Pictures/IA100_G60.bmp	Pictures/IA100_G60.bmp	Pictures/IA100.bmp	"Be cautious"	0	safe					5	0	5	0	0	18	18	17																															2363.206028	None	2365.228041	2366.74872	2366.732004	None	2368.252697	None	2	2370.257998	None	2370.257998	None	2370.257998	None	None	None	None	None	2371.126962	None	2371.126962	None	left	2371.126962	None	2371.494583	2373.132253	None	None	0.669166818	0.328182656													114	1	18	0	2020_Feb_05_1300	Test	3.2.4	59.83743676		
Pictures/IA110_55_L95p.bmp	Pictures/IA110_55_L95p.bmp	Pictures/IA110.bmp	"Trust me"	1	risk					5	0	5	0	0	19	19	10																															2373.148953	None	2375.170964	2376.691646	2376.674951	None	2378.212335	None	2	2380.200939	None	2380.200939	None	2380.200939	None	None	None	None	None	2380.869371	None	2380.869371	None	right	2380.869371	None	None	None	2381.420821	2382.857939	0.502226851	0.505782976													114	1	18	0	2020_Feb_05_1300	Test	3.2.4	59.83743676		
										5	0	5	0																																																																									2383.025062	None	return	6.622069071	2383.025062	None	114	1	18	0	2020_Feb_05_1300	Test	3.2.4	59.83743676		
Pictures/IA100_G40.bmp	Pictures/IA100_G40.bmp	Pictures/IA100.bmp	"Try your luck and gamble!"""""	1	risk					6	0	6	0	0	0	0	15													2389.809658	None	2389.809658	None	2389.809658	None	right	2.861504413	2389.809658	None	2389.809658	None	2389.809658	None	return	3.941269056	2389.809658	None	2393.803527	None	2395.808836	2397.329519	2397.312801	None	2398.800067	None	1	2400.822083	None	2400.822083	None	2400.822083	None	2402.275914	None	2402.275914	2403.278559	2404.381481	None	2404.381481	None	right	2404.381481	None	None	None	2404.698979	2406.370073	1.329087896	0.273665821													114	1	18	0	2020_Feb_05_1300	Test	3.2.4	59.83743676		
Pictures/IA75_G60.bmp	Pictures/IA75_G60.bmp	Pictures/IA75.bmp	"Make it exciting"	1	risk					6	0	6	0	0	1	1	13																															2406.386783	None	2408.408793	2409.929476	2409.912761	None	2411.450161	None	2	2413.438746	None	2413.438746	None	2413.438746	None	None	None	None	None	2414.25758	None	2414.25758	None	left	2414.25758	None	2414.491519	2416.262877	None	None	0.632417938	0.189586383													114	1	18	0	2020_Feb_05_1300	Test	3.2.4	59.83743676		
Pictures/IA25_G10.bmp	Pictures/IA25_G10.bmp	Pictures/IA25.bmp	"What's life without a little risk?"""""	1	risk					6	0	6	0	0	2	2	14																															2416.279576	None	2418.301588	2419.822281	2419.805566	None	2421.326257	None	2	2423.331557	None	2423.331557	None	2423.331557	None	None	None	None	None	2425.002628	None	2425.002628	None	right	2425.002628	None	None	None	2425.303443	2426.991225	1.499599613	0.252525626													114	1	18	0	2020_Feb_05_1300	Test	3.2.4	59.83743676		
Pictures/IA110_55_L95p.bmp	Pictures/IA110_55_L95p.bmp	Pictures/IA110.bmp	"Trust me"	1	risk					6	0	6	0	0	3	3	1																															2427.007922	None	2429.029933	2430.550616	2430.53392	None	2432.037878	None	2	2434.059903	None	2434.059903	None	2434.059903	None	None	None	None	None	2434.477662	None	2434.477662	None	right	2434.477662	None	None	None	2434.577935	2436.482955	0.267249709	0.057492553													114	1	18	0	2020_Feb_05_1300	Test	3.2.4	59.83743676		
Pictures/IA25_G15.bmp	Pictures/IA25_G15.bmp	Pictures/IA25.bmp	"I think you should take a gamble."""""	1	risk					6	0	6	0	0	4	4	8																															2436.499676	None	2438.521687	2440.042373	2440.025658	None	2441.563058	None	2	2443.55164	None	2443.55164	None	2443.55164	None	None	None	None	None	2444.855092	None	2444.855092	None	right	2444.855092	None	None	None	2445.924567	None	1.135519456	1.024061923													114	1	18	0	2020_Feb_05_1300	Test	3.2.4	59.83743676		
Pictures/IA50_G30.bmp	Pictures/IA50_G30.bmp	Pictures/IA50.bmp	"I think you should gamble."""""	1	risk					6	0	6	0	0	5	5	3																															2446.877095	None	2448.899111	2450.41979	2450.403072	None	2451.940476	None	2	2453.929056	None	2453.929056	None	2453.929056	None	None	None	None	None	2454.530644	None	2454.530644	None	right	2454.530644	None	None	None	2454.764605	2456.535939	0.438107832	0.196506024													114	1	18	0	2020_Feb_05_1300	Test	3.2.4	59.83743676		
Pictures/IA40_20_L95p.bmp	Pictures/IA40_20_L95p.bmp	Pictures/IA40.bmp	"Trust me"	1	risk					6	0	6	0	0	6	6	0																															2456.552659	None	2458.57467	2460.095355	2460.078638	None	2461.632751	None	2	2463.60463	None	2463.60463	None	2463.60463	None	None	None	None	None	2463.872009	None	2463.872009	None	right	2463.872009	None	None	None	2464.189508	2465.860587	0.074528366	0.27113831													114	1	18	0	2020_Feb_05_1300	Test	3.2.4	59.83743676		
Pictures/IA75_L45.bmp	Pictures/IA75_L45.bmp	Pictures/IA75.bmp	"Don't gamble for this one"	0	safe					6	0	6	0	0	7	7	6																															2465.877287	None	2467.899299	2469.419984	2469.403285	None	2470.94067	None	2	2472.929269	None	2472.929269	None	2472.929269	None	None	None	None	None	2474.149157	None	2474.149157	None	right	2474.149157	None	None	None	2474.399815	2476.137745	1.037903248	0.201997894													114	1	18	0	2020_Feb_05_1300	Test	3.2.4	59.83743676		
Pictures/IA25_L20.bmp	Pictures/IA25_L20.bmp	Pictures/IA25.bmp	"Don't be tempted to gamble."""""	0	safe					6	0	6	0	0	8	8	17																															2476.154445	None	2478.176455	2479.697136	2479.680438	None	2481.217821	None	2	2483.206419	None	2483.206419	None	2483.206419	None	None	None	None	None	2483.941705	None	2483.941705	None	right	2483.941705	None	None	None	2484.242478	2485.94699	0.568746317	0.257445573													114	1	18	0	2020_Feb_05_1300	Test	3.2.4	59.83743676		
Pictures/IA100_G60.bmp	Pictures/IA100_G60.bmp	Pictures/IA100.bmp	"Be cautious"	0	safe					6	0	6	0	0	9	9	5																															2485.9637	None	2487.985701	2489.506386	2489.489691	None	2490.993653	None	1	2493.015671	None	2493.015671	None	2493.015671	None	2493.684098	None	2493.684098	2494.686744	2495.789657	None	2495.789657	None	left	2495.789657	None	2496.073737	2497.77825	None	None	0.527486585	0.249490059													114	1	18	0	2020_Feb_05_1300	Test	3.2.4	59.83743676		
Pictures/IA100_L40.bmp	Pictures/IA100_L40.bmp	Pictures/IA100.bmp	"Think of the payoff"	1	risk					6	0	6	0	0	10	10	18																															2497.794951	None	2499.816965	2501.33765	2501.320948	None	2502.858332	None	1	2504.846931	None	2504.846931	None	2504.846931	None	2505.281418	None	2505.281418	2506.284057	2507.386977	None	2507.386977	None	right	2507.386977	None	None	None	2507.721185	2509.392263	0.312222017	0.292171477													114	1	18	0	2020_Feb_05_1300	Test	3.2.4	59.83743676		
Pictures/IA50_G20.bmp	Pictures/IA50_G20.bmp	Pictures/IA50.bmp	"Let's venture and take a risk!"""""	1	risk					6	0	6	0	0	11	11	2																															2509.40898	None	2511.430999	2512.951706	2512.934956	None	2514.472364	None	1	2516.460941	None	2516.460941	None	2516.460941	None	2516.978984	None	2516.978984	2517.981631	2519.084551	None	2519.084551	None	left	2519.084551	None	2519.869954	2521.073131	None	None	0.394226403	0.738601148													114	1	18	0	2020_Feb_05_1300	Test	3.2.4	59.83743676		
Pictures/IA25_G5.bmp	Pictures/IA25_G5.bmp	Pictures/IA25.bmp	"Let's stay with the certain option."""""	0	safe					6	0	6	0	0	12	12	4																															2521.089833	None	2523.111844	2524.632527	2524.615833	None	2526.136503	None	2	2528.141803	None	2528.141803	None	2528.141803	None	None	None	None	None	2528.69326	None	2528.69326	None	right	2528.69326	None	None	None	2529.512088	2530.681852	0.369354537	0.777899906													114	1	18	0	2020_Feb_05_1300	Test	3.2.4	59.83743676		
Pictures/IA80_40_G95p.bmp	Pictures/IA80_40_G95p.bmp	Pictures/IA80.bmp	"Think of the payoff"	1	risk					6	0	6	0	0	13	13	12																															2530.698554	None	2532.720563	2534.241249	2534.224553	None	2535.728514	None	1	2537.750536	None	2537.750536	None	2537.750536	None	2538.435666	None	2538.435666	2539.438313	2540.541233	None	2540.541233	None	left	2540.541233	None	2540.892156	2542.52983	None	None	0.560632379	1.24990516													114	1	18	0	2020_Feb_05_1300	Test	3.2.4	59.83743676		
Pictures/IA100_G20.bmp	Pictures/IA100_G20.bmp	Pictures/IA100.bmp	"Go ahead and gamble!"""""	1	risk					6	0	6	0	0	14	14	16																															2542.546531	None	2544.568542	2546.089221	2546.07253	None	2547.609938	None	1	2549.598505	None	2549.598505	None	2549.598505	None	2551.102469	None	2551.102469	2552.105116	2553.208033	None	2553.208033	None	None	2553.208033	None	None	None	None	None	1.392655112														114	1	18	0	2020_Feb_05_1300	Test	3.2.4	59.83743676		
Pictures/IA40_20_G95p.bmp	Pictures/IA40_20_G95p.bmp	Pictures/IA40.bmp	"Hold back"	0	safe					6	0	6	0	0	15	15	19																															2555.213327	None	2557.235338	2558.756021	2558.739325	None	2560.276711	None	2	2562.265308	None	2562.265308	None	2562.265308	None	None	None	None	None	2563.685728	None	2563.685728	None	left	2563.685728	None	2564.036655	2565.6743	None	None	1.245854408	0.313420585													114	1	18	0	2020_Feb_05_1300	Test	3.2.4	59.83743676		
Pictures/IA75_G15.bmp	Pictures/IA75_G15.bmp	Pictures/IA75.bmp	"Take a chance!"""""	1	risk					6	0	6	0	0	16	16	10																															2565.691021	None	2567.713033	2569.233715	2569.217001	None	2570.754401	None	1	2572.74298	None	2572.74298	None	2572.74298	None	2573.795761	None	2573.795761	2574.798405	2575.90133	None	2575.90133	None	right	2575.90133	None	None	None	2576.235549	2577.889918	0.952178772	0.297807866													114	1	18	0	2020_Feb_05_1300	Test	3.2.4	59.83743676		
Pictures/IA100_L60.bmp	Pictures/IA100_L60.bmp	Pictures/IA100.bmp	"You'd have a lot to lose"	0	safe					6	0	6	0	0	17	17	9																															2577.906621	None	2579.928631	2581.449313	2581.432618	None	2582.970012	None	2	2584.958606	None	2584.958606	None	2584.958606	None	None	None	None	None	2585.944529	None	2585.944529	None	right	2585.944529	None	None	None	2586.345596	2587.949835	0.800540979	0.366618328													114	1	18	0	2020_Feb_05_1300	Test	3.2.4	59.83743676		
Pictures/IA50_L20.bmp	Pictures/IA50_L20.bmp	Pictures/IA50.bmp	"Certainty is boring"	1	risk					6	0	6	0	0	18	18	7																															2587.966535	None	2589.988544	2591.509226	2591.492535	None	2593.029918	None	2	2595.018514	None	2595.018514	None	2595.018514	None	None	None	None	None	2595.436286	None	2595.436286	None	right	2595.436286	None	None	None	2595.653522	2597.424856	0.244658691	0.178859794													114	1	18	0	2020_Feb_05_1300	Test	3.2.4	59.83743676		
Pictures/IA25_G20.bmp	Pictures/IA25_G20.bmp	Pictures/IA25.bmp	"I wouldn't gamble for this one. """""	0	safe					6	0	6	0	0	19	19	11																															2597.44158	None	2599.46359	2600.98428	2600.967571	None	2602.50496	None	1	2604.493539	None	2604.493539	None	2604.493539	None	2604.827765	None	2604.827765	2605.830409	2606.933328	None	2606.933328	None	left	2606.933328	None	2607.568362	2608.921915	None	None	0.193616936	0.585821111													114	1	18	0	2020_Feb_05_1300	Test	3.2.4	59.83743676		
										6	0	6	0																																																																									2609.105724	None	return	1.941427677	2609.105724	None	114	1	18	0	2020_Feb_05_1300	Test	3.2.4	59.83743676		
Pictures/IA25_G20.bmp	Pictures/IA25_G20.bmp	Pictures/IA25.bmp	"I wouldn't gamble for this one. """""	0	safe					7	0	7	0	0	0	0	10													2611.211293	None	2611.211293	None	2611.211293	None	left	1.059856159	2611.211293	None	2611.211293	None	2611.211293	None	return	2.10763155	2611.211293	None	2613.366947	None	2615.388994	2616.909674	2616.892977	None	2618.380239	None	2	2620.402239	None	2620.402239	None	2620.402239	None	None	None	None	None	2621.338055	None	2621.338055	None	left	2621.338055	None	2621.605414	2623.343337	None	None	0.732910657	0.229097535													114	1	18	0	2020_Feb_05_1300	Test	3.2.4	59.83743676		
Pictures/IA100_G20.bmp	Pictures/IA100_G20.bmp	Pictures/IA100.bmp	"Go ahead and gamble!"""""	1	risk					7	0	7	0	0	1	1	2																															2623.360061	None	2625.382077	2626.902753	2626.886037	None	2628.390022	None	2	2630.412019	None	2630.412019	None	2630.412019	None	None	None	None	None	2630.879924	None	2630.879924	None	right	2630.879924	None	None	None	2630.963484	2632.868515	0.307142987	0.047218934													114	1	18	0	2020_Feb_05_1300	Test	3.2.4	59.83743676		
Pictures/IA75_G45.bmp	Pictures/IA75_G45.bmp	Pictures/IA75.bmp	"Don't gamble for this one."""""	0	safe					7	0	7	0	0	2	2	12																															2632.885216	None	2634.907227	2636.427911	2636.411214	None	2637.931887	None	2	2639.937188	None	2639.937188	None	2639.937188	None	None	None	None	None	2641.0234	None	2641.0234	None	right	2641.0234	None	None	None	2642.259989	None	0.925969606	1.199720513													114	1	18	0	2020_Feb_05_1300	Test	3.2.4	59.83743676		
Pictures/IA50_G20.bmp	Pictures/IA50_G20.bmp	Pictures/IA50.bmp	"Let's venture and take a risk!"""""	1	risk					7	0	7	0	0	3	3	19																															2643.0454	None	2645.067406	2646.58809	2646.571392	None	2648.075355	None	2	2650.097382	None	2650.097382	None	2650.097382	None	None	None	None	None	2650.882785	None	2650.882785	None	left	2650.882785	None	2651.049878	2652.888078	None	None	0.613777216	0.124372638													114	1	18	0	2020_Feb_05_1300	Test	3.2.4	59.83743676		
Pictures/IA50_G10.bmp	Pictures/IA50_G10.bmp	Pictures/IA50.bmp	"Go with the safe option here!"""""	0	safe					7	0	7	0	0	4	4	13																															2652.904781	None	2654.926795	2656.447474	2656.43078	None	2657.968172	None	2	2659.956771	None	2659.956771	None	2659.956771	None	None	None	None	None	2660.742171	None	2660.742171	None	right	2660.742171	None	None	None	2660.992835	2662.730757	0.602378223	0.208987018													114	1	18	0	2020_Feb_05_1300	Test	3.2.4	59.83743676		
Pictures/IA75_G15.bmp	Pictures/IA75_G15.bmp	Pictures/IA75.bmp	"Take a chance!"""""	1	risk					7	0	7	0	0	5	5	17																															2662.747452	None	2664.769466	2666.290146	2666.273455	None	2667.777417	None	2	2669.799433	None	2669.799433	None	2669.799433	None	None	None	None	None	2670.217194	None	2670.217194	None	right	2670.217194	None	None	None	2670.334164	2672.205776	0.255729734	0.077957089													114	1	18	0	2020_Feb_05_1300	Test	3.2.4	59.83743676		
Pictures/IA20_10_G95p.bmp	Pictures/IA20_10_G95p.bmp	Pictures/IA20.bmp	"Take a leap"	1	risk					7	0	7	0	0	6	6	15																															2672.222498	None	2674.244509	2675.765193	2675.748479	None	2677.28588	None	2	2679.27446	None	2679.27446	None	2679.27446	None	None	None	None	None	2680.394085	None	2680.394085	None	left	2680.394085	None	2680.561201	2682.399379	None	None	0.940687634	0.117064978													114	1	18	0	2020_Feb_05_1300	Test	3.2.4	59.83743676		
Pictures/IA50_L40.bmp	Pictures/IA50_L40.bmp	Pictures/IA50.bmp	"That gamble doesn't sound too good"	0	safe					7	0	7	0	0	7	7	6																															2682.416099	None	2684.438114	2685.958808	2685.942075	None	2687.47948	None	1	2689.468063	None	2689.468063	None	2689.468063	None	2690.721382	None	2690.721382	2691.724025	2692.826948	None	2692.826948	None	left	2692.826948	None	2694.280782	None	None	None	1.099093919	1.412199409													114	1	18	0	2020_Feb_05_1300	Test	3.2.4	59.83743676		
Pictures/IA110_55_G95p.bmp	Pictures/IA110_55_G95p.bmp	Pictures/IA110.bmp	"Take a chance!"""""	1	risk					7	0	7	0	0	8	8	3																															2694.832235	None	2696.854236	2698.374923	2698.358225	None	2699.89561	None	2	2701.884209	None	2701.884209	None	2701.884209	None	None	None	None	None	2702.4858	None	2702.4858	None	left	2702.4858	None	2702.753159	2704.47437	None	None	0.442951363	0.217341682													114	1	18	0	2020_Feb_05_1300	Test	3.2.4	59.83743676		
Pictures/IA75_G60.bmp	Pictures/IA75_G60.bmp	Pictures/IA75.bmp	"Make it exciting"	1	risk					7	0	7	0	0	9	9	8																															2704.491097	None	2706.513104	2708.033786	2708.017069	None	2709.554473	None	2	2711.543052	None	2711.543052	None	2711.543052	None	None	None	None	None	2712.027666	None	2712.027666	None	left	2712.027666	None	2712.161363	2714.032977	None	None	0.304109423	0.091490242													114	1	18	0	2020_Feb_05_1300	Test	3.2.4	59.83743676		
Pictures/IA40_20_L95p.bmp	Pictures/IA40_20_L95p.bmp	Pictures/IA40.bmp	"Trust me"	1	risk					7	0	7	0	0	10	10	18																															2714.049634	None	2716.071681	2717.592373	2717.57567	None	2719.096345	None	1	2721.101644	None	2721.101644	None	2721.101644	None	2722.020738	None	2722.020738	2723.023385	2724.126302	None	2724.126302	None	right	2724.126302	None	None	None	2725.162379	None	0.817513757	0.992861071													114	1	18	0	2020_Feb_05_1300	Test	3.2.4	59.83743676		
Pictures/IA100_L20.bmp	Pictures/IA100_L20.bmp	Pictures/IA100.bmp	"Try to win as much money as you can"	1	risk					7	0	7	0	0	11	11	9																															2726.148319	None	2728.170326	2729.69101	2729.674291	None	2731.194986	None	2	2733.200287	None	2733.200287	None	2733.200287	None	None	None	None	None	2733.868718	None	2733.868718	None	right	2733.868718	None	None	None	2734.152802	2735.857292	0.478870017	0.234444772													114	1	18	0	2020_Feb_05_1300	Test	3.2.4	59.83743676		
Pictures/IA75_G30.bmp	Pictures/IA75_G30.bmp	Pictures/IA75.bmp	"Be bold"	1	risk					7	0	7	0	0	12	12	4																															2735.874044	None	2737.896024	2739.416708	2739.39999	None	2740.920684	None	2	2742.925983	None	2742.925983	None	2742.925983	None	None	None	None	None	2743.494149	None	2743.494149	None	left	2743.494149	None	2743.627823	2745.499445	None	None	0.417177226	0.097000129													114	1	18	0	2020_Feb_05_1300	Test	3.2.4	59.83743676		
Pictures/IA110_55_L95p.bmp	Pictures/IA110_55_L95p.bmp	Pictures/IA110.bmp	"Trust me"	1	risk					7	0	7	0	0	13	13	16																															2745.516146	None	2747.538157	2749.058839	2749.042145	None	2750.579527	None	2	2752.568128	None	2752.568128	None	2752.568128	None	None	None	None	None	2753.23656	None	2753.23656	None	right	2753.23656	None	None	None	2753.403655	2755.241846	0.479028232	0.122594955													114	1	18	0	2020_Feb_05_1300	Test	3.2.4	59.83743676		
Pictures/IA20_10_L95p.bmp	Pictures/IA20_10_L95p.bmp	Pictures/IA20.bmp	"Don't be tempted to gamble."""""	0	safe					7	0	7	0	0	14	14	14																															2755.258567	None	2757.280574	2758.80126	2758.784543	None	2760.321947	None	2	2762.310525	None	2762.310525	None	2762.310525	None	None	None	None	None	2762.945535	None	2762.945535	None	right	2762.945535	None	None	None	2763.196196	2764.93413	0.472632641	0.205629116													114	1	18	0	2020_Feb_05_1300	Test	3.2.4	59.83743676		
Pictures/IA25_G15.bmp	Pictures/IA25_G15.bmp	Pictures/IA25.bmp	"I think you should take a gamble."""""	1	risk					7	0	7	0	0	15	15	7																															2764.95083	None	2766.972843	2768.493523	2768.476828	None	2770.014211	None	2	2772.002812	None	2772.002812	None	2772.002812	None	None	None	None	None	2772.470703	None	2772.470703	None	right	2772.470703	None	None	None	2772.604398	2774.476009	0.292346105	0.096440449													114	1	18	0	2020_Feb_05_1300	Test	3.2.4	59.83743676		
Pictures/IA50_L30.bmp	Pictures/IA50_L30.bmp	Pictures/IA50.bmp	"Take a leap"	1	risk					7	0	7	0	0	16	16	11																															2774.492707	None	2776.514725	2778.035402	2778.018707	None	2779.556093	None	2	2781.544691	None	2781.544691	None	2781.544691	None	None	None	None	None	2782.246536	None	2782.246536	None	right	2782.246536	None	None	None	2782.43035	2784.235127	0.526468353	0.144617991													114	1	18	0	2020_Feb_05_1300	Test	3.2.4	59.83743676		
Pictures/IA80_40_L95p.bmp	Pictures/IA80_40_L95p.bmp	Pictures/IA80.bmp	"Let's stay with the certain option."""""	0	safe					7	0	7	0	0	17	17	0																															2784.251829	None	2786.273839	2787.777822	2787.761104	None	2789.298498	None	2	2791.303798	None	2791.303798	None	2791.303798	None	None	None	None	None	2792.089213	None	2792.089213	None	right	2792.089213	None	None	None	2792.490279	2794.077801	0.61536184	0.35794592													114	1	18	0	2020_Feb_05_1300	Test	3.2.4	59.83743676		
Pictures/IA25_L5.bmp	Pictures/IA25_L5.bmp	Pictures/IA25.bmp	"It would be smarter to choose the safe option."""""	0	safe					7	0	7	0	0	18	18	1																															2794.094501	None	2796.116515	2797.637197	2797.6205	None	2799.157886	None	2	2801.146482	None	2801.146482	None	2801.146482	None	None	None	None	None	2802.266096	None	2802.266096	None	right	2802.266096	None	None	None	2802.667166	2804.271404	0.93267802	0.365047706													114	1	18	0	2020_Feb_05_1300	Test	3.2.4	59.83743676		
Pictures/IA80_40_G95p.bmp	Pictures/IA80_40_G95p.bmp	Pictures/IA80.bmp	"Think of the payoff"	1	risk					7	0	7	0	0	19	19	5																															2804.288101	None	2806.310113	2807.830797	2807.814099	None	2809.351484	None	2	2811.340083	None	2811.340083	None	2811.340083	None	None	None	None	None	2812.125481	None	2812.125481	None	left	2812.125481	None	2812.626812	2814.114071	None	None	0.619094149	0.457675													114	1	18	0	2020_Feb_05_1300	Test	3.2.4	59.83743676		
										7	0	7	0																																																																									2814.281188	None	return	4.365953558	2814.281188	None	114	1	18	0	2020_Feb_05_1300	Test	3.2.4	59.83743676		
Pictures/IA100_L20.bmp	Pictures/IA100_L20.bmp	Pictures/IA100.bmp	"Try to win as much money as you can"	1	risk					8	0	8	0	0	0	0	3													2818.809778	None	2818.809778	None	2818.809778	None	left	1.165380479	2818.809778	None	2818.809778	None	2818.809778	None	return	1.765161318	2818.809778	None	2820.6313	None	2822.636589	2824.157268	2824.140586	None	2825.644549	None	2	2827.649848	None	2827.649848	None	2827.649848	None	None	None	None	None	2828.685915	None	2828.685915	None	right	2828.685915	None	None	None	2829.203946	2830.674497	0.84531094	0.473234222													114	1	18	0	2020_Feb_05_1300	Test	3.2.4	59.83743676		
Pictures/IA40_20_L95p.bmp	Pictures/IA40_20_L95p.bmp	Pictures/IA40.bmp	"Trust me"	1	risk					8	0	8	0	0	1	1	12																															2830.691201	None	2832.713208	2834.233893	2834.217197	None	2835.737868	None	2	2837.743187	None	2837.743187	None	2837.743187	None	None	None	None	None	2838.144232	None	2838.144232	None	right	2838.144232	None	None	None	2838.311345	2840.149541	0.247969471	0.126928593													114	1	18	0	2020_Feb_05_1300	Test	3.2.4	59.83743676		
Pictures/IA50_G30.bmp	Pictures/IA50_G30.bmp	Pictures/IA50.bmp	"I think you should gamble."""""	1	risk					8	0	8	0	0	2	2	15																															2840.166244	None	2842.188256	2843.708938	2843.692223	None	2845.212918	None	2	2847.218216	None	2847.218216	None	2847.218216	None	None	None	None	None	2848.103881	None	2848.103881	None	right	2848.103881	None	None	None	2848.287694	2850.092475	0.724941398	0.135270133													114	1	18	0	2020_Feb_05_1300	Test	3.2.4	59.83743676		
Pictures/IA25_G15.bmp	Pictures/IA25_G15.bmp	Pictures/IA25.bmp	"I think you should take a gamble."""""	1	risk					8	0	8	0	0	3	3	1																															2850.109183	None	2852.131201	2853.651877	2853.635166	None	2855.139147	None	2	2857.161142	None	2857.161142	None	2857.161142	None	None	None	None	None	2857.629058	None	2857.629058	None	right	2857.629058	None	None	None	2857.796155	2859.634353	0.286024263	0.12209753													114	1	18	0	2020_Feb_05_1300	Test	3.2.4	59.83743676		
Pictures/IA75_L30.bmp	Pictures/IA75_L30.bmp	Pictures/IA75.bmp	"Hold back"	0	safe					8	0	8	0	0	4	4	10																															2859.651057	None	2861.673063	2863.193746	2863.177048	None	2864.69772	None	2	2866.703021	None	2866.703021	None	2866.703021	None	None	None	None	None	2867.221057	None	2867.221057	None	right	2867.221057	None	None	None	2867.488441	2869.226363	0.33614606	0.218092278													114	1	18	0	2020_Feb_05_1300	Test	3.2.4	59.83743676		
Pictures/IA20_10_G95p.bmp	Pictures/IA20_10_G95p.bmp	Pictures/IA20.bmp	"Take a leap"	1	risk					8	0	8	0	0	5	5	13																															2869.243061	None	2871.265075	2872.785757	2872.769061	None	2874.273021	None	1	2876.295047	None	2876.295047	None	2876.295047	None	2878.049683	None	2878.049683	2879.052323	2880.155245	None	2880.155245	None	right	2880.155245	None	None	None	2880.65655	2882.160536	1.608119574	0.459907999													114	1	18	0	2020_Feb_05_1300	Test	3.2.4	59.83743676		
Pictures/IA100_G20.bmp	Pictures/IA100_G20.bmp	Pictures/IA100.bmp	"Go ahead and gamble!"""""	1	risk					8	0	8	0	0	6	6	18																															2882.17724	None	2884.199253	2885.719944	2885.703243	None	2887.223923	None	1	2889.229215	None	2889.229215	None	2889.229215	None	2889.847517	None	2889.847517	2890.850163	2891.953095	None	2891.953095	None	right	2891.953095	None	None	None	2892.370849	2893.941654	0.529941979	0.382043936													114	1	18	0	2020_Feb_05_1300	Test	3.2.4	59.83743676		
Pictures/IA50_L40.bmp	Pictures/IA50_L40.bmp	Pictures/IA50.bmp	"That gamble doesn't sound too good"	0	safe					8	0	8	0	0	7	7	0																															2893.958389	None	2895.980389	2897.501072	2897.484355	None	2899.005053	None	2	2901.010347	None	2901.010347	None	2901.010347	None	None	None	None	None	2901.595226	None	2901.595226	None	right	2901.595226	None	None	None	2901.728898	2903.600513	0.316804387	0.099931631													114	1	18	0	2020_Feb_05_1300	Test	3.2.4	59.83743676		
Pictures/IA50_G10.bmp	Pictures/IA50_G10.bmp	Pictures/IA50.bmp	"Go with the safe option here!"""""	0	safe					8	0	8	0	0	8	8	2																															2903.617232	None	2905.639237	2907.159928	2907.14321	None	2908.647193	None	2	2910.669194	None	2910.669194	None	2910.669194	None	None	None	None	None	2911.070251	None	2911.070251	None	right	2911.070251	None	None	None	2911.237365	2913.075544	0.249966344	0.128899048													114	1	18	0	2020_Feb_05_1300	Test	3.2.4	59.83743676		
Pictures/IA25_L15.bmp	Pictures/IA25_L15.bmp	Pictures/IA25.bmp	"There's not much on the line here"	1	risk					8	0	8	0	0	9	9	5																															2913.092274	None	2915.114278	2916.63496	2916.618245	None	2918.138941	None	1	2920.144236	None	2920.144236	None	2920.144236	None	2921.430969	None	2921.430969	2922.433614	2923.536538	None	2923.536538	None	right	2923.536538	None	None	None	2923.904122	2925.54183	1.142925895	0.31861692													114	1	18	0	2020_Feb_05_1300	Test	3.2.4	59.83743676		
Pictures/IA110_55_G95p.bmp	Pictures/IA110_55_G95p.bmp	Pictures/IA110.bmp	"Take a chance!"""""	1	risk					8	0	8	0	0	10	10	9																															2925.558528	None	2927.580557	2929.101226	2929.084526	None	2930.588494	None	2	2932.61051	None	2932.61051	None	2932.61051	None	None	None	None	None	2933.078414	None	2933.078414	None	left	2933.078414	None	2933.312352	2935.066996	None	None	0.308650467	0.192738049													114	1	18	0	2020_Feb_05_1300	Test	3.2.4	59.83743676		
Pictures/IA80_40_L95p.bmp	Pictures/IA80_40_L95p.bmp	Pictures/IA80.bmp	"Let's stay with the certain option."""""	0	safe					8	0	8	0	0	11	11	8																															2935.083696	None	2937.105716	2938.626391	2938.609701	None	2940.113663	None	1	2942.135679	None	2942.135679	None	2942.135679	None	2942.870943	None	2942.870943	2943.873592	2944.976509	None	2944.976509	None	right	2944.976509	None	None	None	2945.410994	2946.981814	0.591487595	0.390638242													114	1	18	0	2020_Feb_05_1300	Test	3.2.4	59.83743676		
Pictures/IA25_G20.bmp	Pictures/IA25_G20.bmp	Pictures/IA25.bmp	"I wouldn't gamble for this one. """""	0	safe					8	0	8	0	0	12	12	7																															2946.998522	None	2949.020532	2950.541217	2950.524498	None	2952.04519	None	2	2954.050455	None	2954.050455	None	2954.050455	None	None	None	None	None	2954.852603	None	2954.852603	None	right	2954.852603	None	None	None	2955.036416	2956.84119	0.628700509	0.138561425													114	1	18	0	2020_Feb_05_1300	Test	3.2.4	59.83743676		
Pictures/IA75_G45.bmp	Pictures/IA75_G45.bmp	Pictures/IA75.bmp	"Don't gamble for this one."""""	0	safe					8	0	8	0	0	13	13	17																															2956.857911	None	2958.879923	2960.4006	2960.38389	None	2961.904577	None	2	2963.909876	None	2963.909876	None	2963.909876	None	None	None	None	None	2964.511467	None	2964.511467	None	left	2964.511467	None	2964.661858	2966.500041	None	None	0.441287341	0.103687582													114	1	18	0	2020_Feb_05_1300	Test	3.2.4	59.83743676		
Pictures/IA50_L20.bmp	Pictures/IA50_L20.bmp	Pictures/IA50.bmp	"Certainty is boring"	1	risk					8	0	8	0	0	14	14	6																															2966.516761	None	2968.538771	2970.059457	2970.042738	None	2971.563431	None	2	2973.585443	None	2973.585443	None	2973.585443	None	None	None	None	None	2974.103468	None	2974.103468	None	right	2974.103468	None	None	None	2974.22044	2976.092054	0.36572234	0.071690475													114	1	18	0	2020_Feb_05_1300	Test	3.2.4	59.83743676		
Pictures/IA50_G40.bmp	Pictures/IA50_G40.bmp	Pictures/IA50.bmp	"It would probably be best to play it safe."""""	0	safe					8	0	8	0	0	15	15	11																															2976.108794	None	2978.130801	2979.651491	2979.634777	None	2981.155445	None	2	2983.160742	None	2983.160742	None	2983.160742	None	None	None	None	None	2983.929445	None	2983.929445	None	left	2983.929445	None	2984.046376	2985.918013	None	None	0.56642423	0.077697492													114	1	18	0	2020_Feb_05_1300	Test	3.2.4	59.83743676		
Pictures/IA75_L60.bmp	Pictures/IA75_L60.bmp	Pictures/IA75.bmp	"Why not take the gamble?"""""	1	risk					8	0	8	0	0	16	16	4																															2985.934734	None	2987.95677	2989.47743	2989.46071	None	2990.981405	None	2	2992.986706	None	2992.986706	None	2992.986706	None	None	None	None	None	2993.855669	None	2993.855669	None	right	2993.855669	None	None	None	2994.423823	2995.860963	0.716452052	0.519507457													114	1	18	0	2020_Feb_05_1300	Test	3.2.4	59.83743676		
Pictures/IA100_L60.bmp	Pictures/IA100_L60.bmp	Pictures/IA100.bmp	"You'd have a lot to lose"	0	safe					8	0	8	0	0	17	17	16																															2995.877663	None	2997.899674	2999.420357	2999.403661	None	3000.924331	None	2	3002.929635	None	3002.929635	None	3002.929635	None	None	None	None	None	3004.634147	None	3004.634147	None	right	3004.634147	None	None	None	3005.920877	None	1.533516011	1.245003388													114	1	18	0	2020_Feb_05_1300	Test	3.2.4	59.83743676		
Pictures/IA75_G30.bmp	Pictures/IA75_G30.bmp	Pictures/IA75.bmp	"Be bold"	1	risk					8	0	8	0	0	18	18	14																															3006.639441	None	3008.661453	3010.182135	3010.165418	None	3011.669401	None	1	3013.691403	None	3013.691403	None	3013.691403	None	3014.142594	None	3014.142594	3015.145238	3016.248159	None	3016.248159	None	right	3016.248159	None	None	None	3016.615803	3018.25345	0.339764586	0.326989359													114	1	18	0	2020_Feb_05_1300	Test	3.2.4	59.83743676		
Pictures/IA75_L45.bmp	Pictures/IA75_L45.bmp	Pictures/IA75.bmp	"Don't gamble for this one"	0	safe					8	0	8	0	0	19	19	19																															3018.270172	None	3020.308895	3021.812855	3021.796176	None	3023.316835	None	2	3025.322134	None	3025.322134	None	3025.322134	None	None	None	None	None	3027.728507	None	3027.728507	None	right	3027.728507	None	None	None	3028.012586	3029.717075	2.229058757	0.238651253													114	1	18	0	2020_Feb_05_1300	Test	3.2.4	59.83743676		
										8	0	8	0																																																																									3029.884196	None	return	3.402943753	3029.884196	None	114	1	18	0	2020_Feb_05_1300	Test	3.2.4	59.83743676		
Pictures/IA100_G80.bmp	Pictures/IA100_G80.bmp	Pictures/IA100.bmp	"Why not gamble?"""""	1	risk					9	0	9	0	0	0	0	19													3033.443596	None	3033.443596	None	3033.443596	None	left	1.29954675	3033.443596	None	3033.443596	None	3033.443596	None	return	1.795331925	3033.443596	None	3035.298509	None	3037.303793	3038.824472	3038.807775	None	3040.311748	None	2	3042.317048	None	3042.317048	None	3042.317048	None	None	None	None	None	3043.520229	None	3043.520229	None	left	3043.520229	None	3043.821007	3045.508798	None	None	1.042109813	0.254919638													114	1	18	0	2020_Feb_05_1300	Test	3.2.4	59.83743676		
Pictures/IA25_G20.bmp	Pictures/IA25_G20.bmp	Pictures/IA25.bmp	"I wouldn't gamble for this one. """""	0	safe					9	0	9	0	0	1	1	12																															3045.525541	None	3047.547532	3049.068215	3049.051497	None	3050.572192	None	2	3052.577493	None	3052.577493	None	3052.577493	None	None	None	None	None	3053.195788	None	3053.195788	None	left	3053.195788	None	3053.379597	3055.184376	None	None	0.421669321	0.147364799													114	1	18	0	2020_Feb_05_1300	Test	3.2.4	59.83743676		
Pictures/IA50_L30.bmp	Pictures/IA50_L30.bmp	Pictures/IA50.bmp	"Take a leap"	1	risk					9	0	9	0	0	2	2	7																															3055.201075	None	3057.223094	3058.743771	3058.727089	None	3060.231038	None	2	3062.253057	None	3062.253057	None	3062.253057	None	None	None	None	None	3062.720994	None	3062.720994	None	right	3062.720994	None	None	None	3063.322569	3064.709545	0.274110098	0.558147426													114	1	18	0	2020_Feb_05_1300	Test	3.2.4	59.83743676		
Pictures/IA50_G10.bmp	Pictures/IA50_G10.bmp	Pictures/IA50.bmp	"Go with the safe option here!"""""	0	safe					9	0	9	0	0	3	3	2																															3064.726249	None	3066.748254	3068.26894	3068.252241	None	3069.772915	None	2	3071.778215	None	3071.778215	None	3071.778215	None	None	None	None	None	3072.931265	None	3072.931265	None	right	3072.931265	None	None	None	3073.633123	3074.919846	0.972946816	0.667874977													114	1	18	0	2020_Feb_05_1300	Test	3.2.4	59.83743676		
Pictures/IA100_L60.bmp	Pictures/IA100_L60.bmp	Pictures/IA100.bmp	"You'd have a lot to lose"	0	safe					9	0	9	0	0	4	4	18																															3074.936566	None	3076.958587	3078.462541	3078.445842	None	3079.966536	None	1	3081.988529	None	3081.988529	None	3081.988529	None	3082.623547	None	3082.623547	3083.626194	3084.729114	None	3084.729114	None	None	3084.729114	None	None	None	None	None	0.490630214														114	1	18	0	2020_Feb_05_1300	Test	3.2.4	59.83743676		
Pictures/IA75_L60.bmp	Pictures/IA75_L60.bmp	Pictures/IA75.bmp	"Why not take the gamble?"""""	1	risk					9	0	9	0	0	5	5	13																															3086.734407	None	3088.75642	3090.277099	3090.260383	None	3091.76437	None	2	3093.786367	None	3093.786367	None	3093.786367	None	None	None	None	None	3094.471518	None	3094.471518	None	left	3094.471518	None	3094.772305	3096.476814	None	None	0.524797476	0.263630069													114	1	18	0	2020_Feb_05_1300	Test	3.2.4	59.83743676		
Pictures/IA50_L40.bmp	Pictures/IA50_L40.bmp	Pictures/IA50.bmp	"That gamble doesn't sound too good"	0	safe					9	0	9	0	0	6	6	16																															3096.493515	None	3098.51553	3100.036215	3100.019516	None	3101.556897	None	2	3103.545495	None	3103.545495	None	3103.545495	None	None	None	None	None	3104.213931	None	3104.213931	None	right	3104.213931	None	None	None	3104.464588	3106.202511	0.469668015	0.209224028													114	1	18	0	2020_Feb_05_1300	Test	3.2.4	59.83743676		
Pictures/IA110_55_G95p.bmp	Pictures/IA110_55_G95p.bmp	Pictures/IA110.bmp	"