Choice,Choice2,Amount,AdviceVar1,GambleAdviceNum,GambleAdviceType,practice.thisRepN,practice.thisTrialN,practice.thisN,practice.thisIndex,trials_2.thisRepN,trials_2.thisTrialN,trials_2.thisN,trials_2.thisIndex,trials.thisRepN,trials.thisTrialN,trials.thisN,trials.thisIndex,text.started,text.stopped,key_resp_4.keys,key_resp_4.rt,key_resp_4.started,key_resp_4.stopped,instructions.started,instructions.stopped,space.keys,space.rt,space.started,space.stopped,chooseInst.started,chooseInst.stopped,Ad1.started,Ad1.stopped,Ad2.started,Ad2.stopped,key_resp_3.keys,key_resp_3.rt,key_resp_3.started,key_resp_3.stopped,Ad1pic.started,Ad1pic.stopped,Ad2pic.started,Ad2pic.stopped,enter.keys,enter.rt,enter.started,enter.stopped,iSi.started,iSi.stopped,receiveMoneyPicture.started,receiveMoneyPicture.stopped,ISI2.started,ISI2.stopped,ChoicePic.started,ChoicePic.stopped,response.keys,response.rt,response.started,response.stopped,yesNo.started,yesNo.stopped,ask.started,ask.stopped,getAdv.started,getAdv.stopped,textForCode.started,textForCode.stopped,blank.started,blank.stopped,ChoicePic2.started,ChoicePic2.stopped,resp.keys,resp.started,resp.stopped,checkL1.started,checkL1.stopped,checkR1.started,checkR1.stopped,resp.rt,EndPrac.started,EndPrac.stopped,key_resp.keys,key_resp.rt,key_resp.started,key_resp.stopped,endText.started,endText.stopped,key_resp_2.keys,key_resp_2.rt,key_resp_2.started,key_resp_2.stopped,participant,session,age,gender (0=male, 1 = female, 2 = other),date,expName,psychopyVersion,frameRate,
,,,,,,,,,,,,,,,,,,1111.541364713994,None,space,478.4501214789925,1111.541364713994,None,,,,,,,,,,,,,,,,,,,,,,,,,,,,,,,,,,,,,,,,,,,,,,,,,,,,,,,,,,,,,,,,,,,,,116,001,19,1,2020_Feb_19_1055,Test,3.2.4,59.84055734785389,
,,,,,,,,,,,,,,,,,,,,,,,,1590.084767176988,None,space,10.082728300010785,1590.084767176988,None,,,,,,,,,,,,,,,,,,,,,,,,,,,,,,,,,,,,,,,,,,,,,,,,,,,,,,,,,,,,,,,116,001,19,1,2020_Feb_19_1055,Test,3.2.4,59.84055734785389,
,,,,,,,,,,,,,,,,,,,,,,,,,,,,,,1600.980111826997,None,1600.980111826997,None,1600.980111826997,None,left,8.467375495005399,1600.980111826997,None,,,,,,,,,,,,,,,,,,,,,,,,,,,,,,,,,,,,,,,,,,,,,,,,,,,,,116,001,19,1,2020_Feb_19_1055,Test,3.2.4,59.84055734785389,
,,,,,,,,,,,,,,,,,,,,,,,,,,,,,,,,,,,,,,,,1600.980111826997,None,1600.980111826997,None,return,11.995234798989259,1600.980111826997,None,,,,,,,,,,,,,,,,,,,,,,,,,,,,,,,,,,,,,,,,,,,,,116,001,19,1,2020_Feb_19_1055,Test,3.2.4,59.84055734785389,
Pictures/IA100_G20.bmp,Pictures/IA100_G20.bmp,Pictures/IA100.bmp,"

"Go ahead and gamble!"",1,risk,0,0,0,4,,,,,,,,,,,,,,,,,,,,,,,,,,,,,,,,,,,,,,,1613.0953954469878,None,1615.083974149995,1616.604642388993,1616.5879325539863,None,1618.1086108959862,None,1,2.652199115997064,1620.1473025789892,None,1620.1473025789892,None,1620.1473025789892,None,1622.92127368199,None,1622.92127368199,1623.9239122879953,1625.0769237809873,None,1625.0769237809873,None,None,1625.0769237809873,None,None,None,None,None,,,,,,,,,,,,,,116,001,19,1,2020_Feb_19_1055,Test,3.2.4,59.84055734785389,
Pictures/IA50_G40.bmp,Pictures/IA50_G40.bmp,Pictures/IA50.bmp,"

"It would probably be best to play it safe."",0,safe,0,1,1,3,,,,,,,,,,,,,,,,,,,,,,,,,,,,,,,,,,,,,,,1627.0822368549998,None,1629.1543677429872,1630.658341835995,1630.641617983987,None,1632.2124341259914,None,None,,1634.1341545369942,None,1634.1341545369942,None,1634.1341545369942,None,None,None,None,None,1637.2590645539894,None,1637.2590645539894,None,left,1637.2590645539894,None,1638.5290696609882,None,None,None,1.2284323109925026,,,,,,,,,,,,,116,001,19,1,2020_Feb_19_1055,Test,3.2.4,59.84055734785389,
Pictures/IA50_G10.bmp,Pictures/IA50_G10.bmp,Pictures/IA50.bmp,"

"Go with the safe option here!"",0,safe,0,2,2,0,,,,,,,,,,,,,,,,,,,,,,,,,,,,,,,,,,,,,,,1639.2810565039981,None,1641.3030513039994,1642.8237253179977,1642.8070052679977,None,1644.3945322910004,None,2,2.2585431650077226,1646.332976708989,None,1646.332976708989,None,1646.332976708989,None,None,None,None,None,1648.7727253959893,None,1648.7727253959893,None,None,1648.7727253959893,None,None,None,None,None,,,,,,,,,,,,,,116,001,19,1,2020_Feb_19_1055,Test,3.2.4,59.84055734785389,
Pictures/IA100_G40.bmp,Pictures/IA100_G40.bmp,Pictures/IA100.bmp,"

"Try your luck and gamble!"",1,risk,0,3,3,5,,,,,,,,,,,,,,,,,,,,,,,,,,,,,,,,,,,,,,,1650.7780048269924,None,1652.8000077129982,1654.3039796119992,1654.2872601349954,None,1655.8747711589967,None,2,2.225568151989137,1657.8299371989997,None,1657.8299371989997,None,1657.8299371989997,None,None,None,None,None,1660.2529774119903,None,1660.2529774119903,None,right,1660.2529774119903,None,None,None,1661.3893149270007,None,1.0905229530035285,,,,,,,,,,,,,116,001,19,1,2020_Feb_19_1055,Test,3.2.4,59.84055734785389,
Pictures/IA50_G30.bmp,Pictures/IA50_G30.bmp,Pictures/IA50.bmp,"

"I think you should gamble."",1,risk,0,4,4,2,,,,,,,,,,,,,,,,,,,,,,,,,,,,,,,,,,,,,,,1662.2749669089972,None,1664.2969658599905,1665.8176342730003,1665.8009450069949,None,1667.3884439299873,None,2,0.976620211993577,1669.3268836109928,None,1669.3268836109928,None,1669.3268836109928,None,None,None,None,None,1670.4631858469947,None,1670.4631858469947,None,left,1670.4631858469947,None,1671.8836235659983,None,None,None,1.376315360001172,,,,,,,,,,,,,116,001,19,1,2020_Feb_19_1055,Test,3.2.4,59.84055734785389,
Pictures/IA50_G20.bmp,Pictures/IA50_G20.bmp,Pictures/IA50.bmp,"

"Let's venture and take a risk!"",1,risk,0,5,5,1,,,,,,,,,,,,,,,,,,,,,,,,,,,,,,,,,,,,,,,1672.468494514993,None,1674.4904932849895,1676.0111609649903,1675.994469414989,None,1677.5819849929976,None,2,0.9750895010074601,1679.5204131309874,None,1679.5204131309874,None,1679.5204131309874,None,None,None,None,None,1680.6567405029928,None,1680.6567405029928,None,left,1680.6567405029928,None,1682.3445410549903,None,None,None,1.6467601799959084,,,,,,,,,,,,,116,001,19,1,2020_Feb_19_1055,Test,3.2.4,59.84055734785389,
,,,,,,,,,,,,,,,,,,,,,,,,,,,,,,,,,,,,,,,,,,,,,,,,,,,,,,,,,,,,,,,,,,,,,,,,,,,,,,,,1682.678743845987,None,space,10.304762084997492,1682.678743845987,None,,,,,,,116,001,19,1,2020_Feb_19_1055,Test,3.2.4,59.84055734785389,
Pictures/IA50_G10.bmp,Pictures/IA50_G10.bmp,Pictures/IA50.bmp,"

"Go with the safe option here!"",0,safe,,,,,0,0,0,0,0,0,0,11,,,,,,,,,,,,,1693.1730649449892,None,1693.1730649449892,None,1693.1730649449892,None,left,3.5064325090061175,1693.1730649449892,None,1693.1730649449892,None,1693.1730649449892,None,return,7.650209020997863,1693.1730649449892,None,1700.8934024889895,None,1702.8819725849899,1704.4026446279895,1704.3859419619985,None,1705.8731950189976,None,2,1.7363169330055825,1707.8951793229935,None,1707.8951793229935,None,1707.8951793229935,None,None,None,None,None,1709.8002109189983,None,1709.8002109189983,None,None,1709.8002109189983,None,None,None,None,None,,,,,,,,,,,,,,116,001,19,1,2020_Feb_19_1055,Test,3.2.4,59.84055734785389,
Pictures/IA80_40_G95p.bmp,Pictures/IA80_40_G95p.bmp,Pictures/IA80.bmp,"

"Think of the payoff, gamble!"",1,risk,,,,,0,0,0,0,0,1,1,5,,,,,,,,,,,,,,,,,,,,,,,,,,,,,,,1711.805491453997,None,1713.8609108620003,1715.3648573289975,1715.3481643709965,None,1716.9189661739947,None,2,0.7661125620070379,1718.8574097579985,None,1718.8574097579985,None,1718.8574097579985,None,None,None,None,None,1719.7931976429973,None,1719.7931976429973,None,left,1719.7931976429973,None,1720.160843160993,1721.798475825999,None,None,0.31830540200462565,,,,,,,,,,,,,116,001,19,1,2020_Feb_19_1055,Test,3.2.4,59.84055734785389,
Pictures/IA25_G5.bmp,Pictures/IA25_G5.bmp,Pictures/IA25.bmp,"

"Let's stay with the certain option."",0,safe,,,,,0,0,0,0,0,2,2,0,,,,,,,,,,,,,,,,,,,,,,,,,,,,,,,1721.8151999959955,None,1723.8873270769982,1725.407998715993,1725.3912832439964,None,1726.928667477987,None,1,1.1163927860034164,1728.867105814992,None,1728.867105814992,None,1728.867105814992,None,1730.120407839,None,1730.120407839,1731.123045512999,1732.225962899989,None,1732.225962899989,None,left,1732.225962899989,None,1732.9946580539981,1734.2312417299981,None,None,0.7335254309873562,,,,,,,,,,,,,116,001,19,1,2020_Feb_19_1055,Test,3.2.4,59.84055734785389,
Pictures/IA25_G15.bmp,Pictures/IA25_G15.bmp,Pictures/IA25.bmp,"

"I think you should take a gamble."",1,risk,,,,,0,0,0,0,0,3,3,16,,,,,,,,,,,,,,,,,,,,,,,,,,,,,,,1734.24796780599,None,1736.2699550830002,1737.7906268599909,1737.7739067349903,None,1739.3614359919884,None,2,0.963625514996238,1741.2998792029975,None,1741.2998792029975,None,1741.2998792029975,None,None,None,None,None,1742.436193881993,None,1742.436193881993,None,right,1742.436193881993,None,None,None,1743.2215930269886,1744.4247658159875,0.747300101997098,,,,,,,,,,,,,116,001,19,1,2020_Feb_19_1055,Test,3.2.4,59.84055734785389,
Pictures/IA100_L80.bmp,Pictures/IA100_L80.bmp,Pictures/IA100.bmp,"

"Go all in!"",1,risk,,,,,0,0,0,0,0,4,4,3,,,,,,,,,,,,,,,,,,,,,,,,,,,,,,,1744.4414877539966,None,1746.4634846829867,1747.9841554729937,1747.9674366759864,None,1749.638515572995,None,2,1.0821194180025486,1751.4933980700007,None,1751.4933980700007,None,1751.4933980700007,None,None,None,None,None,1752.7132743249967,None,1752.7132743249967,None,left,1752.7132743249967,None,1753.632362971999,1754.701843414994,None,None,0.8702383119962178,,,,,,,,,,,,,116,001,19,1,2020_Feb_19_1055,Test,3.2.4,59.84055734785389,
Pictures/IA50_L40.bmp,Pictures/IA50_L40.bmp,Pictures/IA50.bmp,"

"That gamble doesn't sound too good, play it safe."",0,safe,,,,,0,0,0,0,0,5,5,1,,,,,,,,,,,,,,,,,,,,,,,,,,,,,,,1754.718567414995,None,1756.7405634899915,1758.2612346559908,1758.2445162549993,None,1759.8153338279953,None,2,1.0370353999896906,1761.7704747940006,None,1761.7704747940006,None,1761.7704747940006,None,None,None,None,None,1763.007069122992,None,1763.007069122992,None,left,1763.007069122992,None,1763.4248343279905,1764.9956482589914,None,None,0.3684318199957488,,,,,,,,,,,,,116,001,19,1,2020_Feb_19_1055,Test,3.2.4,59.84055734785389,
Pictures/IA20_10_L95p.bmp,Pictures/IA20_10_L95p.bmp,Pictures/IA20.bmp,"

"Don't be tempted to gamble."",0,safe,,,,,0,0,0,0,0,6,6,4,,,,,,,,,,,,,,,,,,,,,,,,,,,,,,,1765.0123469559912,None,1767.0510547129961,1768.5717261379905,1768.5550355669984,None,1770.1091254659987,None,2,0.9032374960079324,1772.064266729998,None,1772.064266729998,None,1772.064266729998,None,None,None,None,None,1773.133751906993,None,1773.133751906993,None,right,1773.133751906993,None,None,None,1773.4178339949867,1775.1223322609876,0.24974778800969943,,,,,,,,,,,,,116,001,19,1,2020_Feb_19_1055,Test,3.2.4,59.84055734785389,
Pictures/IA25_G20.bmp,Pictures/IA25_G20.bmp,Pictures/IA25.bmp,"

"I wouldn't gamble for this one. "",0,safe,,,,,0,0,0,0,0,7,7,15,,,,,,,,,,,,,,,,,,,,,,,,,,,,,,,1775.1390312779986,None,1777.1610286959913,1778.6816997009882,1778.6650041849934,None,1780.2358000029926,None,2,0.5445340059959562,1782.1909675759962,None,1782.1909675759962,None,1782.1909675759962,None,None,None,None,None,1782.909521085996,None,1782.909521085996,None,right,1782.909521085996,None,None,None,1783.594669608996,1784.898083216991,0.6499753640091512,,,,,,,,,,,,,116,001,19,1,2020_Feb_19_1055,Test,3.2.4,59.84055734785389,
Pictures/IA40_20_G95p.bmp,Pictures/IA40_20_G95p.bmp,Pictures/IA40.bmp,"

"Hold back, stay with the safe choice."",0,safe,,,,,0,0,0,0,0,8,8,12,,,,,,,,,,,,,,,,,,,,,,,,,,,,,,,1784.9148006529867,None,1786.9702192119876,1788.4908913309919,1788.4741732719995,None,1790.0115682829928,None,2,0.5288095739961136,1791.9667104789987,None,1791.9667104789987,None,1791.9667104789987,None,None,None,None,None,1792.6852821079956,None,1792.6852821079956,None,right,1792.6852821079956,None,None,None,1793.6544911099918,1794.6905635299918,0.9222202920063864,,,,,,,,,,,,,116,001,19,1,2020_Feb_19_1055,Test,3.2.4,59.84055734785389,
Pictures/IA50_L30.bmp,Pictures/IA50_L30.bmp,Pictures/IA50.bmp,"

"Take a leap, I think you should gamble."",1,risk,,,,,0,0,0,0,0,9,9,9,,,,,,,,,,,,,,,,,,,,,,,,,,,,,,,1794.7072620599938,None,1796.7292595539911,1798.249930476988,1798.2332353219972,None,1799.8040287779877,None,2,1.488281518992153,1801.7592106049997,None,1801.7592106049997,None,1801.7592106049997,None,None,None,None,None,1803.4469643880002,None,1803.4469643880002,None,left,1803.4469643880002,None,1804.2156657719897,1805.4522464099864,None,None,0.7205335910111899,,,,,,,,,,,,,116,001,19,1,2020_Feb_19_1055,Test,3.2.4,59.84055734785389,
Pictures/IA50_L10.bmp,Pictures/IA50_L10.bmp,Pictures/IA50.bmp,"

"Play it safe, don’t gamble!"",0,safe,,,,,0,0,0,0,0,10,10,17,,,,,,,,,,,,,,,,,,,,,,,,,,,,,,,1805.4689685589983,None,1807.4909619769896,1809.01163348899,1808.9949156989896,None,1810.56573354399,None,2,1.2466653620067518,1812.5208389389882,None,1812.5208389389882,None,1812.5208389389882,None,None,None,None,None,1813.9747042029921,None,1813.9747042029921,None,right,1813.9747042029921,None,None,None,1814.0749760359904,1815.9632740649977,0.06479761100490578,,,,,,,,,,,,,116,001,19,1,2020_Feb_19_1055,Test,3.2.4,59.84055734785389,
Pictures/IA100_G20.bmp,Pictures/IA100_G20.bmp,Pictures/IA100.bmp,"

"Go ahead and gamble!"",1,risk,,,,,0,0,0,0,0,11,11,14,,,,,,,,,,,,,,,,,,,,,,,,,,,,,,,1815.9799999289971,None,1818.0019926409877,1819.5226663109934,1819.50594498399,None,1821.0266294739995,None,2,0.5835934350034222,1823.0319199149963,None,1823.0319199149963,None,1823.0319199149963,None,None,None,None,None,1823.7838973699982,None,1823.7838973699982,None,left,1823.7838973699982,None,1824.2183664119948,1825.7891769629932,None,None,0.3995992089912761,,,,,,,,,,,,,116,001,19,1,2020_Feb_19_1055,Test,3.2.4,59.84055734785389,
Pictures/IA50_G30.bmp,Pictures/IA50_G30.bmp,Pictures/IA50.bmp,"

"I think you should gamble."",1,risk,,,,,0,0,0,0,0,12,12,18,,,,,,,,,,,,,,,,,,,,,,,,,,,,,,,1825.8058782899898,None,1827.8278689719882,1829.3485449399886,1829.3318482979957,None,1830.8692217149946,None,2,1.1896988899970893,1832.8578079479921,None,1832.8578079479921,None,1832.8578079479921,None,None,None,None,None,1834.2280728569895,None,1834.2280728569895,None,right,1834.2280728569895,None,None,None,1834.5790087859932,1836.2166545910004,0.30742776399711147,,,,,,,,,,,,,116,001,19,1,2020_Feb_19_1055,Test,3.2.4,59.84055734785389,
Pictures/IA80_40_L95p.bmp,Pictures/IA80_40_L95p.bmp,Pictures/IA80.bmp,"

"Let's stay with the certain option."",0,safe,,,,,0,0,0,0,0,13,13,19,,,,,,,,,,,,,,,,,,,,,,,,,,,,,,,1836.2333553969947,None,1838.2553559249936,1839.7760221379867,1839.7593325819907,None,1841.313408787988,None,2,1.9862238689966034,1843.2852775840001,None,1843.2852775840001,None,1843.2852775840001,None,None,None,None,None,1845.4409549639968,None,1845.4409549639968,None,right,1845.4409549639968,None,None,None,1846.3934616339975,1847.4295371599874,0.9185430030047428,,,,,,,,,,,,,116,001,19,1,2020_Feb_19_1055,Test,3.2.4,59.84055734785389,
Pictures/IA100_G80.bmp,Pictures/IA100_G80.bmp,Pictures/IA100.bmp,"

"Why not gamble?"",1,risk,,,,,0,0,0,0,0,14,14,10,,,,,,,,,,,,,,,,,,,,,,,,,,,,,,,1847.4462340359896,None,1849.4682323609886,1850.9889025289885,1850.972210953987,None,1852.5597132759867,None,2,0.7093519519985421,1854.49815510599,None,1854.49815510599,None,1854.49815510599,None,None,None,None,None,1855.3671090779972,None,1855.3671090779972,None,right,1855.3671090779972,None,None,None,1855.8517192969884,1857.3556922289863,0.44040453698835336,,,,,,,,,,,,,116,001,19,1,2020_Feb_19_1055,Test,3.2.4,59.84055734785389,
Pictures/IA40_20_L95p.bmp,Pictures/IA40_20_L95p.bmp,Pictures/IA40.bmp,"

"Trust me, gamble!"",1,risk,,,,,0,0,0,0,0,15,15,7,,,,,,,,,,,,,,,,,,,,,,,,,,,,,,,1857.3723943499936,None,1859.3943900799932,1860.9150595329993,1860.8983633489988,None,1862.485865753988,None,2,1.1191867599991383,1864.4243149469985,None,1864.4243149469985,None,1864.4243149469985,None,None,None,None,None,1865.694323356991,None,1865.694323356991,None,right,1865.694323356991,None,None,None,1866.1956537539954,1867.6996067579894,0.46516795399656985,,,,,,,,,,,,,116,001,19,1,2020_Feb_19_1055,Test,3.2.4,59.84055734785389,
Pictures/IA110_55_L95p.bmp,Pictures/IA110_55_L95p.bmp,Pictures/IA110.bmp,"

"Trust me, gamble!"",1,risk,,,,,0,0,0,0,0,16,16,8,,,,,,,,,,,,,,,,,,,,,,,,,,,,,,,1867.7163285169954,None,1869.7550334989937,1871.275718193996,1871.2589860579901,None,1872.829792531993,None,2,0.7432647499954328,1874.7682418170007,None,1874.7682418170007,None,1874.7682418170007,None,None,None,None,None,1875.6371946309955,None,1875.6371946309955,None,left,1875.6371946309955,None,1876.5228558519884,1877.6257776999992,None,None,0.8503054610046092,,,,,,,,,,,,,116,001,19,1,2020_Feb_19_1055,Test,3.2.4,59.84055734785389,
Pictures/IA100_L20.bmp,Pictures/IA100_L20.bmp,Pictures/IA100.bmp,"

"Try to win as much money as you can, gamble!"",1,risk,,,,,0,0,0,0,0,17,17,2,,,,,,,,,,,,,,,,,,,,,,,,,,,,,,,1877.6424738179921,None,1879.6644705519866,1881.1851439479942,1881.1684457709925,None,1882.7559516139881,None,2,1.5851076429971727,1884.6943947569962,None,1884.6943947569962,None,1884.6943947569962,None,None,None,None,None,1886.4657284139976,None,1886.4657284139976,None,right,1886.4657284139976,None,None,None,1886.9002132859896,1888.4710062709928,0.3977685840072809,,,,,,,,,,,,,116,001,19,1,2020_Feb_19_1055,Test,3.2.4,59.84055734785389,
Pictures/IA75_L30.bmp,Pictures/IA75_L30.bmp,Pictures/IA75.bmp,"

"Hold back, stay with the safe choice."",0,safe,,,,,0,0,0,0,0,18,18,13,,,,,,,,,,,,,,,,,,,,,,,,,,,,,,,1888.48773436599,None,1890.5264394189871,1892.030387492996,1892.013692373992,None,1893.6179049759958,None,2,0.3398542089998955,1895.539651358995,None,1895.539651358995,None,1895.539651358995,None,None,None,None,None,1896.0576889449876,None,1896.0576889449876,None,left,1896.0576889449876,None,1896.3584646939998,1898.0629642259883,None,None,0.2538103120023152,,,,,,,,,,,,,116,001,19,1,2020_Feb_19_1055,Test,3.2.4,59.84055734785389,
Pictures/IA25_L20.bmp,Pictures/IA25_L20.bmp,Pictures/IA25.bmp,"

"Don't be tempted to gamble."",0,safe,,,,,0,0,0,0,0,19,19,6,,,,,,,,,,,,,,,,,,,,,,,,,,,,,,,1898.079663134995,None,1900.1016588219936,1901.6223300009879,1901.6056363249954,None,1903.1931397589942,None,2,0.6199207949975971,1905.1315861719922,None,1905.1315861719922,None,1905.1315861719922,None,None,None,None,None,1905.9170004869957,None,1905.9170004869957,None,left,1905.9170004869957,None,1906.5854223939969,1907.9222637539933,None,None,0.6184857600019313,,,,,,,,,,,,,116,001,19,1,2020_Feb_19_1055,Test,3.2.4,59.84055734785389,
,,,,,,,,,,0,0,0,0,,,,,,,,,,,,,,,,,,,,,,,,,,,,,,,,,,,,,,,,,,,,,,,,,,,,,,,,,,,,,,,,,,,,,,,,,1908.139526740997,None,return,9.075972074992023,1908.139526740997,None,116,001,19,1,2020_Feb_19_1055,Test,3.2.4,59.84055734785389,
Pictures/IA50_L40.bmp,Pictures/IA50_L40.bmp,Pictures/IA50.bmp,"

"That gamble doesn't sound too good, play it safe."",0,safe,,,,,1,0,1,0,0,0,0,8,,,,,,,,,,,,,1917.3805263039976,None,1917.3805263039976,None,1917.3805263039976,None,right,7.194985843001632,1917.3805263039976,None,1917.3805263039976,None,1917.3805263039976,None,return,11.106750150007429,1917.3805263039976,None,1928.543274249998,None,1930.5485695019888,1932.069243780992,1932.052524943996,None,1933.5397760609922,None,2,0.49371848099690396,1935.56178471999,None,1935.56178471999,None,1935.56178471999,None,None,None,None,None,1936.246909450987,None,1936.246909450987,None,left,1936.246909450987,None,1937.3999491909926,None,None,None,1.1045866399945226,,,,,,,,,,,,,116,001,19,1,2020_Feb_19_1055,Test,3.2.4,59.84055734785389,
Pictures/IA50_G40.bmp,Pictures/IA50_G40.bmp,Pictures/IA50.bmp,"

"It would probably be best to play it safe."",0,safe,,,,,1,0,1,0,0,1,1,6,,,,,,,,,,,,,,,,,,,,,,,,,,,,,,,1938.2521925420006,None,1940.2741917709936,1941.7948598209914,1941.7781711659918,None,1943.3155352929898,None,None,,1945.3041234229895,None,1945.3041234229895,None,1945.3041234229895,None,None,None,None,None,1948.412304803991,None,1948.412304803991,None,None,1948.412304803991,None,None,None,None,None,,,,,,,,,,,,,,116,001,19,1,2020_Feb_19_1055,Test,3.2.4,59.84055734785389,
Pictures/IA40_20_L95p.bmp,Pictures/IA40_20_L95p.bmp,Pictures/IA40.bmp,"

"Trust me, gamble!"",1,risk,,,,,1,0,1,0,0,2,2,10,,,,,,,,,,,,,,,,,,,,,,,,,,,,,,,1950.4175833989866,None,1952.439581720988,1953.9602530809934,1953.9435584199964,None,1955.4475093739893,None,2,0.6739917520026211,1957.4695160529955,None,1957.4695160529955,None,1957.4695160529955,None,None,None,None,None,1958.3050505189894,None,1958.3050505189894,None,right,1958.3050505189894,None,None,None,1958.7228154009936,1960.3103317659989,0.37444786200649105,,,,,,,,,,,,,116,001,19,1,2020_Feb_19_1055,Test,3.2.4,59.84055734785389,
Pictures/IA100_G20.bmp,Pictures/IA100_G20.bmp,Pictures/IA100.bmp,"

"Go ahead and gamble!"",1,risk,,,,,1,0,1,0,0,3,3,11,,,,,,,,,,,,,,,,,,,,,,,,,,,,,,,1960.3270357589936,None,1962.3490280869883,1963.8697005409922,1963.8530053949944,None,1965.3736668099882,None,1,0.4925552450004034,1967.3789517829864,None,1967.3789517829864,None,1967.3789517829864,None,1967.9638375489885,None,1967.9638375489885,1968.9664782309992,1970.069388996999,None,1970.069388996999,None,left,1970.069388996999,None,1970.9717508249887,1972.0746676969866,None,None,0.8581071990047349,,,,,,,,,,,,,116,001,19,1,2020_Feb_19_1055,Test,3.2.4,59.84055734785389,
Pictures/IA20_10_L95p.bmp,Pictures/IA20_10_L95p.bmp,Pictures/IA20.bmp,"

"Don't be tempted to gamble."",0,safe,,,,,1,0,1,0,0,4,4,13,,,,,,,,,,,,,,,,,,,,,,,,,,,,,,,1972.0913710349996,None,1974.113377087997,1975.6340383109928,1975.617345961,None,1977.1380058299983,None,1,1.5122194339928683,1979.143292801993,None,1979.143292801993,None,1979.143292801993,None,1980.7642248379998,None,1980.7642248379998,1981.7668636359886,1982.8697739199997,None,1982.8697739199997,None,right,1982.8697739199997,None,None,None,1983.972689533999,None,1.0577254960080609,,,,,,,,,,,,,116,001,19,1,2020_Feb_19_1055,Test,3.2.4,59.84055734785389,
Pictures/IA110_55_G95p.bmp,Pictures/IA110_55_G95p.bmp,Pictures/IA110.bmp,"

"Take a chance!"",1,risk,,,,,1,0,1,0,0,5,5,14,,,,,,,,,,,,,,,,,,,,,,,,,,,,,,,1984.8917819819908,None,1986.913778533999,1988.4344472429948,1988.4177276650007,None,1989.9885458159988,None,1,0.5038185099983821,1991.9436927809875,None,1991.9436927809875,None,1991.9436927809875,None,1992.5452691039973,None,1992.5452691039973,1993.5479150009924,1994.6508213659981,None,1994.6508213659981,None,left,1994.6508213659981,None,1995.3693764789932,1996.6393910049956,None,None,0.6846723769995151,,,,,,,,,,,,,116,001,19,1,2020_Feb_19_1055,Test,3.2.4,59.84055734785389,
Pictures/IA100_L40.bmp,Pictures/IA100_L40.bmp,Pictures/IA100.bmp,"

"Think of the payoff, gamble!"",1,risk,,,,,1,0,1,0,0,6,6,0,,,,,,,,,,,,,,,,,,,,,,,,,,,,,,,1996.656113442994,None,1998.6781157730002,2000.1987813899905,2000.1820681369863,None,2001.7528812099918,None,1,0.8674905380030395,2003.7080217279872,None,2003.7080217279872,None,2003.7080217279872,None,2004.6939706049889,None,2004.6939706049889,2005.696602142998,2006.799515021994,None,2006.799515021994,None,right,2006.799515021994,None,None,None,2007.6183356269903,2008.7880723489943,0.7759904370032018,,,,,,,,,,,,,116,001,19,1,2020_Feb_19_1055,Test,3.2.4,59.84055734785389,
Pictures/IA50_G20.bmp,Pictures/IA50_G20.bmp,Pictures/IA50.bmp,"

"Let's venture and take a risk!"",1,risk,,,,,1,0,1,0,0,7,7,18,,,,,,,,,,,,,,,,,,,,,,,,,,,,,,,2008.804797083998,None,2010.826792613996,2012.347463247992,2012.330744693987,None,2013.8514334759966,None,1,1.4227706130041042,2015.856720664,None,2015.856720664,None,2015.856720664,None,2017.4108036019898,None,2017.4108036019898,2018.4134379699972,2019.6500378919882,None,2019.6500378919882,None,right,2019.6500378919882,None,None,None,2019.9842614899972,2021.6553262779926,0.2854527580057038,,,,,,,,,,,,,116,001,19,1,2020_Feb_19_1055,Test,3.2.4,59.84055734785389,
Pictures/IA25_G20.bmp,Pictures/IA25_G20.bmp,Pictures/IA25.bmp,"

"I wouldn't gamble for this one. "",0,safe,,,,,1,0,1,0,0,8,8,19,,,,,,,,,,,,,,,,,,,,,,,,,,,,,,,2021.672027884997,None,2023.6940249420004,2025.2146946369903,2025.1980015359877,None,2026.7019500869937,None,1,1.611540223006159,2028.723960354997,None,2028.723960354997,None,2028.723960354997,None,2030.4618701219879,None,2030.4618701219879,2031.4645114359882,2032.5674228789867,None,2032.5674228789867,None,right,2032.5674228789867,None,None,None,2033.887576219,None,1.2800748819863657,,,,,,,,,,,,,116,001,19,1,2020_Feb_19_1055,Test,3.2.4,59.84055734785389,
Pictures/IA20_10_G95p.bmp,Pictures/IA20_10_G95p.bmp,Pictures/IA20.bmp,"

"Take a leap, I think you should gamble."",1,risk,,,,,1,0,1,0,0,9,9,9,,,,,,,,,,,,,,,,,,,,,,,,,,,,,,,2034.5726935049897,None,2036.594690152997,2038.1153609259927,2038.0986680139904,None,2039.669459600991,None,2,1.4148763560078805,2041.6246269989933,None,2041.6246269989933,None,2041.6246269989933,None,None,None,None,None,2043.2121429629915,None,2043.2121429629915,None,left,2043.2121429629915,None,2043.4460817329964,2045.2174206939962,None,None,0.1873555199999828,,,,,,,,,,,,,116,001,19,1,2020_Feb_19_1055,Test,3.2.4,59.84055734785389,
Pictures/IA25_G15.bmp,Pictures/IA25_G15.bmp,Pictures/IA25.bmp,"

"I think you should take a gamble."",1,risk,,,,,1,0,1,0,0,10,10,16,,,,,,,,,,,,,,,,,,,,,,,,,,,,,,,2045.234122266993,None,2047.256122728999,2048.776791750992,2048.7601006149926,None,2050.2807580689987,None,2,1.145456849000766,2052.2860498609953,None,2052.2860498609953,None,2052.2860498609953,None,None,None,None,None,2053.6061557520006,None,2053.6061557520006,None,left,2053.6061557520006,None,2053.9404149109905,2055.594738020998,None,None,0.28934546999516897,,,,,,,,,,,,,116,001,19,1,2020_Feb_19_1055,Test,3.2.4,59.84055734785389,
Pictures/IA80_40_G95p.bmp,Pictures/IA80_40_G95p.bmp,Pictures/IA80.bmp,"

"Think of the payoff, gamble!"",1,risk,,,,,1,0,1,0,0,11,11,4,,,,,,,,,,,,,,,,,,,,,,,,,,,,,,,2055.611471814991,None,2057.6334692389937,2059.1541410609934,2059.1374498649966,None,2060.6581055369898,None,2,0.8481021330080694,2062.6633940679894,None,2062.6633940679894,None,2062.6633940679894,None,None,None,None,None,2063.6827468109987,None,2063.6827468109987,None,left,2063.6827468109987,None,2063.9668253469863,2065.671329533987,None,None,0.23674961300275754,,,,,,,,,,,,,116,001,19,1,2020_Feb_19_1055,Test,3.2.4,59.84055734785389,
Pictures/IA100_L80.bmp,Pictures/IA100_L80.bmp,Pictures/IA100.bmp,"

"Go all in!"",1,risk,,,,,1,0,1,0,0,12,12,15,,,,,,,,,,,,,,,,,,,,,,,,,,,,,,,2065.6880359129864,None,2067.710026513989,2069.2306992259983,2069.2140010369912,None,2070.7346655209985,None,2,0.41955615700862836,2072.7399510299874,None,2072.7399510299874,None,2072.7399510299874,None,None,None,None,None,2073.3081274279975,None,2073.3081274279975,None,left,2073.3081274279975,None,2073.4418000139995,2075.313395017991,None,None,0.09137910000572447,,,,,,,,,,,,,116,001,19,1,2020_Feb_19_1055,Test,3.2.4,59.84055734785389,
Pictures/IA100_L20.bmp,Pictures/IA100_L20.bmp,Pictures/IA100.bmp,"

"Try to win as much money as you can, gamble!"",1,risk,,,,,1,0,1,0,0,13,13,12,,,,,,,,,,,,,,,,,,,,,,,,,,,,,,,2075.330118353988,None,2077.352117176997,2078.8727891839953,2078.856071916991,None,2080.3600451050006,None,1,2.1454666200006614,2082.3820315949997,None,2082.3820315949997,None,2082.3820315949997,None,2084.6713961239875,None,2084.6713961239875,2085.6740358690004,2086.8103682129877,None,2086.8103682129877,None,right,2086.8103682129877,None,None,None,2087.7795992449974,2088.8156510069966,0.9251311029947829,,,,,,,,,,,,,116,001,19,1,2020_Feb_19_1055,Test,3.2.4,59.84055734785389,
Pictures/IA75_L45.bmp,Pictures/IA75_L45.bmp,Pictures/IA75.bmp,"

"Don't gamble for this one, play it safe."",0,safe,,,,,1,0,1,0,0,14,14,3,,,,,,,,,,,,,,,,,,,,,,,,,,,,,,,2088.8323715249862,None,2090.854373082999,2092.3750446649938,2092.358325055,None,2093.9124296329974,None,None,,2095.8842995219893,None,2095.8842995219893,None,2095.8842995219893,None,None,None,None,None,2099.0091885289876,None,2099.0091885289876,None,right,2099.0091885289876,None,None,None,2100.2624880359945,None,1.2143104659917299,,,,,,,,,,,,,116,001,19,1,2020_Feb_19_1055,Test,3.2.4,59.84055734785389,
Pictures/IA25_G10.bmp,Pictures/IA25_G10.bmp,Pictures/IA25.bmp,"

"What's life without a little risk?"",1,risk,,,,,1,0,1,0,0,15,15,5,,,,,,,,,,,,,,,,,,,,,,,,,,,,,,,2101.014479363992,None,2103.0364764709957,2104.557153362999,2104.5404321479873,None,2106.0945393489965,None,2,0.7010930469987215,2108.0664040869888,None,2108.0664040869888,None,2108.0664040869888,None,None,None,None,None,2108.9353534809925,None,2108.9353534809925,None,left,2108.9353534809925,None,2109.0857507809997,2110.9406318969995,None,None,0.11213556599977892,,,,,,,,,,,,,116,001,19,1,2020_Feb_19_1055,Test,3.2.4,59.84055734785389,
Pictures/IA25_L15.bmp,Pictures/IA25_L15.bmp,Pictures/IA25.bmp,"

"There's not much on the line here, gamble!"",1,risk,,,,,1,0,1,0,0,16,16,7,,,,,,,,,,,,,,,,,,,,,,,,,,,,,,,2110.9573536299868,None,2112.979356459997,2114.5000283109985,2114.483310784999,None,2116.054125180992,None,2,0.9022367279976606,2118.0092657979985,None,2118.0092657979985,None,2118.0092657979985,None,None,None,None,None,2119.0787634139997,None,2119.0787634139997,None,left,2119.0787634139997,None,2119.6469116629887,2121.084044282994,None,None,0.5207400899962522,,,,,,,,,,,,,116,001,19,1,2020_Feb_19_1055,Test,3.2.4,59.84055734785389,
Pictures/IA100_G60.bmp,Pictures/IA100_G60.bmp,Pictures/IA100.bmp,"

"Be cautious, don't gamble for this one."",0,safe,,,,,1,0,1,0,0,17,17,2,,,,,,,,,,,,,,,,,,,,,,,,,,,,,,,2121.1007462220005,None,2123.12274734299,2124.643413229991,2124.626723693,None,2126.1975133679953,None,1,1.0868310249934439,2128.1526798989944,None,2128.1526798989944,None,2128.1526798989944,None,2129.38926368799,None,2129.38926368799,2130.3919005529897,2131.5115227489878,None,2131.5115227489878,None,right,2131.5115227489878,None,None,None,2131.9125868619885,2133.500103827988,0.35996893199626356,,,,,,,,,,,,,116,001,19,1,2020_Feb_19_1055,Test,3.2.4,59.84055734785389,
Pictures/IA50_L20.bmp,Pictures/IA50_L20.bmp,Pictures/IA50.bmp,"

"Certainty is boring, take a risk!"",1,risk,,,,,1,0,1,0,0,18,18,17,,,,,,,,,,,,,,,,,,,,,,,,,,,,,,,2133.516803581995,None,2135.5388074019866,2137.0594734189945,2137.0427793989948,None,2138.6135719369922,None,2,0.8067644170077983,2140.5687412629923,None,2140.5687412629923,None,2140.5687412629923,None,None,None,None,None,2141.554685636991,None,2141.554685636991,None,right,2141.554685636991,None,None,None,2141.8220271359896,2143.5599576849927,0.22081470201374032,,,,,,,,,,,,,116,001,19,1,2020_Feb_19_1055,Test,3.2.4,59.84055734785389,
Pictures/IA40_20_G95p.bmp,Pictures/IA40_20_G95p.bmp,Pictures/IA40.bmp,"

"Hold back, stay with the safe choice."",0,safe,,,,,1,0,1,0,0,19,19,1,,,,,,,,,,,,,,,,,,,,,,,,,,,,,,,2143.5766717389924,None,2145.59865001899,2147.119322333994,2147.102626925989,None,2148.6232896239962,None,2,1.8189178759930655,2150.62857644599,None,2150.62857644599,None,2150.62857644599,None,None,None,None,None,2152.6171519719937,None,2152.6171519719937,None,left,2152.6171519719937,None,2152.867809705989,2154.6057348489994,None,None,0.2143459829967469,,,,,,,,,,,,,116,001,19,1,2020_Feb_19_1055,Test,3.2.4,59.84055734785389,
,,,,,,,,,,1,0,1,0,,,,,,,,,,,,,,,,,,,,,,,,,,,,,,,,,,,,,,,,,,,,,,,,,,,,,,,,,,,,,,,,,,,,,,,,,2154.7728456859913,None,return,7.554648172008456,2154.7728456859913,None,116,001,19,1,2020_Feb_19_1055,Test,3.2.4,59.84055734785389,
Pictures/IA25_G20.bmp,Pictures/IA25_G20.bmp,Pictures/IA25.bmp,"

"I wouldn't gamble for this one. "",0,safe,,,,,2,0,2,0,0,0,0,3,,,,,,,,,,,,,2162.4931509899907,None,2162.4931509899907,None,2162.4931509899907,None,left,1.5543544230022235,2162.4931509899907,None,2162.4931509899907,None,2162.4931509899907,None,return,2.6981782450020546,2162.4931509899907,None,2165.2504479229974,None,2167.2557476449874,2168.776418537993,2168.759713652995,None,2170.2636631009955,None,2,1.2825603450037306,2172.2689523159934,None,2172.2689523159934,None,2172.2689523159934,None,None,None,None,None,2173.722789585998,None,2173.722789585998,None,right,2173.722789585998,None,None,None,2174.8591217089997,None,1.100695558998268,,,,,,,,,,,,,116,001,19,1,2020_Feb_19_1055,Test,3.2.4,59.84055734785389,
Pictures/IA75_L60.bmp,Pictures/IA75_L60.bmp,Pictures/IA75.bmp,"

"Why not take the gamble?"",1,risk,,,,,2,0,2,0,0,1,1,18,,,,,,,,,,,,,,,,,,,,,,,,,,,,,,,2175.7447746099933,None,2177.766777522993,2179.2874485549983,2179.2707547969912,None,2180.8415504779987,None,2,1.1548056829924462,2182.7967130599864,None,2182.7967130599864,None,2182.7967130599864,None,None,None,None,None,2184.1168494049925,None,2184.1168494049925,None,left,2184.1168494049925,None,2184.3508077509905,2186.1221290889953,None,None,0.1866524499928346,,,,,,,,,,,,,116,001,19,1,2020_Feb_19_1055,Test,3.2.4,59.84055734785389,
Pictures/IA100_L80.bmp,Pictures/IA100_L80.bmp,Pictures/IA100.bmp,"

"Go all in!"",1,risk,,,,,2,0,2,0,0,2,2,8,,,,,,,,,,,,,,,,,,,,,,,,,,,,,,,2186.1388511419937,None,2188.16084853599,2189.681530636997,2189.664805388995,None,2191.1687786099938,None,1,0.42473566898843274,2193.190770074987,None,2193.190770074987,None,2193.190770074987,None,2193.6920987129997,None,2193.6920987129997,2194.694736137986,2195.7976505349943,None,2195.7976505349943,None,left,2195.7976505349943,None,2196.181991483987,2197.7862209779996,None,None,0.34583609900437295,,,,,,,,,,,,,116,001,19,1,2020_Feb_19_1055,Test,3.2.4,59.84055734785389,
Pictures/IA20_10_L95p.bmp,Pictures/IA20_10_L95p.bmp,Pictures/IA20.bmp,"

"Don't be tempted to gamble."",0,safe,,,,,2,0,2,0,0,3,3,2,,,,,,,,,,,,,,,,,,,,,,,,,,,,,,,2197.802918353991,None,2199.8249164819863,2201.3455896309897,2201.328895451996,None,2202.8495605579956,None,1,1.1286608340014936,2204.8548447649955,None,2204.8548447649955,None,2204.8548447649955,None,2206.108159448995,None,2206.108159448995,2207.1107970899902,2208.2137108419993,None,2208.2137108419993,None,right,2208.2137108419993,None,None,None,2208.4810715700005,2210.218979705998,0.2337863830034621,,,,,,,,,,,,,116,001,19,1,2020_Feb_19_1055,Test,3.2.4,59.84055734785389,
Pictures/IA80_40_G95p.bmp,Pictures/IA80_40_G95p.bmp,Pictures/IA80.bmp,"

"Think of the payoff, gamble!"",1,risk,,,,,2,0,2,0,0,4,4,10,,,,,,,,,,,,,,,,,,,,,,,,,,,,,,,2210.235713695991,None,2212.257702502,2213.7783735039993,2213.7616550329985,None,2215.2656318519876,None,1,1.1598726289957995,2217.287632378997,None,2217.287632378997,None,2217.287632378997,None,2218.574351373987,None,2218.574351373987,2219.5770041259966,2220.6966162259923,None,2220.6966162259923,None,left,2220.6966162259923,None,2220.963974399987,2222.7018852219917,None,None,0.23088949199882336,,,,,,,,,,,,,116,001,19,1,2020_Feb_19_1055,Test,3.2.4,59.84055734785389,
Pictures/IA25_G5.bmp,Pictures/IA25_G5.bmp,Pictures/IA25.bmp,"

"Let's stay with the certain option."",0,safe,,,,,2,0,2,0,0,5,5,4,,,,,,,,,,,,,,,,,,,,,,,,,,,,,,,2222.7186109729955,None,2224.7406049759884,2226.2612823999953,2226.244559034996,None,2227.765250366996,None,1,0.9089681670011487,2229.7705367419985,None,2229.7705367419985,None,2229.7705367419985,None,2230.8233132139867,None,2230.8233132139867,2231.8259443029965,2232.945570883996,None,2232.945570883996,None,right,2232.945570883996,None,None,None,2233.2129255459877,2234.9508394229924,0.22992135200183839,,,,,,,,,,,,,116,001,19,1,2020_Feb_19_1055,Test,3.2.4,59.84055734785389,
Pictures/IA50_L10.bmp,Pictures/IA50_L10.bmp,Pictures/IA50.bmp,"

"Play it safe, don’t gamble!"",0,safe,,,,,2,0,2,0,0,6,6,15,,,,,,,,,,,,,,,,,,,,,,,,,,,,,,,2234.9675608599937,None,2236.9895598199946,2238.510238390998,2238.493515120994,None,2240.0142055589968,None,1,1.4600111740001012,2242.019492909996,None,2242.019492909996,None,2242.019492909996,None,2243.5902483379905,None,2243.5902483379905,2244.5929252839996,2245.695838539992,None,2245.695838539992,None,left,2245.695838539992,None,2246.063478704993,2247.7011150849867,None,None,0.31965989600575995,,,,,,,,,,,,,116,001,19,1,2020_Feb_19_1055,Test,3.2.4,59.84055734785389,
Pictures/IA80_40_L95p.bmp,Pictures/IA80_40_L95p.bmp,Pictures/IA80.bmp,"

"Let's stay with the certain option."",0,safe,,,,,2,0,2,0,0,7,7,11,,,,,,,,,,,,,,,,,,,,,,,,,,,,,,,2247.7178452959924,None,2249.7398374170007,2251.260519561998,2251.2437956649956,None,2252.7644759549876,None,2,1.9577435530081857,2254.769767035992,None,2254.769767035992,None,2254.769767035992,None,None,None,None,None,2256.908727446993,None,2256.908727446993,None,right,2256.908727446993,None,None,None,2257.5938715649972,2258.897307827996,0.6427679449989228,,,,,,,,,,,,,116,001,19,1,2020_Feb_19_1055,Test,3.2.4,59.84055734785389,
Pictures/IA100_G40.bmp,Pictures/IA100_G40.bmp,Pictures/IA100.bmp,"

"Try your luck and gamble!"",1,risk,,,,,2,0,2,0,0,8,8,14,,,,,,,,,,,,,,,,,,,,,,,,,,,,,,,2258.914006490988,None,2260.936013082988,2262.456678353992,2262.4399918599956,None,2263.977355417999,None,2,1.3295604169979924,2265.9659460969997,None,2265.9659460969997,None,2265.9659460969997,None,None,None,None,None,2267.469898086987,None,2267.469898086987,None,left,2267.469898086987,None,2269.157678151998,None,None,None,1.649595846000011,,,,,,,,,,,,,116,001,19,1,2020_Feb_19_1055,Test,3.2.4,59.84055734785389,
Pictures/IA100_L40.bmp,Pictures/IA100_L40.bmp,Pictures/IA100.bmp,"

"Think of the payoff, gamble!"",1,risk,,,,,2,0,2,0,0,9,9,7,,,,,,,,,,,,,,,,,,,,,,,,,,,,,,,2269.4751818249933,None,2271.4971810709976,2273.0178528159886,2273.0011569149938,None,2274.505109257996,None,None,,2276.5271169889893,None,2276.5271169889893,None,2276.5271169889893,None,None,None,None,None,2279.618590099999,None,2279.618590099999,None,left,2279.618590099999,None,2280.303727267994,2281.607176972,None,None,0.6369119769951794,,,,,,,,,,,,,116,001,19,1,2020_Feb_19_1055,Test,3.2.4,59.84055734785389,
Pictures/IA100_G60.bmp,Pictures/IA100_G60.bmp,Pictures/IA100.bmp,"

"Be cautious, don't gamble for this one."",0,safe,,,,,2,0,2,0,0,10,10,16,,,,,,,,,,,,,,,,,,,,,,,,,,,,,,,2281.623873421995,None,2283.645869869986,2285.166544836,2285.149848598987,None,2286.6538024539914,None,2,0.5236946980003268,2288.6758135109994,None,2288.6758135109994,None,2288.6758135109994,None,None,None,None,None,2289.3776499829983,None,2289.3776499829983,None,left,2289.3776499829983,None,2289.528042139995,2291.3662312229862,None,None,0.10986493100062944,,,,,,,,,,,,,116,001,19,1,2020_Feb_19_1055,Test,3.2.4,59.84055734785389,
Pictures/IA75_L45.bmp,Pictures/IA75_L45.bmp,Pictures/IA75.bmp,"

"Don't gamble for this one, play it safe."",0,safe,,,,,2,0,2,0,0,11,11,1,,,,,,,,,,,,,,,,,,,,,,,,,,,,,,,2291.382931478991,None,2293.4049351869908,2294.9256066779926,2294.9089114689996,None,2296.4128594539943,None,1,1.028632255998673,2298.4348693359934,None,2298.4348693359934,None,2298.4348693359934,None,2299.6046087709983,None,2299.6046087709983,2300.607248036991,2301.710164715987,None,2301.710164715987,None,left,2301.710164715987,None,2302.044381337997,2303.7154526169907,None,None,0.28933690799749456,,,,,,,,,,,,,116,001,19,1,2020_Feb_19_1055,Test,3.2.4,59.84055734785389,
Pictures/IA75_G30.bmp,Pictures/IA75_G30.bmp,Pictures/IA75.bmp,"

"Be bold, gamble!"",1,risk,,,,,2,0,2,0,0,12,12,0,,,,,,,,,,,,,,,,,,,,,,,,,,,,,,,2303.732159880994,None,2305.7541526319983,2307.274824346998,2307.258130696995,None,2308.8289195599937,None,1,1.6154033789935056,2310.784091917987,None,2310.784091917987,None,2310.784091917987,None,2312.505256436998,None,2312.505256436998,2313.5079316649935,2314.6108472969936,None,2314.6108472969936,None,left,2314.6108472969936,None,2314.9951890719967,2316.59942856399,None,None,0.3486540510057239,,,,,,,,,,,,,116,001,19,1,2020_Feb_19_1055,Test,3.2.4,59.84055734785389,
Pictures/IA25_L10.bmp,Pictures/IA25_L10.bmp,Pictures/IA25.bmp,"

"Dont be afraid to take the risk!"",1,risk,,,,,2,0,2,0,0,13,13,13,,,,,,,,,,,,,,,,,,,,,,,,,,,,,,,2316.6161162029894,None,2318.638118817995,2320.158789274996,2320.142098265991,None,2321.729598510996,None,2,1.2114616009930614,2323.668044192993,None,2323.668044192993,None,2323.668044192993,None,None,None,None,None,2325.0550347969984,None,2325.0550347969984,None,right,2325.0550347969984,None,None,None,2325.1553077999997,2327.06031520899,0.05647983500966802,,,,,,,,,,,,,116,001,19,1,2020_Feb_19_1055,Test,3.2.4,59.84055734785389,
Pictures/IA25_G15.bmp,Pictures/IA25_G15.bmp,Pictures/IA25.bmp,"

"I think you should take a gamble."",1,risk,,,,,2,0,2,0,0,14,14,12,,,,,,,,,,,,,,,,,,,,,,,,,,,,,,,2327.0770405090007,None,2329.0990366679907,2330.6197091629874,2330.60299595799,None,2332.1069712069875,None,1,0.9665472080087056,2334.1289549609937,None,2334.1289549609937,None,2334.1289549609937,None,2335.21515973199,None,2335.21515973199,2336.217800294995,2337.3541349229927,None,2337.3541349229927,None,left,2337.3541349229927,None,2338.139537054987,2339.342708160999,None,None,0.7493764810060384,,,,,,,,,,,,,116,001,19,1,2020_Feb_19_1055,Test,3.2.4,59.84055734785389,
Pictures/IA75_G15.bmp,Pictures/IA75_G15.bmp,Pictures/IA75.bmp,"

"Take a chance!"",1,risk,,,,,2,0,2,0,0,15,15,6,,,,,,,,,,,,,,,,,,,,,,,,,,,,,,,2339.3594057019945,None,2341.381403970998,2342.902075861988,2342.8853819409997,None,2344.4561804979894,None,2,1.18816298499587,2346.411345053988,None,2346.411345053988,None,2346.411345053988,None,None,None,None,None,2347.7481972509995,None,2347.7481972509995,None,right,2347.7481972509995,None,None,None,2348.232798050987,2349.7367759089975,0.44329891400411725,,,,,,,,,,,,,116,001,19,1,2020_Feb_19_1055,Test,3.2.4,59.84055734785389,
Pictures/IA50_G10.bmp,Pictures/IA50_G10.bmp,Pictures/IA50.bmp,"

"Go with the safe option here!"",0,safe,,,,,2,0,2,0,0,16,16,19,,,,,,,,,,,,,,,,,,,,,,,,,,,,,,,2349.753472423996,None,2351.775474689988,2353.2961467699934,2353.2794561949995,None,2354.800112080993,None,2,0.3221025050006574,2356.8054033439985,None,2356.8054033439985,None,2356.8054033439985,None,None,None,None,None,2357.3067359559936,None,2357.3067359559936,None,right,2357.3067359559936,None,None,None,2357.5072490309976,2359.3120034159947,0.15676125198660884,,,,,,,,,,,,,116,001,19,1,2020_Feb_19_1055,Test,3.2.4,59.84055734785389,
Pictures/IA50_G40.bmp,Pictures/IA50_G40.bmp,Pictures/IA50.bmp,"

"It would probably be best to play it safe."",0,safe,,,,,2,0,2,0,0,17,17,5,,,,,,,,,,,,,,,,,,,,,,,,,,,,,,,2359.328732597991,None,2361.3507247209927,2362.871399230993,2362.8546837859903,None,2364.3753658379865,None,2,1.4348543859960046,2366.38064732599,None,2366.38064732599,None,2366.38064732599,None,None,None,None,None,2368.0183046169986,None,2368.0183046169986,None,right,2368.0183046169986,None,None,None,2368.486190644995,2370.0235738459887,0.42919649700343143,,,,,,,,,,,,,116,001,19,1,2020_Feb_19_1055,Test,3.2.4,59.84055734785389,
Pictures/IA20_10_G95p.bmp,Pictures/IA20_10_G95p.bmp,Pictures/IA20.bmp,"

"Take a leap, I think you should gamble."",1,risk,,,,,2,0,2,0,0,18,18,17,,,,,,,,,,,,,,,,,,,,,,,,,,,,,,,2370.040298597989,None,2372.062298113,2373.582982478998,2373.5662517159944,None,2375.086934213992,None,2,0.9552787680004258,2377.0922270739975,None,2377.0922270739975,None,2377.0922270739975,None,None,None,None,None,2378.2452533339965,None,2378.2452533339965,None,left,2378.2452533339965,None,2378.9471144769923,2380.2338266689912,None,None,0.6662432530138176,,,,,,,,,,,,,116,001,19,1,2020_Feb_19_1055,Test,3.2.4,59.84055734785389,
Pictures/IA50_L30.bmp,Pictures/IA50_L30.bmp,Pictures/IA50.bmp,"

"Take a leap, I think you should gamble."",1,risk,,,,,2,0,2,0,0,19,19,9,,,,,,,,,,,,,,,,,,,,,,,,,,,,,,,2380.250549450997,None,2382.2725454169995,2383.79322093699,2383.776502473993,None,2385.2971879489924,None,2,0.8410273169865832,2387.3024766159942,None,2387.3024766159942,None,2387.3024766159942,None,None,None,None,None,2388.271698462995,None,2388.271698462995,None,right,2388.271698462995,None,None,None,2388.5724847669917,2390.276980773997,0.2637976439873455,,,,,,,,,,,,,116,001,19,1,2020_Feb_19_1055,Test,3.2.4,59.84055734785389,
,,,,,,,,,,2,0,2,0,,,,,,,,,,,,,,,,,,,,,,,,,,,,,,,,,,,,,,,,,,,,,,,,,,,,,,,,,,,,,,,,,,,,,,,,,2390.4440820939926,None,return,7.387401510990458,2390.4440820939926,None,116,001,19,1,2020_Feb_19_1055,Test,3.2.4,59.84055734785389,
Pictures/IA25_G15.bmp,Pictures/IA25_G15.bmp,Pictures/IA25.bmp,"

"I think you should take a gamble."",1,risk,,,,,3,0,3,0,0,0,0,16,,,,,,,,,,,,,2397.997327870995,None,2397.997327870995,None,2397.997327870995,None,right,0.9461697280057706,2397.997327870995,None,2397.997327870995,None,2397.997327870995,None,return,4.625946976986597,2397.997327870995,None,2402.6763249259966,None,2404.681625387995,2406.2022971789993,2406.185582068996,None,2407.706253447992,None,2,1.0486537480028346,2409.694842978992,None,2409.694842978992,None,2409.694842978992,None,None,None,None,None,2410.914729898999,None,2410.914729898999,None,right,2410.914729898999,None,None,None,2411.215524155996,2412.903296956996,0.2527706999971997,,,,,,,,,,,,,116,001,19,1,2020_Feb_19_1055,Test,3.2.4,59.84055734785389,
Pictures/IA25_L10.bmp,Pictures/IA25_L10.bmp,Pictures/IA25.bmp,"

"Dont be afraid to take the risk!"",1,risk,,,,,3,0,3,0,0,1,1,14,,,,,,,,,,,,,,,,,,,,,,,,,,,,,,,2412.920001161998,None,2414.941994446999,2416.462669226996,2416.4459726279892,None,2417.9499261879973,None,2,2.4995781850011554,2419.9719379549933,None,2419.9719379549933,None,2419.9719379549933,None,None,None,None,None,2422.645640358998,None,2422.645640358998,None,right,2422.645640358998,None,None,None,2423.280655745999,2424.6509227779898,0.585855999001069,,,,,,,,,,,,,116,001,19,1,2020_Feb_19_1055,Test,3.2.4,59.84055734785389,
Pictures/IA50_G40.bmp,Pictures/IA50_G40.bmp,Pictures/IA50.bmp,"

"It would probably be best to play it safe."",0,safe,,,,,3,0,3,0,0,2,2,17,,,,,,,,,,,,,,,,,,,,,,,,,,,,,,,2424.6676465169876,None,2426.689642443991,2428.2103181089915,2428.193602949992,None,2429.697575594997,None,1,1.5119426619930891,2431.719561501988,None,2431.719561501988,None,2431.719561501988,None,2433.3738920869946,None,2433.3738920869946,2434.376561396988,2435.4961849139945,None,2435.4961849139945,None,left,2435.4961849139945,None,2435.8972506579885,2437.5014811579895,None,None,0.351313723003841,,,,,,,,,,,,,116,001,19,1,2020_Feb_19_1055,Test,3.2.4,59.84055734785389,
Pictures/IA75_G15.bmp,Pictures/IA75_G15.bmp,Pictures/IA75.bmp,"

"Take a chance!"",1,risk,,,,,3,0,3,0,0,3,3,9,,,,,,,,,,,,,,,,,,,,,,,,,,,,,,,2437.5181767589966,None,2439.540180251992,2441.06085360999,2441.0441552529956,None,2442.548107615992,None,2,0.9173803080047946,2444.570122922989,None,2444.570122922989,None,2444.570122922989,None,None,None,None,None,2445.673021563998,None,2445.673021563998,None,right,2445.673021563998,None,None,None,2446.2578982849955,2447.6615991979925,0.5504727969964733,,,,,,,,,,,,,116,001,19,1,2020_Feb_19_1055,Test,3.2.4,59.84055734785389,
Pictures/IA80_40_L95p.bmp,Pictures/IA80_40_L95p.bmp,Pictures/IA80.bmp,"

"Let's stay with the certain option."",0,safe,,,,,3,0,3,0,0,4,4,10,,,,,,,,,,,,,,,,,,,,,,,,,,,,,,,2447.678297118997,None,2449.700297349991,2451.220982027997,2451.204263184991,None,2452.7249491830007,None,2,0.9812572230002843,2454.730238277989,None,2454.730238277989,None,2454.730238277989,None,None,None,None,None,2455.9167040879984,None,2455.9167040879984,None,right,2455.9167040879984,None,None,None,2456.468151164998,2457.9052643319883,0.5068062560021644,,,,,,,,,,,,,116,001,19,1,2020_Feb_19_1055,Test,3.2.4,59.84055734785389,
Pictures/IA25_L5.bmp,Pictures/IA25_L5.bmp,Pictures/IA25.bmp,"

"It would be smarter to choose the safe option."",0,safe,,,,,3,0,3,0,0,5,5,4,,,,,,,,,,,,,,,,,,,,,,,,,,,,,,,2457.9219828159985,None,2459.943988536994,2461.4646542199916,2461.4479420599964,None,2463.0187564730004,None,2,1.5376055000087945,2464.973900017998,None,2464.973900017998,None,2464.973900017998,None,None,None,None,None,2466.695104510989,None,2466.695104510989,None,right,2466.695104510989,None,None,None,2466.9457632289996,2468.683675759996,0.2163901369931409,,,,,,,,,,,,,116,001,19,1,2020_Feb_19_1055,Test,3.2.4,59.84055734785389,
Pictures/IA100_L20.bmp,Pictures/IA100_L20.bmp,Pictures/IA100.bmp,"

"Try to win as much money as you can, gamble!"",1,risk,,,,,3,0,3,0,0,6,6,19,,,,,,,,,,,,,,,,,,,,,,,,,,,,,,,2468.700398850997,None,2470.722393429998,2472.243073843987,2472.2263520949928,None,2473.7470420229947,None,1,1.1271757219947176,2475.752327726994,None,2475.752327726994,None,2475.752327726994,None,2477.0390424809884,None,2477.0390424809884,2478.04167890799,2479.1445936829987,None,2479.1445936829987,None,left,2479.1445936829987,None,2480.698686675998,None,None,None,1.5188943840039428,,,,,,,,,,,,,116,001,19,1,2020_Feb_19_1055,Test,3.2.4,59.84055734785389,
Pictures/IA100_G20.bmp,Pictures/IA100_G20.bmp,Pictures/IA100.bmp,"

"Go ahead and gamble!"",1,risk,,,,,3,0,3,0,0,7,7,6,,,,,,,,,,,,,,,,,,,,,,,,,,,,,,,2481.149875653995,None,2483.1718738029886,2484.6925500929938,2484.675853223991,None,2486.196517200995,None,2,0.7897130789933726,2488.2018043569988,None,2488.2018043569988,None,2488.2018043569988,None,None,None,None,None,2489.154327324999,None,2489.154327324999,None,right,2489.154327324999,None,None,None,2489.3214200039947,2491.159608861999,0.1251735749974614,,,,,,,,,,,,,116,001,19,1,2020_Feb_19_1055,Test,3.2.4,59.84055734785389,
Pictures/IA80_40_G95p.bmp,Pictures/IA80_40_G95p.bmp,Pictures/IA80.bmp,"

"Think of the payoff, gamble!"",1,risk,,,,,3,0,3,0,0,8,8,1,,,,,,,,,,,,,,,,,,,,,,,,,,,,,,,2491.176309798,None,2493.198307279992,2494.718992443988,2494.702287833992,None,2496.239662144988,None,1,1.2512787559971912,2498.228253245994,None,2498.228253245994,None,2498.228253245994,None,2499.598530763993,None,2499.598530763993,2500.6011705299898,2501.7542130939983,None,2501.7542130939983,None,left,2501.7542130939983,None,2502.0215687979944,2503.74277317799,None,None,0.22928384601254947,,,,,,,,,,,,,116,001,19,1,2020_Feb_19_1055,Test,3.2.4,59.84055734785389,
Pictures/IA100_G40.bmp,Pictures/IA100_G40.bmp,Pictures/IA100.bmp,"

"Try your luck and gamble!"",1,risk,,,,,3,0,3,0,0,9,9,2,,,,,,,,,,,,,,,,,,,,,,,,,,,,,,,2503.759509273994,None,2505.7815016059903,2507.3021690479945,2507.285453491,None,2508.789429769997,None,2,0.7160918609879445,2510.8114147219894,None,2510.8114147219894,None,2510.8114147219894,None,None,None,None,None,2511.6803705839993,None,2511.6803705839993,None,right,2511.6803705839993,None,None,None,2512.6161806309974,2513.6856709479907,0.8951436429924797,,,,,,,,,,,,,116,001,19,1,2020_Feb_19_1055,Test,3.2.4,59.84055734785389,
Pictures/IA75_L30.bmp,Pictures/IA75_L30.bmp,Pictures/IA75.bmp,"

"Hold back, stay with the safe choice."",0,safe,,,,,3,0,3,0,0,10,10,7,,,,,,,,,,,,,,,,,,,,,,,,,,,,,,,2513.7023646799935,None,2515.724369160991,2517.245039893998,2517.22834535499,None,2518.765715149988,None,2,0.5011962979915552,2520.7543048769876,None,2520.7543048769876,None,2520.7543048769876,None,None,None,None,None,2521.4227256919985,None,2521.4227256919985,None,right,2521.4227256919985,None,None,None,2521.6733834429906,2523.4112934899895,0.21677042100054678,,,,,,,,,,,,,116,001,19,1,2020_Feb_19_1055,Test,3.2.4,59.84055734785389,
Pictures/IA40_20_G95p.bmp,Pictures/IA40_20_G95p.bmp,Pictures/IA40.bmp,"

"Hold back, stay with the safe choice."",0,safe,,,,,3,0,3,0,0,11,11,0,,,,,,,,,,,,,,,,,,,,,,,,,,,,,,,2523.4280176939938,None,2525.450019141994,2526.9706951879925,2526.9539734589926,None,2528.4913697629963,None,2,1.6875567569950363,2530.479939474986,None,2530.479939474986,None,2530.479939474986,None,None,None,None,None,2532.2846946339996,None,2532.2846946339996,None,left,2532.2846946339996,None,2532.602209449993,2534.2732666589873,None,None,0.28281276699271984,,,,,,,,,,,,,116,001,19,1,2020_Feb_19_1055,Test,3.2.4,59.84055734785389,
Pictures/IA75_L15.bmp,Pictures/IA75_L15.bmp,Pictures/IA75.bmp,"

"Trust me–gamble!"",1,risk,,,,,3,0,3,0,0,12,12,8,,,,,,,,,,,,,,,,,,,,,,,,,,,,,,,2534.2899883949867,None,2536.3119902809995,2537.8326633299876,2537.815940789995,None,2539.3867637229996,None,2,0.513594332995126,2541.341908092989,None,2541.341908092989,None,2541.341908092989,None,None,None,None,None,2542.0103357629996,None,2542.0103357629996,None,right,2542.0103357629996,None,None,None,2542.277716654993,2543.998919562,0.22115742700407282,,,,,,,,,,,,,116,001,19,1,2020_Feb_19_1055,Test,3.2.4,59.84055734785389,
Pictures/IA100_L80.bmp,Pictures/IA100_L80.bmp,Pictures/IA100.bmp,"

"Go all in!"",1,risk,,,,,3,0,3,0,0,13,13,12,,,,,,,,,,,,,,,,,,,,,,,,,,,,,,,2544.0156189099944,None,2546.0376176439895,2547.558291630994,2547.541596983996,None,2549.0622601239884,None,2,0.6519546039926354,2551.067552909997,None,2551.067552909997,None,2551.067552909997,None,None,None,None,None,2551.8696783259948,None,2551.8696783259948,None,right,2551.8696783259948,None,None,None,2552.538091255992,2553.8749454569916,0.625832724996144,,,,,,,,,,,,,116,001,19,1,2020_Feb_19_1055,Test,3.2.4,59.84055734785389,
Pictures/IA25_G5.bmp,Pictures/IA25_G5.bmp,Pictures/IA25.bmp,"

"Let's stay with the certain option."",0,safe,,,,,3,0,3,0,0,14,14,18,,,,,,,,,,,,,,,,,,,,,,,,,,,,,,,2553.8916693849897,None,2555.913672576993,2557.4176203789975,2557.400928105999,None,2558.9550213669863,None,2,0.5838945110008353,2560.9436036349944,None,2560.9436036349944,None,2560.9436036349944,None,None,None,None,None,2561.745700542,None,2561.745700542,None,right,2561.745700542,None,None,None,2561.812552618998,2563.7342845709936,0.02179506300308276,,,,,,,,,,,,,116,001,19,1,2020_Feb_19_1055,Test,3.2.4,59.84055734785389,
Pictures/IA100_G60.bmp,Pictures/IA100_G60.bmp,Pictures/IA100.bmp,"

"Be cautious, don't gamble for this one."",0,safe,,,,,3,0,3,0,0,15,15,15,,,,,,,,,,,,,,,,,,,,,,,,,,,,,,,2563.750985223989,None,2565.772983376999,2567.293657527989,2567.276961831987,None,2568.814335652991,None,1,0.8365797799924621,2570.8029256589944,None,2570.8029256589944,None,2570.8029256589944,None,2571.7888588399946,None,2571.7888588399946,2572.7915120830003,2573.8944133419864,None,2573.8944133419864,None,left,2573.8944133419864,None,2574.479281106993,2575.8829811469914,None,None,0.5450740819942439,,,,,,,,,,,,,116,001,19,1,2020_Feb_19_1055,Test,3.2.4,59.84055734785389,
Pictures/IA20_10_L95p.bmp,Pictures/IA20_10_L95p.bmp,Pictures/IA20.bmp,"

"Don't be tempted to gamble."",0,safe,,,,,3,0,3,0,0,16,16,3,,,,,,,,,,,,,,,,,,,,,,,,,,,,,,,2575.8996847909875,None,2577.921681707987,2579.442355697989,2579.4256597549975,None,2580.9630309549975,None,2,1.01585489900026,2582.9516453260003,None,2582.9516453260003,None,2582.9516453260003,None,None,None,None,None,2584.138085639992,None,2584.138085639992,None,right,2584.138085639992,None,None,None,2584.3385976739955,2586.1433585859922,0.16540368500864133,,,,,,,,,,,,,116,001,19,1,2020_Feb_19_1055,Test,3.2.4,59.84055734785389,
Pictures/IA75_G30.bmp,Pictures/IA75_G30.bmp,Pictures/IA75.bmp,"

"Be bold, gamble!"",1,risk,,,,,3,0,3,0,0,17,17,13,,,,,,,,,,,,,,,,,,,,,,,,,,,,,,,2586.1600789349905,None,2588.182080915998,2589.7027512389905,2589.6860319869884,None,2591.1900076169986,None,2,1.2674991800013231,2593.211996945989,None,2593.211996945989,None,2593.211996945989,None,None,None,None,None,2594.632419212998,None,2594.632419212998,None,right,2594.632419212998,None,None,None,2595.08360651799,2596.620994214987,0.41507480200380087,,,,,,,,,,,,,116,001,19,1,2020_Feb_19_1055,Test,3.2.4,59.84055734785389,
Pictures/IA100_L40.bmp,Pictures/IA100_L40.bmp,Pictures/IA100.bmp,"

"Think of the payoff, gamble!"",1,risk,,,,,3,0,3,0,0,18,18,11,,,,,,,,,,,,,,,,,,,,,,,,,,,,,,,2596.63769116599,None,2598.6596918769937,2600.180367737994,2600.163672926996,None,2601.684331952987,None,None,,2603.689622679987,None,2603.689622679987,None,2603.689622679987,None,None,None,None,None,2606.797823115994,None,2606.797823115994,None,left,2606.797823115994,None,2607.4495461439947,2608.7863911719905,None,None,0.6016695730068022,,,,,,,,,,,,,116,001,19,1,2020_Feb_19_1055,Test,3.2.4,59.84055734785389,
Pictures/IA75_G60.bmp,Pictures/IA75_G60.bmp,Pictures/IA75.bmp,"

"Make it exciting, take a chance!"",1,risk,,,,,3,0,3,0,0,19,19,5,,,,,,,,,,,,,,,,,,,,,,,,,,,,,,,2608.8031443749933,None,2610.825111440994,2612.3458377679926,2612.3291253429925,None,2613.899884238999,None,1,1.8564683430013247,2615.8550346129923,None,2615.8550346129923,None,2615.8550346129923,None,2617.8436184460006,None,2617.8436184460006,2618.8462562209897,2619.9491729049914,None,2619.9491729049914,None,left,2619.9491729049914,None,2620.4337766099925,2621.937744464987,None,None,0.4503207670059055,,,,,,,,,,,,,116,001,19,1,2020_Feb_19_1055,Test,3.2.4,59.84055734785389,
,,,,,,,,,,3,0,3,0,,,,,,,,,,,,,,,,,,,,,,,,,,,,,,,,,,,,,,,,,,,,,,,,,,,,,,,,,,,,,,,,,,,,,,,,,2622.1048543779907,None,return,5.654633690006449,2622.1048543779907,None,116,001,19,1,2020_Feb_19_1055,Test,3.2.4,59.84055734785389,
Pictures/IA110_55_G95p.bmp,Pictures/IA110_55_G95p.bmp,Pictures/IA110.bmp,"

"Take a chance!"",1,risk,,,,,4,0,4,0,0,0,0,8,,,,,,,,,,,,,2627.920185386989,None,2627.920185386989,None,2627.920185386989,None,left,0.8873089350090595,2627.920185386989,None,2627.920185386989,None,2627.920185386989,None,return,2.047092920009163,2627.920185386989,None,2630.025733862989,None,2632.031008244987,2633.5516845759994,2633.5349890419893,None,2635.0556647009944,None,2,0.7632681520044571,2637.044234173998,None,2637.044234173998,None,2637.044234173998,None,None,None,None,None,2637.9633310589998,None,2637.9633310589998,None,left,2637.9633310589998,None,2638.247414049998,2639.9518960949936,None,None,0.2441633760026889,,,,,,,,,,,,,116,001,19,1,2020_Feb_19_1055,Test,3.2.4,59.84055734785389,
Pictures/IA75_L30.bmp,Pictures/IA75_L30.bmp,Pictures/IA75.bmp,"

"Hold back, stay with the safe choice."",0,safe,,,,,4,0,4,0,0,1,1,3,,,,,,,,,,,,,,,,,,,,,,,,,,,,,,,2639.9686171069916,None,2641.990616612995,2643.5112901329994,2643.49457067599,None,2644.9985459710006,None,1,1.114969561007456,2647.0205347299925,None,2647.0205347299925,None,2647.0205347299925,None,2648.273838615991,None,2648.273838615991,2649.2764784829924,2650.379391972994,None,2650.379391972994,None,left,2650.379391972994,None,2651.3987417269964,None,None,None,0.9721046329941601,,,,,,,,,,,,,116,001,19,1,2020_Feb_19_1055,Test,3.2.4,59.84055734785389,
Pictures/IA50_G30.bmp,Pictures/IA50_G30.bmp,Pictures/IA50.bmp,"

"I think you should gamble."",1,risk,,,,,4,0,4,0,0,2,2,15,,,,,,,,,,,,,,,,,,,,,,,,,,,,,,,2652.3846727459895,None,2654.406675624996,2655.9273540219874,2655.910656630993,None,2657.4480289099884,None,2,1.6348816200043075,2659.4366229139996,None,2659.4366229139996,None,2659.4366229139996,None,None,None,None,None,2661.258079091989,None,2661.258079091989,None,left,2661.258079091989,None,2661.508732262999,2663.2633688689966,None,None,0.2134154540108284,,,,,,,,,,,,,116,001,19,1,2020_Feb_19_1055,Test,3.2.4,59.84055734785389,
Pictures/IA25_L15.bmp,Pictures/IA25_L15.bmp,Pictures/IA25.bmp,"

"There's not much on the line here, gamble!"",1,risk,,,,,4,0,4,0,0,3,3,17,,,,,,,,,,,,,,,,,,,,,,,,,,,,,,,2663.280071849993,None,2665.3020668379904,2666.80604659699,2666.7893292429944,None,2668.3267120719975,None,2,0.595503415010171,2670.33199929299,None,2670.33199929299,None,2670.33199929299,None,None,None,None,None,2671.1174141169904,None,2671.1174141169904,None,right,2671.1174141169904,None,None,None,2671.3012297179957,2673.1059755049937,0.14608163699449506,,,,,,,,,,,,,116,001,19,1,2020_Feb_19_1055,Test,3.2.4,59.84055734785389,
Pictures/IA25_G20.bmp,Pictures/IA25_G20.bmp,Pictures/IA25.bmp,"

"I wouldn't gamble for this one. "",0,safe,,,,,4,0,4,0,0,4,4,13,,,,,,,,,,,,,,,,,,,,,,,,,,,,,,,2673.1226984049863,None,2675.1446974049904,2676.665370579998,2676.6486532719864,None,2678.1860548559926,None,2,0.5608975680079311,2680.174618346995,None,2680.174618346995,None,2680.174618346995,None,None,None,None,None,2680.9099078639993,None,2680.9099078639993,None,right,2680.9099078639993,None,None,None,2681.1772591129993,2682.9151735999912,0.2255990039993776,,,,,,,,,,,,,116,001,19,1,2020_Feb_19_1055,Test,3.2.4,59.84055734785389,
Pictures/IA40_20_G95p.bmp,Pictures/IA40_20_G95p.bmp,Pictures/IA40.bmp,"

"Hold back, stay with the safe choice."",0,safe,,,,,4,0,4,0,0,5,5,2,,,,,,,,,,,,,,,,,,,,,,,,,,,,,,,2682.931894861991,None,2684.9538942609943,2686.474570981998,2686.457852884996,None,2687.961830094995,None,1,1.9757054320070893,2689.983815091997,None,2689.983815091997,None,2689.983815091997,None,2692.106076017997,None,2692.106076017997,2693.108711383,2694.211630781996,None,2694.211630781996,None,left,2694.211630781996,None,2694.7798074859893,2696.216910724994,None,None,0.5238808519934537,,,,,,,,,,,,,116,001,19,1,2020_Feb_19_1055,Test,3.2.4,59.84055734785389,
Pictures/IA20_10_G95p.bmp,Pictures/IA20_10_G95p.bmp,Pictures/IA20.bmp,"

"Take a leap, I think you should gamble."",1,risk,,,,,4,0,4,0,0,6,6,12,,,,,,,,,,,,,,,,,,,,,,,,,,,,,,,2696.2336355929874,None,2698.2556339769944,2699.7595873719984,2699.7428926379944,None,2701.2969940529874,None,2,0.9459485209954437,2703.2855545509956,None,2703.2855545509956,None,2703.2855545509956,None,None,None,None,None,2704.405174401996,None,2704.405174401996,None,left,2704.405174401996,None,2704.522148277989,2706.3937502199988,None,None,0.08231529299519025,,,,,,,,,,,,,116,001,19,1,2020_Feb_19_1055,Test,3.2.4,59.84055734785389,
Pictures/IA80_40_G95p.bmp,Pictures/IA80_40_G95p.bmp,Pictures/IA80.bmp,"

"Think of the payoff, gamble!"",1,risk,,,,,4,0,4,0,0,7,7,7,,,,,,,,,,,,,,,,,,,,,,,,,,,,,,,2706.410468912989,None,2708.4324704850005,2709.953145541993,2709.936423508989,None,2711.44040101899,None,2,0.7131085329892812,2713.4623949929955,None,2713.4623949929955,None,2713.4623949929955,None,None,None,None,None,2714.348057833995,None,2714.348057833995,None,left,2714.348057833995,None,2714.632138060988,2716.3366475499934,None,None,0.23544936800317373,,,,,,,,,,,,,116,001,19,1,2020_Feb_19_1055,Test,3.2.4,59.84055734785389,
Pictures/IA75_G45.bmp,Pictures/IA75_G45.bmp,Pictures/IA75.bmp,"

"Don't gamble for this one."",0,safe,,,,,4,0,4,0,0,8,8,10,,,,,,,,,,,,,,,,,,,,,,,,,,,,,,,2716.35334171899,None,2718.375340096987,2719.8960153519874,2719.8793200439977,None,2721.4334039759997,None,1,1.1302326409931993,2723.405271279,None,2723.405271279,None,2723.405271279,None,2724.64188260799,None,2724.64188260799,2725.6445182899915,2726.747434745994,None,2726.747434745994,None,left,2726.747434745994,None,2728.4519130009867,None,None,None,1.6680576290091267,,,,,,,,,,,,,116,001,19,1,2020_Feb_19_1055,Test,3.2.4,59.84055734785389,
Pictures/IA100_G60.bmp,Pictures/IA100_G60.bmp,Pictures/IA100.bmp,"

"Be cautious, don't gamble for this one."",0,safe,,,,,4,0,4,0,0,9,9,4,,,,,,,,,,,,,,,,,,,,,,,,,,,,,,,2728.769412950991,None,2730.7914112789877,2732.3120885229873,2732.2953904179885,None,2733.816054646988,None,2,1.6021571409946773,2735.8213445439906,None,2735.8213445439906,None,2735.8213445439906,None,None,None,None,None,2737.592704851995,None,2737.592704851995,None,left,2737.592704851995,None,2737.843353502991,2739.5812784269947,None,None,0.2067994350072695,,,,,,,,,,,,,116,001,19,1,2020_Feb_19_1055,Test,3.2.4,59.84055734785389,
Pictures/IA75_G60.bmp,Pictures/IA75_G60.bmp,Pictures/IA75.bmp,"

"Make it exciting, take a chance!"",1,risk,,,,,4,0,4,0,0,10,10,14,,,,,,,,,,,,,,,,,,,,,,,,,,,,,,,2739.59796884199,None,2741.6199673979863,2743.1406438389968,2743.1239423429943,None,2744.6446116959996,None,2,1.3976034469960723,2746.6499000559998,None,2746.6499000559998,None,2746.6499000559998,None,None,None,None,None,2748.2206791609933,None,2748.2206791609933,None,left,2748.2206791609933,None,2748.471374732995,2750.209287598991,None,None,0.21082929099793546,,,,,,,,,,,,,116,001,19,1,2020_Feb_19_1055,Test,3.2.4,59.84055734785389,
Pictures/IA50_G20.bmp,Pictures/IA50_G20.bmp,Pictures/IA50.bmp,"

"Let's venture and take a risk!"",1,risk,,,,,4,0,4,0,0,11,11,16,,,,,,,,,,,,,,,,,,,,,,,,,,,,,,,2750.225989015991,None,2752.2479898339952,2753.768663074996,2753.7519672429917,None,2755.2726319219946,None,2,0.6335841950058239,2757.277919532993,None,2757.277919532993,None,2757.277919532993,None,None,None,None,None,2758.0800455930002,None,2758.0800455930002,None,right,2758.0800455930002,None,None,None,2758.397550001988,2760.068619023994,0.279451488997438,,,,,,,,,,,,,116,001,19,1,2020_Feb_19_1055,Test,3.2.4,59.84055734785389,
Pictures/IA80_40_L95p.bmp,Pictures/IA80_40_L95p.bmp,Pictures/IA80.bmp,"

"Let's stay with the certain option."",0,safe,,,,,4,0,4,0,0,12,12,5,,,,,,,,,,,,,,,,,,,,,,,,,,,,,,,2760.0853201059945,None,2762.1073209339957,2763.6279941429966,2763.6113012409915,None,2765.148671995994,None,2,1.5662322389980545,2767.1372638030007,None,2767.1372638030007,None,2767.1372638030007,None,None,None,None,None,2768.8751666069875,None,2768.8751666069875,None,right,2768.8751666069875,None,None,None,2768.9754454309877,2770.880465721988,0.06032838800456375,,,,,,,,,,,,,116,001,19,1,2020_Feb_19_1055,Test,3.2.4,59.84055734785389,
Pictures/IA100_G80.bmp,Pictures/IA100_G80.bmp,Pictures/IA100.bmp,"

"Why not gamble?"",1,risk,,,,,4,0,4,0,0,13,13,11,,,,,,,,,,,,,,,,,,,,,,,,,,,,,,,2770.897160581997,None,2772.9191599829937,2774.4398377999896,2774.423140120998,None,2775.94381014799,None,2,2.6344184600020526,2777.9490930739994,None,2777.9490930739994,None,2777.9490930739994,None,None,None,None,None,2780.756511101994,None,2780.756511101994,None,left,2780.756511101994,None,2781.491762999998,2782.761789881988,None,None,0.6989677370002028,,,,,,,,,,,,,116,001,19,1,2020_Feb_19_1055,Test,3.2.4,59.84055734785389,
Pictures/IA50_L20.bmp,Pictures/IA50_L20.bmp,Pictures/IA50.bmp,"

"Certainty is boring, take a risk!"",1,risk,,,,,4,0,4,0,0,14,14,6,,,,,,,,,,,,,,,,,,,,,,,,,,,,,,,2782.7784898049867,None,2784.8004914539924,2786.3211649649893,2786.3044675189885,None,2787.8251324640005,None,2,1.2250799649918918,2789.830421502993,None,2789.830421502993,None,2789.830421502993,None,None,None,None,None,2791.234138007989,None,2791.234138007989,None,left,2791.234138007989,None,2792.2367629169894,None,None,None,0.9573610790102975,,,,,,,,,,,,,116,001,19,1,2020_Feb_19_1055,Test,3.2.4,59.84055734785389,
Pictures/IA100_L20.bmp,Pictures/IA100_L20.bmp,Pictures/IA100.bmp,"

"Try to win as much money as you can, gamble!"",1,risk,,,,,4,0,4,0,0,15,15,18,,,,,,,,,,,,,,,,,,,,,,,,,,,,,,,2793.2394184959994,None,2795.261418650989,2796.782091994988,2796.7653754529892,None,2798.30277907,None,2,0.8121629679953912,2800.2913408899913,None,2800.2913408899913,None,2800.2913408899913,None,None,None,None,None,2801.2772736289917,None,2801.2772736289917,None,right,2801.2772736289917,None,None,None,2802.948351715997,None,1.6262226830003783,,,,,,,,,,,,,116,001,19,1,2020_Feb_19_1055,Test,3.2.4,59.84055734785389,
Pictures/IA75_L15.bmp,Pictures/IA75_L15.bmp,Pictures/IA75.bmp,"

"Trust me–gamble!"",1,risk,,,,,4,0,4,0,0,16,16,9,,,,,,,,,,,,,,,,,,,,,,,,,,,,,,,2803.299265666996,None,2805.32127214699,2806.841940257,2806.8252518949885,None,2808.3291998099885,None,2,1.7522867069928907,2810.351215247996,None,2810.351215247996,None,2810.351215247996,None,None,None,None,None,2812.2562327880005,None,2812.2562327880005,None,left,2812.2562327880005,None,2813.27558356199,None,None,None,0.983257322004647,,,,,,,,,,,,,116,001,19,1,2020_Feb_19_1055,Test,3.2.4,59.84055734785389,
Pictures/IA25_L20.bmp,Pictures/IA25_L20.bmp,Pictures/IA25.bmp,"

"Don't be tempted to gamble."",0,safe,,,,,4,0,4,0,0,17,17,0,,,,,,,,,,,,,,,,,,,,,,,,,,,,,,,2814.2615169089986,None,2816.283517548989,2817.8041897599905,2817.7874717919913,None,2819.3081227269868,None,2,0.5100558010017266,2821.3134493929974,None,2821.3134493929974,None,2821.3134493929974,None,None,None,None,None,2821.9985894349957,None,2821.9985894349957,None,right,2821.9985894349957,None,None,None,2822.2158254019887,2824.0038769279927,0.17690358699474018,,,,,,,,,,,,,116,001,19,1,2020_Feb_19_1055,Test,3.2.4,59.84055734785389,
Pictures/IA100_L80.bmp,Pictures/IA100_L80.bmp,Pictures/IA100.bmp,"

"Go all in!"",1,risk,,,,,4,0,4,0,0,18,18,19,,,,,,,,,,,,,,,,,,,,,,,,,,,,,,,2824.0205722329993,None,2826.0426135089947,2827.546584849988,2827.5298684699956,None,2829.100636534,None,2,0.23100352699111681,2831.0725049149914,None,2831.0725049149914,None,2831.0725049149914,None,None,None,None,None,2831.4401190009958,None,2831.4401190009958,None,right,2831.4401190009958,None,None,None,2831.6573878879863,2833.445435328991,0.18337553298624698,,,,,,,,,,,,,116,001,19,1,2020_Feb_19_1055,Test,3.2.4,59.84055734785389,
Pictures/IA50_G40.bmp,Pictures/IA50_G40.bmp,Pictures/IA50.bmp,"

"It would probably be best to play it safe."",0,safe,,,,,4,0,4,0,0,19,19,1,,,,,,,,,,,,,,,,,,,,,,,,,,,,,,,2833.4621348899964,None,2835.5175546440005,2837.0215305979946,2837.004812580999,None,2838.5421991529875,None,1,1.6054267659928882,2840.514071544996,None,2840.514071544996,None,2840.514071544996,None,2842.2686924539885,None,2842.2686924539885,2843.271331907992,2844.3909551839897,None,2844.3909551839897,None,left,2844.3909551839897,None,2844.691757706998,2846.396241948998,None,None,0.25653864099876955,,,,,,,,,,,,,116,001,19,1,2020_Feb_19_1055,Test,3.2.4,59.84055734785389,
,,,,,,,,,,4,0,4,0,,,,,,,,,,,,,,,,,,,,,,,,,,,,,,,,,,,,,,,,,,,,,,,,,,,,,,,,,,,,,,,,,,,,,,,,,2846.563367498995,None,return,3.9001216489996295,2846.563367498995,None,116,001,19,1,2020_Feb_19_1055,Test,3.2.4,59.84055734785389,
Pictures/IA20_10_G95p.bmp,Pictures/IA20_10_G95p.bmp,Pictures/IA20.bmp,"

"Take a leap, I think you should gamble."",1,risk,,,,,5,0,5,0,0,0,0,1,,,,,,,,,,,,,2850.6741907639953,None,2850.6741907639953,None,2850.6741907639953,None,right,1.3173057100066217,2850.6741907639953,None,2850.6741907639953,None,2850.6741907639953,None,return,2.205073732009623,2850.6741907639953,None,2852.9301463640004,None,2854.952138141991,2856.4728134469915,2856.4561221109907,None,2857.993491395988,None,1,0.5468486289901193,2859.9486645139987,None,2859.9486645139987,None,2859.9486645139987,None,2860.6338006809965,None,2860.6338006809965,2861.6364392589894,2862.739352531993,None,2862.739352531993,None,right,2862.739352531993,None,None,None,2863.023432056987,2864.7279187469976,0.23614422998798545,,,,,,,,,,,,,116,001,19,1,2020_Feb_19_1055,Test,3.2.4,59.84055734785389,
Pictures/IA50_L20.bmp,Pictures/IA50_L20.bmp,Pictures/IA50.bmp,"

"Certainty is boring, take a risk!"",1,risk,,,,,5,0,5,0,0,1,1,14,,,,,,,,,,,,,,,,,,,,,,,,,,,,,,,2864.7446341529867,None,2866.7666361479933,2868.287308777988,2868.270590825996,None,2869.8246991619963,None,2,1.8509342890029075,2871.7965689429984,None,2871.7965689429984,None,2871.7965689429984,None,None,None,None,None,2873.8185685309872,None,2873.8185685309872,None,left,2873.8185685309872,None,2874.136067954998,2875.8071389469987,None,None,0.2769240780035034,,,,,,,,,,,,,116,001,19,1,2020_Feb_19_1055,Test,3.2.4,59.84055734785389,
Pictures/IA25_L5.bmp,Pictures/IA25_L5.bmp,Pictures/IA25.bmp,"

"It would be smarter to choose the safe option."",0,safe,,,,,5,0,5,0,0,2,2,4,,,,,,,,,,,,,,,,,,,,,,,,,,,,,,,2875.8238388839964,None,2877.8625461899937,2879.3665244609874,2879.3498101469886,None,2880.9039167689916,None,2,1.587706545004039,2882.8757830979885,None,2882.8757830979885,None,2882.8757830979885,None,None,None,None,None,2884.647108962992,None,2884.647108962992,None,left,2884.647108962992,None,2884.8977674619964,2886.635681293992,None,None,0.21638612299284432,,,,,,,,,,,,,116,001,19,1,2020_Feb_19_1055,Test,3.2.4,59.84055734785389,
Pictures/IA75_L15.bmp,Pictures/IA75_L15.bmp,Pictures/IA75.bmp,"

"Trust me–gamble!"",1,risk,,,,,5,0,5,0,0,3,3,9,,,,,,,,,,,,,,,,,,,,,,,,,,,,,,,2886.6524034009926,None,2888.6911158879957,2890.2117915839917,2890.195072353992,None,2891.7324578049884,None,1,0.9671670969983097,2893.7043270189897,None,2893.7043270189897,None,2893.7043270189897,None,2894.7738246969966,None,2894.7738246969966,2895.7764640029927,2896.8793797869876,None,2896.8793797869876,None,left,2896.8793797869876,None,2898.032415016991,None,None,None,1.1041211180126993,,,,,,,,,,,,,116,001,19,1,2020_Feb_19_1055,Test,3.2.4,59.84055734785389,
Pictures/IA75_L45.bmp,Pictures/IA75_L45.bmp,Pictures/IA75.bmp,"

"Don't gamble for this one, play it safe."",0,safe,,,,,5,0,5,0,0,4,4,6,,,,,,,,,,,,,,,,,,,,,,,,,,,,,,,2898.8846603679995,None,2900.906658901993,2902.42733530399,2902.4106198419904,None,2903.9647389959864,None,1,1.270902810007101,2905.936595223,None,2905.936595223,None,2905.936595223,None,2907.357008669991,None,2907.357008669991,2908.35964562399,2909.4625601379958,None,2909.4625601379958,None,right,2909.4625601379958,None,None,None,2909.8301773540006,2911.4678424429876,0.3209387310052989,,,,,,,,,,,,,116,001,19,1,2020_Feb_19_1055,Test,3.2.4,59.84055734785389,
Pictures/IA100_L40.bmp,Pictures/IA100_L40.bmp,Pictures/IA100.bmp,"

"Think of the payoff, gamble!"",1,risk,,,,,5,0,5,0,0,5,5,12,,,,,,,,,,,,,,,,,,,,,,,,,,,,,,,2911.4845403419895,None,2913.5065447259985,2915.0272199989995,2915.010521445991,None,2916.5813142599945,None,2,1.7910209319961723,2918.536487114994,None,2918.536487114994,None,2918.536487114994,None,None,None,None,None,2920.5083431209932,None,2920.5083431209932,None,left,2920.5083431209932,None,2920.9762485969986,2922.513613477,None,None,0.42714890000934247,,,,,,,,,,,,,116,001,19,1,2020_Feb_19_1055,Test,3.2.4,59.84055734785389,
Pictures/IA50_G20.bmp,Pictures/IA50_G20.bmp,Pictures/IA50.bmp,"

"Let's venture and take a risk!"",1,risk,,,,,5,0,5,0,0,6,6,18,,,,,,,,,,,,,,,,,,,,,,,,,,,,,,,2922.530335378993,None,2924.5523366989946,2926.0730109689903,2926.0563163859915,None,2927.5936928059964,None,2,1.2732242900092388,2929.5822808079974,None,2929.5822808079974,None,2929.5822808079974,None,None,None,None,None,2931.0528231699864,None,2931.0528231699864,None,right,2931.0528231699864,None,None,None,2931.119658313997,2933.0581088409963,0.01867456900072284,,,,,,,,,,,,,116,001,19,1,2020_Feb_19_1055,Test,3.2.4,59.84055734785389,
Pictures/IA25_G20.bmp,Pictures/IA25_G20.bmp,Pictures/IA25.bmp,"

"I wouldn't gamble for this one. "",0,safe,,,,,5,0,5,0,0,7,7,13,,,,,,,,,,,,,,,,,,,,,,,,,,,,,,,2933.074809272992,None,2935.0968116250006,2936.6174819369917,2936.6007918989926,None,2938.154876362998,None,2,1.6567575199878775,2940.1267411019944,None,2940.1267411019944,None,2940.1267411019944,None,None,None,None,None,2941.964933640993,None,2941.964933640993,None,left,2941.964933640993,None,2942.3158558469877,2943.9702127359924,None,None,0.3065632459911285,,,,,,,,,,,,,116,001,19,1,2020_Feb_19_1055,Test,3.2.4,59.84055734785389,
Pictures/IA100_L80.bmp,Pictures/IA100_L80.bmp,Pictures/IA100.bmp,"

"Go all in!"",1,risk,,,,,5,0,5,0,0,8,8,11,,,,,,,,,,,,,,,,,,,,,,,,,,,,,,,2943.986924715995,None,2946.0089155179885,2947.529596961991,2947.512897513996,None,2949.0335593509953,None,2,0.8646534110011999,2951.0388503229915,None,2951.0388503229915,None,2951.0388503229915,None,None,None,None,None,2952.0582141859923,None,2952.0582141859923,None,right,2952.0582141859923,None,None,None,2952.208617202996,2954.0467887399864,0.10129159099597018,,,,,,,,,,,,,116,001,19,1,2020_Feb_19_1055,Test,3.2.4,59.84055734785389,
Pictures/IA75_G30.bmp,Pictures/IA75_G30.bmp,Pictures/IA75.bmp,"

"Be bold, gamble!"",1,risk,,,,,5,0,5,0,0,9,9,10,,,,,,,,,,,,,,,,,,,,,,,,,,,,,,,2954.0634903389873,None,2956.0854904109874,2957.6061644209985,2957.5894686229876,None,2959.143558740994,None,2,0.5320851740107173,2961.1154195059935,None,2961.1154195059935,None,2961.1154195059935,None,None,None,None,None,2961.8005773729965,None,2961.8005773729965,None,right,2961.8005773729965,None,None,None,2962.836625484997,None,0.9989149650064064,,,,,,,,,,,,,116,001,19,1,2020_Feb_19_1055,Test,3.2.4,59.84055734785389,
Pictures/IA75_L30.bmp,Pictures/IA75_L30.bmp,Pictures/IA75.bmp,"

"Hold back, stay with the safe choice."",0,safe,,,,,5,0,5,0,0,10,10,17,,,,,,,,,,,,,,,,,,,,,,,,,,,,,,,2963.8225573559903,None,2965.844558643992,2967.3485336769954,2967.331815581987,None,2968.902622757989,None,2,1.6210057090065675,2970.8744926999934,None,2970.8744926999934,None,2970.8744926999934,None,None,None,None,None,2972.6959798759926,None,2972.6959798759926,None,left,2972.6959798759926,None,2973.280840375999,2974.6845340180007,None,None,0.5355182490020525,,,,,,,,,,,,,116,001,19,1,2020_Feb_19_1055,Test,3.2.4,59.84055734785389,
Pictures/IA40_20_G95p.bmp,Pictures/IA40_20_G95p.bmp,Pictures/IA40.bmp,"

"Hold back, stay with the safe choice."",0,safe,,,,,5,0,5,0,0,11,11,19,,,,,,,,,,,,,,,,,,,,,,,,,,,,,,,2974.7012684079964,None,2976.7566806209943,2978.2606302879867,2978.24393650399,None,2979.7813270669867,None,2,1.3983061769977212,2981.753190088988,None,2981.753190088988,None,2981.753190088988,None,None,None,None,None,2983.2738581299927,None,2983.2738581299927,None,right,2983.2738581299927,None,None,None,2983.4409779179987,2985.2791398579866,0.13364787900354713,,,,,,,,,,,,,116,001,19,1,2020_Feb_19_1055,Test,3.2.4,59.84055734785389,
Pictures/IA50_L10.bmp,Pictures/IA50_L10.bmp,Pictures/IA50.bmp,"

"Play it safe, don’t gamble!"",0,safe,,,,,5,0,5,0,0,12,12,16,,,,,,,,,,,,,,,,,,,,,,,,,,,,,,,2985.2958630919893,None,2987.317860735988,2988.8385412450007,2988.821819179997,None,2990.375933253992,None,2,1.003715872997418,2992.347796156988,None,2992.347796156988,None,2992.347796156988,None,None,None,None,None,2993.517548869,None,2993.517548869,None,left,2993.517548869,None,2993.8350487159914,2995.5061224569945,None,None,0.2739604170055827,,,,,,,,,,,,,116,001,19,1,2020_Feb_19_1055,Test,3.2.4,59.84055734785389,
Pictures/IA100_G20.bmp,Pictures/IA100_G20.bmp,Pictures/IA100.bmp,"

"Go ahead and gamble!"",1,risk,,,,,5,0,5,0,0,13,13,8,,,,,,,,,,,,,,,,,,,,,,,,,,,,,,,2995.5228238189884,None,2997.544820241994,2999.0487992919952,2999.032078523989,None,3000.602886816996,None,2,0.4807405530009419,3002.5747548189975,None,3002.5747548189975,None,3002.5747548189975,None,None,None,None,None,3003.209762015991,None,3003.209762015991,None,right,3003.209762015991,None,None,None,3003.5105635849905,3005.215052735992,0.2537391119985841,,,,,,,,,,,,,116,001,19,1,2020_Feb_19_1055,Test,3.2.4,59.84055734785389,
Pictures/IA20_10_L95p.bmp,Pictures/IA20_10_L95p.bmp,Pictures/IA20.bmp,"

"Don't be tempted to gamble."",0,safe,,,,,5,0,5,0,0,14,14,0,,,,,,,,,,,,,,,,,,,,,,,,,,,,,,,3005.23177079999,None,3007.253785322988,3008.774445518997,3008.7577285399893,None,3010.3452557359997,None,2,0.45179440500214696,3012.283704079993,None,3012.283704079993,None,3012.283704079993,None,None,None,None,None,3012.9354157329944,None,3012.9354157329944,None,right,3012.9354157329944,None,None,None,3013.1860703919956,3014.9239824209944,0.21608828898752108,,,,,,,,,,,,,116,001,19,1,2020_Feb_19_1055,Test,3.2.4,59.84055734785389,
Pictures/IA50_G10.bmp,Pictures/IA50_G10.bmp,Pictures/IA50.bmp,"

"Go with the safe option here!"",0,safe,,,,,5,0,5,0,0,15,15,5,,,,,,,,,,,,,,,,,,,,,,,,,,,,,,,3014.9407078359945,None,3016.962705615995,3018.4666602439975,3018.4499628669873,None,3020.0374813149974,None,2,0.39888697100104764,3021.9926280469954,None,3021.9926280469954,None,3021.9926280469954,None,None,None,None,None,3022.5440936779924,None,3022.5440936779924,None,right,3022.5440936779924,None,None,None,3023.128968871999,3024.5326675309916,0.5353961340006208,,,,,,,,,,,,,116,001,19,1,2020_Feb_19_1055,Test,3.2.4,59.84055734785389,
Pictures/IA100_L20.bmp,Pictures/IA100_L20.bmp,Pictures/IA100.bmp,"

"Try to win as much money as you can, gamble!"",1,risk,,,,,5,0,5,0,0,16,16,15,,,,,,,,,,,,,,,,,,,,,,,,,,,,,,,3024.5493714969925,None,3026.571368637,3028.092041235999,3028.075345748992,None,3029.612720555,None,1,0.8141906759992708,3031.601312115992,None,3031.601312115992,None,3031.601312115992,None,3032.570535645995,None,3032.570535645995,3033.5731742200005,3034.6760946649883,None,3034.6760946649883,None,left,3034.6760946649883,None,3035.1941164069867,3036.6646611589968,None,None,0.4754030070034787,,,,,,,,,,,,,116,001,19,1,2020_Feb_19_1055,Test,3.2.4,59.84055734785389,
Pictures/IA75_L60.bmp,Pictures/IA75_L60.bmp,Pictures/IA75.bmp,"

"Why not take the gamble?"",1,risk,,,,,5,0,5,0,0,17,17,7,,,,,,,,,,,,,,,,,,,,,,,,,,,,,,,3036.6813606639917,None,3038.703370449992,3040.224034739993,3040.207339121989,None,3041.7614231289917,None,2,0.41820990698761307,3043.7332935749873,None,3043.7332935749873,None,3043.7332935749873,None,None,None,None,None,3044.3181814619893,None,3044.3181814619893,None,right,3044.3181814619893,None,None,None,3044.418431082988,3046.32346491699,0.05731921498954762,,,,,,,,,,,,,116,001,19,1,2020_Feb_19_1055,Test,3.2.4,59.84055734785389,
Pictures/IA25_L10.bmp,Pictures/IA25_L10.bmp,Pictures/IA25.bmp,"

"Dont be afraid to take the risk!"",1,risk,,,,,5,0,5,0,0,18,18,3,,,,,,,,,,,,,,,,,,,,,,,,,,,,,,,3046.3401639779913,None,3048.3621661679936,3049.8828406749963,3049.866146178989,None,3051.436961747997,None,2,1.6873928729910403,3053.392109013992,None,3053.392109013992,None,3053.392109013992,None,None,None,None,None,3055.2637123139866,None,3055.2637123139866,None,right,3055.2637123139866,None,None,None,3056.0658165639907,3057.268985136994,0.7597924120054813,,,,,,,,,,,,,116,001,19,1,2020_Feb_19_1055,Test,3.2.4,59.84055734785389,
Pictures/IA100_G60.bmp,Pictures/IA100_G60.bmp,Pictures/IA100.bmp,"

"Be cautious, don't gamble for this one."",0,safe,,,,,5,0,5,0,0,19,19,2,,,,,,,,,,,,,,,,,,,,,,,,,,,,,,,3057.285708023992,None,3059.3077076849877,3060.828384994995,3060.8116643429967,None,3062.365773405996,None,2,0.8778600690129679,3064.3376436589897,None,3064.3376436589897,None,3064.3376436589897,None,None,None,None,None,3065.390418804993,None,3065.390418804993,None,right,3065.390418804993,None,None,None,3065.5408154089964,3067.378980122987,0.10508335300255567,,,,,,,,,,,,,116,001,19,1,2020_Feb_19_1055,Test,3.2.4,59.84055734785389,
,,,,,,,,,,5,0,5,0,,,,,,,,,,,,,,,,,,,,,,,,,,,,,,,,,,,,,,,,,,,,,,,,,,,,,,,,,,,,,,,,,,,,,,,,,3067.546102648994,None,return,6.493388066999614,3067.546102648994,None,116,001,19,1,2020_Feb_19_1055,Test,3.2.4,59.84055734785389,
Pictures/IA40_20_G95p.bmp,Pictures/IA40_20_G95p.bmp,Pictures/IA40.bmp,"

"Hold back, stay with the safe choice."",0,safe,,,,,6,0,6,0,0,0,0,16,,,,,,,,,,,,,3074.230395639999,None,3074.230395639999,None,3074.230395639999,None,left,1.809100953003508,3074.230395639999,None,3074.230395639999,None,3074.230395639999,None,return,4.840891914995154,3074.230395639999,None,3079.1266258839896,None,3081.148638778992,3082.652592118,3082.6358986939886,None,3084.1565737929923,None,2,0.5903772099991329,3086.1451395409968,None,3086.1451395409968,None,3086.1451395409968,None,None,None,None,None,3086.947271094992,None,3086.947271094992,None,right,3086.947271094992,None,None,None,3087.6825245369982,3088.9525401629944,0.7002250290097436,,,,,,,,,,,,,116,001,19,1,2020_Feb_19_1055,Test,3.2.4,59.84055734785389,
Pictures/IA100_G60.bmp,Pictures/IA100_G60.bmp,Pictures/IA100.bmp,"

"Be cautious, don't gamble for this one."",0,safe,,,,,6,0,6,0,0,1,1,18,,,,,,,,,,,,,,,,,,,,,,,,,,,,,,,3088.9692642349983,None,3090.9912623629934,3092.5119030159985,3092.4952200299886,None,3093.9992066179984,None,2,1.3223239770013606,3096.0211830909975,None,3096.0211830909975,None,3096.0211830909975,None,None,None,None,None,3097.5251631239953,None,3097.5251631239953,None,left,3097.5251631239953,None,3097.825941403993,3099.5304629460006,None,None,0.25833434199739713,,,,,,,,,,,,,116,001,19,1,2020_Feb_19_1055,Test,3.2.4,59.84055734785389,
Pictures/IA75_L30.bmp,Pictures/IA75_L30.bmp,Pictures/IA75.bmp,"

"Hold back, stay with the safe choice."",0,safe,,,,,6,0,6,0,0,2,2,7,,,,,,,,,,,,,,,,,,,,,,,,,,,,,,,3099.5471449039906,None,3101.5691447979916,3103.0898229339946,3103.0731255009887,None,3104.57708030699,None,2,1.120418296995922,3106.599092970995,None,3106.599092970995,None,3106.599092970995,None,None,None,None,None,3107.902518933988,None,3107.902518933988,None,left,3107.902518933988,None,3108.403850678995,3109.9077991989907,None,None,0.456980618997477,,,,,,,,,,,,,116,001,19,1,2020_Feb_19_1055,Test,3.2.4,59.84055734785389,
Pictures/IA100_G40.bmp,Pictures/IA100_G40.bmp,Pictures/IA100.bmp,"

"Try your luck and gamble!"",1,risk,,,,,6,0,6,0,0,3,3,0,,,,,,,,,,,,,,,,,,,,,,,,,,,,,,,3109.924528099,None,3111.946529998997,3113.467199879,3113.450481434993,None,3115.0212998569914,None,2,0.711051692996989,3116.9764513909904,None,3116.9764513909904,None,3116.9764513909904,None,None,None,None,None,3117.862118388992,None,3117.862118388992,None,right,3117.862118388992,None,None,None,3118.2631830659957,3119.8674116649927,0.3613768869981868,,,,,,,,,,,,,116,001,19,1,2020_Feb_19_1055,Test,3.2.4,59.84055734785389,
Pictures/IA75_L15.bmp,Pictures/IA75_L15.bmp,Pictures/IA75.bmp,"

"Trust me–gamble!"",1,risk,,,,,6,0,6,0,0,4,4,10,,,,,,,,,,,,,,,,,,,,,,,,,,,,,,,3119.884115266992,None,3121.9061114819924,3123.4267864779977,3123.4100965759862,None,3124.914048986,None,2,0.8634440489986446,3126.936059668995,None,3126.936059668995,None,3126.936059668995,None,None,None,None,None,3127.95540169999,None,3127.95540169999,None,left,3127.95540169999,None,3128.0055322599947,3129.943971331988,None,None,0.0041001990030054,,,,,,,,,,,,,116,001,19,1,2020_Feb_19_1055,Test,3.2.4,59.84055734785389,
Pictures/IA110_55_L95p.bmp,Pictures/IA110_55_L95p.bmp,Pictures/IA110.bmp,"

"Trust me, gamble!"",1,risk,,,,,6,0,6,0,0,5,5,3,,,,,,,,,,,,,,,,,,,,,,,,,,,,,,,3129.9606964259874,None,3132.0161187060003,3133.520074164,3133.5033761649975,None,3135.040760963995,None,2,0.6988813320058398,3137.012631713995,None,3137.012631713995,None,3137.012631713995,None,None,None,None,None,3137.8648667489906,None,3137.8648667489906,None,right,3137.8648667489906,None,None,None,3138.14894775,3139.853452304,0.2386396509973565,,,,,,,,,,,,,116,001,19,1,2020_Feb_19_1055,Test,3.2.4,59.84055734785389,
Pictures/IA25_L15.bmp,Pictures/IA25_L15.bmp,Pictures/IA25.bmp,"

"There's not much on the line here, gamble!"",1,risk,,,,,6,0,6,0,0,6,6,1,,,,,,,,,,,,,,,,,,,,,,,,,,,,,,,3139.8701535449945,None,3141.8921558759903,3143.4128264589963,3143.3961365129944,None,3144.950215732999,None,2,0.5814159020083025,3146.922086462,None,3146.922086462,None,3146.922086462,None,None,None,None,None,3147.6740712399915,None,3147.6740712399915,None,right,3147.6740712399915,None,None,None,3148.2422480259993,3149.679353077998,0.5254250709986081,,,,,,,,,,,,,116,001,19,1,2020_Feb_19_1055,Test,3.2.4,59.84055734785389,
Pictures/IA75_G15.bmp,Pictures/IA75_G15.bmp,Pictures/IA75.bmp,"

"Take a chance!"",1,risk,,,,,6,0,6,0,0,7,7,2,,,,,,,,,,,,,,,,,,,,,,,,,,,,,,,3149.6960930129862,None,3151.7180763669894,3153.2387534929876,3153.2220375609904,None,3154.776144391988,None,2,0.3714943420054624,3156.748011743999,None,3156.748011743999,None,3156.748011743999,None,None,None,None,None,3157.2827558499994,None,3157.2827558499994,None,right,3157.2827558499994,None,None,None,3157.332883692987,3159.271327905997,0.0047095490008359775,,,,,,,,,,,,,116,001,19,1,2020_Feb_19_1055,Test,3.2.4,59.84055734785389,
Pictures/IA75_L60.bmp,Pictures/IA75_L60.bmp,Pictures/IA75.bmp,"

"Why not take the gamble?"",1,risk,,,,,6,0,6,0,0,8,8,12,,,,,,,,,,,,,,,,,,,,,,,,,,,,,,,3159.2880276249925,None,3161.310034684997,3162.830702933992,3162.8140091449895,None,3164.3179623619944,None,2,0.39553048099332955,3166.3399736909923,None,3166.3399736909923,None,3166.3399736909923,None,None,None,None,None,3166.8914167729963,None,3166.8914167729963,None,right,3166.8914167729963,None,None,None,3166.9582724939974,3168.8967136899882,0.020083433992112987,,,,,,,,,,,,,116,001,19,1,2020_Feb_19_1055,Test,3.2.4,59.84055734785389,
Pictures/IA40_20_L95p.bmp,Pictures/IA40_20_L95p.bmp,Pictures/IA40.bmp,"

"Trust me, gamble!"",1,risk,,,,,6,0,6,0,0,9,9,19,,,,,,,,,,,,,,,,,,,,,,,,,,,,,,,3168.9134115389897,None,3170.9354122109944,3172.4560891869914,3172.439393730994,None,3174.0101887319906,None,2,0.7141376819927245,3175.965358786998,None,3175.965358786998,None,3175.965358786998,None,None,None,None,None,3176.8510261099873,None,3176.8510261099873,None,right,3176.8510261099873,None,None,None,3177.001420941,3178.8395864529884,0.10047299100551754,,,,,,,,,,,,,116,001,19,1,2020_Feb_19_1055,Test,3.2.4,59.84055734785389,
Pictures/IA25_L10.bmp,Pictures/IA25_L10.bmp,Pictures/IA25.bmp,"

"Dont be afraid to take the risk!"",1,risk,,,,,6,0,6,0,0,10,10,6,,,,,,,,,,,,,,,,,,,,,,,,,,,,,,,3178.8563097139995,None,3180.8783155209967,3182.3989874489926,3182.3822731399996,None,3183.886248347,None,2,0.46725237400096375,3185.908250542998,None,3185.908250542998,None,3185.908250542998,None,None,None,None,None,3186.543254760996,None,3186.543254760996,None,right,3186.543254760996,None,None,None,3186.610082646992,3188.548525301987,0.03226304800773505,,,,,,,,,,,,,116,001,19,1,2020_Feb_19_1055,Test,3.2.4,59.84055734785389,
Pictures/IA25_G20.bmp,Pictures/IA25_G20.bmp,Pictures/IA25.bmp,"

"I wouldn't gamble for this one. "",0,safe,,,,,6,0,6,0,0,11,11,9,,,,,,,,,,,,,,,,,,,,,,,,,,,,,,,3188.5652485799947,None,3190.5872494249925,3192.107926875993,3192.091207900987,None,3193.6286100269936,None,1,0.486325414996827,3195.6171733730007,None,3195.6171733730007,None,3195.6171733730007,None,3196.2354804249917,None,3196.2354804249917,3197.238124411,3198.3410351209895,None,3198.3410351209895,None,left,3198.3410351209895,None,3198.775499342999,3200.346317203992,None,None,0.3944601270050043,,,,,,,,,,,,,116,001,19,1,2020_Feb_19_1055,Test,3.2.4,59.84055734785389,
Pictures/IA25_L20.bmp,Pictures/IA25_L20.bmp,Pictures/IA25.bmp,"

"Don't be tempted to gamble."",0,safe,,,,,6,0,6,0,0,12,12,13,,,,,,,,,,,,,,,,,,,,,,,,,,,,,,,3200.3630216489983,None,3202.385019591995,3203.9056940439914,3203.8889979879896,None,3205.4430850969948,None,1,0.6005424460017821,3207.4149531099974,None,3207.4149531099974,None,3207.4149531099974,None,3208.1168163259863,None,3208.1168163259863,3209.1194542379963,3210.222369766998,None,3210.222369766998,None,right,3210.222369766998,None,None,None,3211.208301516992,None,0.9371252639975864,,,,,,,,,,,,,116,001,19,1,2020_Feb_19_1055,Test,3.2.4,59.84055734785389,
Pictures/IA75_G45.bmp,Pictures/IA75_G45.bmp,Pictures/IA75.bmp,"

"Don't gamble for this one."",0,safe,,,,,6,0,6,0,0,13,13,17,,,,,,,,,,,,,,,,,,,,,,,,,,,,,,,3212.227641036996,None,3214.2496460269904,3215.770317497998,3215.753621058,None,3217.324422982987,None,1,0.7359017450071406,3219.279603182993,None,3219.279603182993,None,3219.279603182993,None,3220.13183506699,None,3220.13183506699,3221.1344750119897,3222.2373887609865,None,3222.2373887609865,None,left,3222.2373887609865,None,3222.7220071249903,3224.225948817999,None,None,0.45010478800395504,,,,,,,,,,,,,116,001,19,1,2020_Feb_19_1055,Test,3.2.4,59.84055734785389,
Pictures/IA50_G40.bmp,Pictures/IA50_G40.bmp,Pictures/IA50.bmp,"

"It would probably be best to play it safe."",0,safe,,,,,6,0,6,0,0,14,14,4,,,,,,,,,,,,,,,,,,,,,,,,,,,,,,,3224.242671451997,None,3226.264671578989,3227.7853528279957,3227.768629086,None,3229.3060270819988,None,2,0.6809032180026406,3231.2945959339995,None,3231.2945959339995,None,3231.2945959339995,None,None,None,None,None,3232.146844327988,None,3232.146844327988,None,left,3232.146844327988,None,3232.464345382992,3234.1354172629945,None,None,0.26865683500363957,,,,,,,,,,,,,116,001,19,1,2020_Feb_19_1055,Test,3.2.4,59.84055734785389,
Pictures/IA80_40_G95p.bmp,Pictures/IA80_40_G95p.bmp,Pictures/IA80.bmp,"

"Think of the payoff, gamble!"",1,risk,,,,,6,0,6,0,0,15,15,11,,,,,,,,,,,,,,,,,,,,,,,,,,,,,,,3234.152139070997,None,3236.207563389995,3237.7115329399967,3237.6948334939952,None,3239.2155267579947,None,1,0.43543689599027857,3241.2040631829877,None,3241.2040631829877,None,3241.2040631829877,None,3241.772231579991,None,3241.772231579991,3242.7748679439974,3243.8777813959896,None,3243.8777813959896,None,left,3243.8777813959896,None,3244.412532041999,3245.883076050988,None,None,0.49770834599621594,,,,,,,,,,,,,116,001,19,1,2020_Feb_19_1055,Test,3.2.4,59.84055734785389,
Pictures/IA50_G20.bmp,Pictures/IA50_G20.bmp,Pictures/IA50.bmp,"

"Let's venture and take a risk!"",1,risk,,,,,6,0,6,0,0,16,16,5,,,,,,,,,,,,,,,,,,,,,,,,,,,,,,,3245.899776318998,None,3247.9217778409948,3249.4424533529964,3249.4257570489863,None,3250.9464224519907,None,2,0.383812237996608,3252.951711837988,None,3252.951711837988,None,3252.951711837988,None,None,None,None,None,3253.536593067998,None,3253.536593067998,None,right,3253.536593067998,None,None,None,3253.686979785998,3255.525172430993,0.10290503900614567,,,,,,,,,,,,,116,001,19,1,2020_Feb_19_1055,Test,3.2.4,59.84055734785389,
Pictures/IA75_G60.bmp,Pictures/IA75_G60.bmp,Pictures/IA75.bmp,"

"Make it exciting, take a chance!"",1,risk,,,,,6,0,6,0,0,17,17,14,,,,,,,,,,,,,,,,,,,,,,,,,,,,,,,3255.5418776659935,None,3257.563872914994,3259.084565266996,3259.0678544939874,None,3260.6386574339995,None,2,1.6456831420073286,3262.5938201659883,None,3262.5938201659883,None,3262.5938201659883,None,None,None,None,None,3264.4152889169927,None,3264.4152889169927,None,left,3264.4152889169927,None,3265.083704502991,3266.420561982988,None,None,0.6322085360006895,,,,,,,,,,,,,116,001,19,1,2020_Feb_19_1055,Test,3.2.4,59.84055734785389,
Pictures/IA50_G10.bmp,Pictures/IA50_G10.bmp,Pictures/IA50.bmp,"

"Go with the safe option here!"",0,safe,,,,,6,0,6,0,0,18,18,15,,,,,,,,,,,,,,,,,,,,,,,,,,,,,,,3266.437284241998,None,3268.4592851529887,3269.97996399799,3269.963242752987,None,3271.467219897997,None,2,2.0463057040033164,3273.4892084299936,None,3273.4892084299936,None,3273.4892084299936,None,None,None,None,None,3275.6950369499973,None,3275.6950369499973,None,right,3275.6950369499973,None,None,None,3275.8287184340006,3277.7003332530003,0.09645407000789419,,,,,,,,,,,,,116,001,19,1,2020_Feb_19_1055,Test,3.2.4,59.84055734785389,
Pictures/IA20_10_L95p.bmp,Pictures/IA20_10_L95p.bmp,Pictures/IA20.bmp,"

"Don't be tempted to gamble."",0,safe,,,,,6,0,6,0,0,19,19,8,,,,,,,,,,,,,,,,,,,,,,,,,,,,,,,3277.717028325991,None,3279.7390265229915,3281.2596963999968,3281.243006147997,None,3282.7469564539933,None,None,,3284.768967388998,None,3284.768967388998,None,3284.768967388998,None,None,None,None,None,3287.860443471989,None,3287.860443471989,None,right,3287.860443471989,None,None,None,3288.462039245991,3289.8490117599868,0.5550550220068544,,,,,,,,,,,,,116,001,19,1,2020_Feb_19_1055,Test,3.2.4,59.84055734785389,
,,,,,,,,,,6,0,6,0,,,,,,,,,,,,,,,,,,,,,,,,,,,,,,,,,,,,,,,,,,,,,,,,,,,,,,,,,,,,,,,,,,,,,,,,,3290.0161433109897,None,return,4.199342558000353,3290.0161433109897,None,116,001,19,1,2020_Feb_19_1055,Test,3.2.4,59.84055734785389,
Pictures/IA40_20_G95p.bmp,Pictures/IA40_20_G95p.bmp,Pictures/IA40.bmp,"

"Hold back, stay with the safe choice."",0,safe,,,,,7,0,7,0,0,0,0,8,,,,,,,,,,,,,3294.3943515589926,None,3294.3943515589926,None,3294.3943515589926,None,left,1.2051453919993946,3294.3943515589926,None,3294.3943515589926,None,3294.3943515589926,None,return,6.196922408998944,3294.3943515589926,None,3300.6441675609967,None,3302.649443310991,3304.1701244649885,3304.153425503988,None,3305.6740973509877,None,1,2.848838825011626,3307.6626685369993,None,3307.6626685369993,None,3307.6626685369993,None,3310.6538920539897,None,3310.6538920539897,3311.656529740998,3312.7594443609996,None,3312.7594443609996,None,left,3312.7594443609996,None,3314.179852807996,None,None,None,1.3840445240057306,,,,,,,,,,,,,116,001,19,1,2020_Feb_19_1055,Test,3.2.4,59.84055734785389,
Pictures/IA100_L20.bmp,Pictures/IA100_L20.bmp,Pictures/IA100.bmp,"

"Try to win as much money as you can, gamble!"",1,risk,,,,,7,0,7,0,0,1,1,16,,,,,,,,,,,,,,,,,,,,,,,,,,,,,,,3314.7647284409904,None,3316.786731064989,3318.3074041839864,3318.2907259239873,None,3319.828089685994,None,1,1.3348371979955118,3321.8166750829987,None,3321.8166750829987,None,3321.8166750829987,None,3323.2872106819996,None,3323.2872106819996,3324.289848044995,3325.392763867989,None,3325.392763867989,None,left,3325.392763867989,None,3325.777106417998,3327.3813407049893,None,None,0.34273235900036525,,,,,,,,,,,,,116,001,19,1,2020_Feb_19_1055,Test,3.2.4,59.84055734785389,
Pictures/IA80_40_G95p.bmp,Pictures/IA80_40_G95p.bmp,Pictures/IA80.bmp,"

"Think of the payoff, gamble!"",1,risk,,,,,7,0,7,0,0,2,2,1,,,,,,,,,,,,,,,,,,,,,,,,,,,,,,,3327.398058668987,None,3329.436772584988,3330.957450679998,3330.9407265649934,None,3332.4446906599915,None,2,1.8055122369987657,3334.4499859339994,None,3334.4499859339994,None,3334.4499859339994,None,None,None,None,None,3336.421851605992,None,3336.421851605992,None,left,3336.421851605992,None,3336.6892312869895,3338.427145468988,None,None,0.23363726800016593,,,,,,,,,,,,,116,001,19,1,2020_Feb_19_1055,Test,3.2.4,59.84055734785389,
Pictures/IA100_G40.bmp,Pictures/IA100_G40.bmp,Pictures/IA100.bmp,"

"Try your luck and gamble!"",1,risk,,,,,7,0,7,0,0,3,3,15,,,,,,,,,,,,,,,,,,,,,,,,,,,,,,,3338.44384942099,None,3340.4658477249905,3341.9865223489905,3341.9698269809887,None,3343.473783283989,None,2,1.807708773005288,3345.4957971429976,None,3345.4957971429976,None,3345.4957971429976,None,None,None,None,None,3347.467660544993,None,3347.467660544993,None,right,3347.467660544993,None,None,None,3347.768440115993,3349.472943514993,0.2518349930032855,,,,,,,,,,,,,116,001,19,1,2020_Feb_19_1055,Test,3.2.4,59.84055734785389,
Pictures/IA75_L60.bmp,Pictures/IA75_L60.bmp,Pictures/IA75.bmp,"

"Why not take the gamble?"",1,risk,,,,,7,0,7,0,0,4,4,10,,,,,,,,,,,,,,,,,,,,,,,,,,,,,,,3349.4896451699897,None,3351.511643594,3353.0156220379868,3352.9989081159874,None,3354.536290933989,None,2,0.28192050800134894,3356.5415800839983,None,3356.5415800839983,None,3356.5415800839983,None,None,None,None,None,3356.9760608279903,None,3356.9760608279903,None,right,3356.9760608279903,None,None,None,3357.193297424994,3358.9646490749874,0.17544941800588276,,,,,,,,,,,,,116,001,19,1,2020_Feb_19_1055,Test,3.2.4,59.84055734785389,
Pictures/IA100_G60.bmp,Pictures/IA100_G60.bmp,Pictures/IA100.bmp,"

"Be cautious, don't gamble for this one."",0,safe,,,,,7,0,7,0,0,5,5,14,,,,,,,,,,,,,,,,,,,,,,,,,,,,,,,3358.981362334991,None,3361.0033458510006,3362.5240226869937,3362.507328964988,None,3364.0279921069887,None,1,1.1502198509988375,3366.033282271994,None,3366.033282271994,None,3366.033282271994,None,3367.3032610309892,None,3367.3032610309892,3368.305936641991,3369.42556350799,None,3369.42556350799,None,left,3369.42556350799,None,3369.793207191993,3371.43084638899,None,None,0.33392272698984016,,,,,,,,,,,,,116,001,19,1,2020_Feb_19_1055,Test,3.2.4,59.84055734785389,
Pictures/IA50_L40.bmp,Pictures/IA50_L40.bmp,Pictures/IA50.bmp,"

"That gamble doesn't sound too good, play it safe."",0,safe,,,,,7,0,7,0,0,6,6,5,,,,,,,,,,,,,,,,,,,,,,,,,,,,,,,3371.4475767709955,None,3373.469572392991,3374.9902442819875,3374.973530815987,None,3376.5276346209866,None,2,1.0920034979935735,3378.4995053879975,None,3378.4995053879975,None,3378.4995053879975,None,None,None,None,None,3379.78622912,None,3379.78622912,None,right,3379.78622912,None,None,None,3380.521502352989,3381.791524339991,0.6852585549931973,,,,,,,,,,,,,116,001,19,1,2020_Feb_19_1055,Test,3.2.4,59.84055734785389,
Pictures/IA25_G10.bmp,Pictures/IA25_G10.bmp,Pictures/IA25.bmp,"

"What's life without a little risk?"",1,risk,,,,,7,0,7,0,0,7,7,17,,,,,,,,,,,,,,,,,,,,,,,,,,,,,,,3381.8082161839993,None,3383.8302181179897,3385.350899059995,3385.334197119999,None,3386.888289507988,None,2,1.7793609899963485,3388.860151899993,None,3388.860151899993,None,3388.860151899993,None,None,None,None,None,3390.815310188991,None,3390.815310188991,None,right,3390.815310188991,None,None,None,3391.015845999995,3392.820602599997,0.1601855449989671,,,,,,,,,,,,,116,001,19,1,2020_Feb_19_1055,Test,3.2.4,59.84055734785389,
Pictures/IA75_G15.bmp,Pictures/IA75_G15.bmp,Pictures/IA75.bmp,"

"Take a chance!"",1,risk,,,,,7,0,7,0,0,8,8,0,,,,,,,,,,,,,,,,,,,,,,,,,,,,,,,3392.8373059789883,None,3394.859305990991,3396.3799822250003,3396.363285227999,None,3397.917377434991,None,2,0.742264365995652,3399.88924169699,None,3399.88924169699,None,3399.88924169699,None,None,None,None,None,3400.7916271359863,None,3400.7916271359863,None,right,3400.7916271359863,None,None,None,3401.0088572889945,3402.79690548699,0.1838723770051729,,,,,,,,,,,,,116,001,19,1,2020_Feb_19_1055,Test,3.2.4,59.84055734785389,
Pictures/IA75_G30.bmp,Pictures/IA75_G30.bmp,Pictures/IA75.bmp,"

"Be bold, gamble!"",1,risk,,,,,7,0,7,0,0,9,9,18,,,,,,,,,,,,,,,,,,,,,,,,,,,,,,,3402.813629062992,None,3404.8356004229863,3406.3563064749906,3406.3395879409945,None,3407.876989572993,None,1,1.5099584150011651,3409.8655541579938,None,3409.8655541579938,None,3409.8655541579938,None,3411.469783686989,None,3411.469783686989,3412.47242386399,3413.6087597099977,None,3413.6087597099977,None,right,3413.6087597099977,None,None,None,3413.9429825209954,3415.6140549629927,0.2867360130039742,,,,,,,,,,,,,116,001,19,1,2020_Feb_19_1055,Test,3.2.4,59.84055734785389,
Pictures/IA25_G5.bmp,Pictures/IA25_G5.bmp,Pictures/IA25.bmp,"

"Let's stay with the certain option."",0,safe,,,,,7,0,7,0,0,10,10,4,,,,,,,,,,,,,,,,,,,,,,,,,,,,,,,3415.6307554919913,None,3417.6527552059997,3419.1734324599965,3419.1567371489946,None,3420.7275371169962,None,2,0.3807964170118794,3422.6827068769926,None,3422.6827068769926,None,3422.6827068769926,None,None,None,None,None,3423.234165486996,None,3423.234165486996,None,right,3423.234165486996,None,None,None,3423.7354776059947,3425.2394471219886,0.45333117799600586,,,,,,,,,,,,,116,001,19,1,2020_Feb_19_1055,Test,3.2.4,59.84055734785389,
Pictures/IA50_G20.bmp,Pictures/IA50_G20.bmp,Pictures/IA50.bmp,"

