Choice	Choice2	Amount	AdviceVar1	GambleAdviceNum	GambleAdviceType	practice.thisRepN	practice.thisTrialN	practice.thisN	practice.thisIndex	trials_2.thisRepN	trials_2.thisTrialN	trials_2.thisN	trials_2.thisIndex	trials.thisRepN	trials.thisTrialN	trials.thisN	trials.thisIndex	text.started	text.stopped	key_resp_4.keys	key_resp_4.rt	key_resp_4.started	key_resp_4.stopped	instructions.started	instructions.stopped	space.keys	space.rt	space.started	space.stopped	chooseInst.started	chooseInst.stopped	Ad1.started	Ad1.stopped	Ad2.started	Ad2.stopped	key_resp_3.keys	key_resp_3.rt	key_resp_3.started	key_resp_3.stopped	Ad1pic.started	Ad1pic.stopped	Ad2pic.started	Ad2pic.stopped	enter.keys	enter.rt	enter.started	enter.stopped	iSi.started	iSi.stopped	receiveMoneyPicture.started	receiveMoneyPicture.stopped	ISI2.started	ISI2.stopped	ChoicePic.started	ChoicePic.stopped	response.keys	response.rt	response.started	response.stopped	yesNo.started	yesNo.stopped	ask.started	ask.stopped	getAdv.started	getAdv.stopped	textForCode.started	textForCode.stopped	blank.started	blank.stopped	ChoicePic2.started	ChoicePic2.stopped	resp.keys	resp.started	resp.stopped	checkL1.started	checkL1.stopped	checkR1.started	checkR1.stopped	resp.rt	EndPrac.started	EndPrac.stopped	key_resp.keys	key_resp.rt	key_resp.started	key_resp.stopped	endText.started	endText.stopped	key_resp_2.keys	key_resp_2.rt	key_resp_2.started	key_resp_2.stopped	participant	session	age	gender (0=male	 1 = female	 2 = other)	date	expName	psychopyVersion	frameRate
																		1111.541365	None	space	478.4501215	1111.541365	None																																																																					116	1	19	1	2020_Feb_19_1055	Test	3.2.4	59.84055735		
																								1590.084767	None	space	10.0827283	1590.084767	None																																																															116	1	19	1	2020_Feb_19_1055	Test	3.2.4	59.84055735		
																														1600.980112	None	1600.980112	None	1600.980112	None	left	8.467375495	1600.980112	None																																																					116	1	19	1	2020_Feb_19_1055	Test	3.2.4	59.84055735		
																																								1600.980112	None	1600.980112	None	return	11.9952348	1600.980112	None																																													116	1	19	1	2020_Feb_19_1055	Test	3.2.4	59.84055735		
Pictures/IA100_G20.bmp	Pictures/IA100_G20.bmp	Pictures/IA100.bmp	"Go ahead and gamble!"""""	1	risk	0	0	0	4																																							1613.095395	None	1615.083974	1616.604642	1616.587933	None	1618.108611	None	1	2.652199116	1620.147303	None	1620.147303	None	1620.147303	None	1622.921274	None	1622.921274	1623.923912	1625.076924	None	1625.076924	None	None	1625.076924	None	None	None	None	None														116	1	19	1	2020_Feb_19_1055	Test	3.2.4	59.84055735		
Pictures/IA50_G40.bmp	Pictures/IA50_G40.bmp	Pictures/IA50.bmp	"It would probably be best to play it safe."""""	0	safe	0	1	1	3																																							1627.082237	None	1629.154368	1630.658342	1630.641618	None	1632.212434	None	None		1634.134155	None	1634.134155	None	1634.134155	None	None	None	None	None	1637.259065	None	1637.259065	None	left	1637.259065	None	1638.52907	None	None	None	1.228432311													116	1	19	1	2020_Feb_19_1055	Test	3.2.4	59.84055735		
Pictures/IA50_G10.bmp	Pictures/IA50_G10.bmp	Pictures/IA50.bmp	"Go with the safe option here!"""""	0	safe	0	2	2	0																																							1639.281057	None	1641.303051	1642.823725	1642.807005	None	1644.394532	None	2	2.258543165	1646.332977	None	1646.332977	None	1646.332977	None	None	None	None	None	1648.772725	None	1648.772725	None	None	1648.772725	None	None	None	None	None														116	1	19	1	2020_Feb_19_1055	Test	3.2.4	59.84055735		
Pictures/IA100_G40.bmp	Pictures/IA100_G40.bmp	Pictures/IA100.bmp	"Try your luck and gamble!"""""	1	risk	0	3	3	5																																							1650.778005	None	1652.800008	1654.30398	1654.28726	None	1655.874771	None	2	2.225568152	1657.829937	None	1657.829937	None	1657.829937	None	None	None	None	None	1660.252977	None	1660.252977	None	right	1660.252977	None	None	None	1661.389315	None	1.090522953													116	1	19	1	2020_Feb_19_1055	Test	3.2.4	59.84055735		
Pictures/IA50_G30.bmp	Pictures/IA50_G30.bmp	Pictures/IA50.bmp	"I think you should gamble."""""	1	risk	0	4	4	2																																							1662.274967	None	1664.296966	1665.817634	1665.800945	None	1667.388444	None	2	0.976620212	1669.326884	None	1669.326884	None	1669.326884	None	None	None	None	None	1670.463186	None	1670.463186	None	left	1670.463186	None	1671.883624	None	None	None	1.37631536													116	1	19	1	2020_Feb_19_1055	Test	3.2.4	59.84055735		
Pictures/IA50_G20.bmp	Pictures/IA50_G20.bmp	Pictures/IA50.bmp	"Let's venture and take a risk!"""""	1	risk	0	5	5	1																																							1672.468495	None	1674.490493	1676.011161	1675.994469	None	1677.581985	None	2	0.975089501	1679.520413	None	1679.520413	None	1679.520413	None	None	None	None	None	1680.656741	None	1680.656741	None	left	1680.656741	None	1682.344541	None	None	None	1.64676018													116	1	19	1	2020_Feb_19_1055	Test	3.2.4	59.84055735		
																																																																																1682.678744	None	space	10.30476208	1682.678744	None							116	1	19	1	2020_Feb_19_1055	Test	3.2.4	59.84055735		
Pictures/IA50_G10.bmp	Pictures/IA50_G10.bmp	Pictures/IA50.bmp	"Go with the safe option here!"""""	0	safe					0	0	0	0	0	0	0	11													1693.173065	None	1693.173065	None	1693.173065	None	left	3.506432509	1693.173065	None	1693.173065	None	1693.173065	None	return	7.650209021	1693.173065	None	1700.893402	None	1702.881973	1704.402645	1704.385942	None	1705.873195	None	2	1.736316933	1707.895179	None	1707.895179	None	1707.895179	None	None	None	None	None	1709.800211	None	1709.800211	None	None	1709.800211	None	None	None	None	None														116	1	19	1	2020_Feb_19_1055	Test	3.2.4	59.84055735		
Pictures/IA80_40_G95p.bmp	Pictures/IA80_40_G95p.bmp	Pictures/IA80.bmp	"Think of the payoff"	1	risk					0	0	0	0	0	1	1	5																															1711.805491	None	1713.860911	1715.364857	1715.348164	None	1716.918966	None	2	0.766112562	1718.85741	None	1718.85741	None	1718.85741	None	None	None	None	None	1719.793198	None	1719.793198	None	left	1719.793198	None	1720.160843	1721.798476	None	None	0.318305402													116	1	19	1	2020_Feb_19_1055	Test	3.2.4	59.84055735		
Pictures/IA25_G5.bmp	Pictures/IA25_G5.bmp	Pictures/IA25.bmp	"Let's stay with the certain option."""""	0	safe					0	0	0	0	0	2	2	0																															1721.8152	None	1723.887327	1725.407999	1725.391283	None	1726.928667	None	1	1.116392786	1728.867106	None	1728.867106	None	1728.867106	None	1730.120408	None	1730.120408	1731.123046	1732.225963	None	1732.225963	None	left	1732.225963	None	1732.994658	1734.231242	None	None	0.733525431													116	1	19	1	2020_Feb_19_1055	Test	3.2.4	59.84055735		
Pictures/IA25_G15.bmp	Pictures/IA25_G15.bmp	Pictures/IA25.bmp	"I think you should take a gamble."""""	1	risk					0	0	0	0	0	3	3	16																															1734.247968	None	1736.269955	1737.790627	1737.773907	None	1739.361436	None	2	0.963625515	1741.299879	None	1741.299879	None	1741.299879	None	None	None	None	None	1742.436194	None	1742.436194	None	right	1742.436194	None	None	None	1743.221593	1744.424766	0.747300102													116	1	19	1	2020_Feb_19_1055	Test	3.2.4	59.84055735		
Pictures/IA100_L80.bmp	Pictures/IA100_L80.bmp	Pictures/IA100.bmp	"Go all in!"""""	1	risk					0	0	0	0	0	4	4	3																															1744.441488	None	1746.463485	1747.984155	1747.967437	None	1749.638516	None	2	1.082119418	1751.493398	None	1751.493398	None	1751.493398	None	None	None	None	None	1752.713274	None	1752.713274	None	left	1752.713274	None	1753.632363	1754.701843	None	None	0.870238312													116	1	19	1	2020_Feb_19_1055	Test	3.2.4	59.84055735		
Pictures/IA50_L40.bmp	Pictures/IA50_L40.bmp	Pictures/IA50.bmp	"That gamble doesn't sound too good"	0	safe					0	0	0	0	0	5	5	1																															1754.718567	None	1756.740563	1758.261235	1758.244516	None	1759.815334	None	2	1.0370354	1761.770475	None	1761.770475	None	1761.770475	None	None	None	None	None	1763.007069	None	1763.007069	None	left	1763.007069	None	1763.424834	1764.995648	None	None	0.36843182													116	1	19	1	2020_Feb_19_1055	Test	3.2.4	59.84055735		
Pictures/IA20_10_L95p.bmp	Pictures/IA20_10_L95p.bmp	Pictures/IA20.bmp	"Don't be tempted to gamble."""""	0	safe					0	0	0	0	0	6	6	4																															1765.012347	None	1767.051055	1768.571726	1768.555036	None	1770.109125	None	2	0.903237496	1772.064267	None	1772.064267	None	1772.064267	None	None	None	None	None	1773.133752	None	1773.133752	None	right	1773.133752	None	None	None	1773.417834	1775.122332	0.249747788													116	1	19	1	2020_Feb_19_1055	Test	3.2.4	59.84055735		
Pictures/IA25_G20.bmp	Pictures/IA25_G20.bmp	Pictures/IA25.bmp	"I wouldn't gamble for this one. """""	0	safe					0	0	0	0	0	7	7	15																															1775.139031	None	1777.161029	1778.6817	1778.665004	None	1780.2358	None	2	0.544534006	1782.190968	None	1782.190968	None	1782.190968	None	None	None	None	None	1782.909521	None	1782.909521	None	right	1782.909521	None	None	None	1783.59467	1784.898083	0.649975364													116	1	19	1	2020_Feb_19_1055	Test	3.2.4	59.84055735		
Pictures/IA40_20_G95p.bmp	Pictures/IA40_20_G95p.bmp	Pictures/IA40.bmp	"Hold back"	0	safe					0	0	0	0	0	8	8	12																															1784.914801	None	1786.970219	1788.490891	1788.474173	None	1790.011568	None	2	0.528809574	1791.96671	None	1791.96671	None	1791.96671	None	None	None	None	None	1792.685282	None	1792.685282	None	right	1792.685282	None	None	None	1793.654491	1794.690564	0.922220292													116	1	19	1	2020_Feb_19_1055	Test	3.2.4	59.84055735		
Pictures/IA50_L30.bmp	Pictures/IA50_L30.bmp	Pictures/IA50.bmp	"Take a leap"	1	risk					0	0	0	0	0	9	9	9																															1794.707262	None	1796.72926	1798.24993	1798.233235	None	1799.804029	None	2	1.488281519	1801.759211	None	1801.759211	None	1801.759211	None	None	None	None	None	1803.446964	None	1803.446964	None	left	1803.446964	None	1804.215666	1805.452246	None	None	0.720533591													116	1	19	1	2020_Feb_19_1055	Test	3.2.4	59.84055735		
Pictures/IA50_L10.bmp	Pictures/IA50_L10.bmp	Pictures/IA50.bmp	"Play it safe"	0	safe					0	0	0	0	0	10	10	17																															1805.468969	None	1807.490962	1809.011633	1808.994916	None	1810.565734	None	2	1.246665362	1812.520839	None	1812.520839	None	1812.520839	None	None	None	None	None	1813.974704	None	1813.974704	None	right	1813.974704	None	None	None	1814.074976	1815.963274	0.064797611													116	1	19	1	2020_Feb_19_1055	Test	3.2.4	59.84055735		
Pictures/IA100_G20.bmp	Pictures/IA100_G20.bmp	Pictures/IA100.bmp	"Go ahead and gamble!"""""	1	risk					0	0	0	0	0	11	11	14																															1815.98	None	1818.001993	1819.522666	1819.505945	None	1821.026629	None	2	0.583593435	1823.03192	None	1823.03192	None	1823.03192	None	None	None	None	None	1823.783897	None	1823.783897	None	left	1823.783897	None	1824.218366	1825.789177	None	None	0.399599209													116	1	19	1	2020_Feb_19_1055	Test	3.2.4	59.84055735		
Pictures/IA50_G30.bmp	Pictures/IA50_G30.bmp	Pictures/IA50.bmp	"I think you should gamble."""""	1	risk					0	0	0	0	0	12	12	18																															1825.805878	None	1827.827869	1829.348545	1829.331848	None	1830.869222	None	2	1.18969889	1832.857808	None	1832.857808	None	1832.857808	None	None	None	None	None	1834.228073	None	1834.228073	None	right	1834.228073	None	None	None	1834.579009	1836.216655	0.307427764													116	1	19	1	2020_Feb_19_1055	Test	3.2.4	59.84055735		
Pictures/IA80_40_L95p.bmp	Pictures/IA80_40_L95p.bmp	Pictures/IA80.bmp	"Let's stay with the certain option."""""	0	safe					0	0	0	0	0	13	13	19																															1836.233355	None	1838.255356	1839.776022	1839.759333	None	1841.313409	None	2	1.986223869	1843.285278	None	1843.285278	None	1843.285278	None	None	None	None	None	1845.440955	None	1845.440955	None	right	1845.440955	None	None	None	1846.393462	1847.429537	0.918543003													116	1	19	1	2020_Feb_19_1055	Test	3.2.4	59.84055735		
Pictures/IA100_G80.bmp	Pictures/IA100_G80.bmp	Pictures/IA100.bmp	"Why not gamble?"""""	1	risk					0	0	0	0	0	14	14	10																															1847.446234	None	1849.468232	1850.988903	1850.972211	None	1852.559713	None	2	0.709351952	1854.498155	None	1854.498155	None	1854.498155	None	None	None	None	None	1855.367109	None	1855.367109	None	right	1855.367109	None	None	None	1855.851719	1857.355692	0.440404537													116	1	19	1	2020_Feb_19_1055	Test	3.2.4	59.84055735		
Pictures/IA40_20_L95p.bmp	Pictures/IA40_20_L95p.bmp	Pictures/IA40.bmp	"Trust me"	1	risk					0	0	0	0	0	15	15	7																															1857.372394	None	1859.39439	1860.91506	1860.898363	None	1862.485866	None	2	1.11918676	1864.424315	None	1864.424315	None	1864.424315	None	None	None	None	None	1865.694323	None	1865.694323	None	right	1865.694323	None	None	None	1866.195654	1867.699607	0.465167954													116	1	19	1	2020_Feb_19_1055	Test	3.2.4	59.84055735		
Pictures/IA110_55_L95p.bmp	Pictures/IA110_55_L95p.bmp	Pictures/IA110.bmp	"Trust me"	1	risk					0	0	0	0	0	16	16	8																															1867.716329	None	1869.755033	1871.275718	1871.258986	None	1872.829793	None	2	0.74326475	1874.768242	None	1874.768242	None	1874.768242	None	None	None	None	None	1875.637195	None	1875.637195	None	left	1875.637195	None	1876.522856	1877.625778	None	None	0.850305461													116	1	19	1	2020_Feb_19_1055	Test	3.2.4	59.84055735		
Pictures/IA100_L20.bmp	Pictures/IA100_L20.bmp	Pictures/IA100.bmp	"Try to win as much money as you can"	1	risk					0	0	0	0	0	17	17	2																															1877.642474	None	1879.664471	1881.185144	1881.168446	None	1882.755952	None	2	1.585107643	1884.694395	None	1884.694395	None	1884.694395	None	None	None	None	None	1886.465728	None	1886.465728	None	right	1886.465728	None	None	None	1886.900213	1888.471006	0.397768584													116	1	19	1	2020_Feb_19_1055	Test	3.2.4	59.84055735		
Pictures/IA75_L30.bmp	Pictures/IA75_L30.bmp	Pictures/IA75.bmp	"Hold back"	0	safe					0	0	0	0	0	18	18	13																															1888.487734	None	1890.526439	1892.030387	1892.013692	None	1893.617905	None	2	0.339854209	1895.539651	None	1895.539651	None	1895.539651	None	None	None	None	None	1896.057689	None	1896.057689	None	left	1896.057689	None	1896.358465	1898.062964	None	None	0.253810312													116	1	19	1	2020_Feb_19_1055	Test	3.2.4	59.84055735		
Pictures/IA25_L20.bmp	Pictures/IA25_L20.bmp	Pictures/IA25.bmp	"Don't be tempted to gamble."""""	0	safe					0	0	0	0	0	19	19	6																															1898.079663	None	1900.101659	1901.62233	1901.605636	None	1903.19314	None	2	0.619920795	1905.131586	None	1905.131586	None	1905.131586	None	None	None	None	None	1905.917	None	1905.917	None	left	1905.917	None	1906.585422	1907.922264	None	None	0.61848576													116	1	19	1	2020_Feb_19_1055	Test	3.2.4	59.84055735		
										0	0	0	0																																																																									1908.139527	None	return	9.075972075	1908.139527	None	116	1	19	1	2020_Feb_19_1055	Test	3.2.4	59.84055735		
Pictures/IA50_L40.bmp	Pictures/IA50_L40.bmp	Pictures/IA50.bmp	"That gamble doesn't sound too good"	0	safe					1	0	1	0	0	0	0	8													1917.380526	None	1917.380526	None	1917.380526	None	right	7.194985843	1917.380526	None	1917.380526	None	1917.380526	None	return	11.10675015	1917.380526	None	1928.543274	None	1930.54857	1932.069244	1932.052525	None	1933.539776	None	2	0.493718481	1935.561785	None	1935.561785	None	1935.561785	None	None	None	None	None	1936.246909	None	1936.246909	None	left	1936.246909	None	1937.399949	None	None	None	1.10458664													116	1	19	1	2020_Feb_19_1055	Test	3.2.4	59.84055735		
Pictures/IA50_G40.bmp	Pictures/IA50_G40.bmp	Pictures/IA50.bmp	"It would probably be best to play it safe."""""	0	safe					1	0	1	0	0	1	1	6																															1938.252193	None	1940.274192	1941.79486	1941.778171	None	1943.315535	None	None		1945.304123	None	1945.304123	None	1945.304123	None	None	None	None	None	1948.412305	None	1948.412305	None	None	1948.412305	None	None	None	None	None														116	1	19	1	2020_Feb_19_1055	Test	3.2.4	59.84055735		
Pictures/IA40_20_L95p.bmp	Pictures/IA40_20_L95p.bmp	Pictures/IA40.bmp	"Trust me"	1	risk					1	0	1	0	0	2	2	10																															1950.417583	None	1952.439582	1953.960253	1953.943558	None	1955.447509	None	2	0.673991752	1957.469516	None	1957.469516	None	1957.469516	None	None	None	None	None	1958.305051	None	1958.305051	None	right	1958.305051	None	None	None	1958.722815	1960.310332	0.374447862													116	1	19	1	2020_Feb_19_1055	Test	3.2.4	59.84055735		
Pictures/IA100_G20.bmp	Pictures/IA100_G20.bmp	Pictures/IA100.bmp	"Go ahead and gamble!"""""	1	risk					1	0	1	0	0	3	3	11																															1960.327036	None	1962.349028	1963.869701	1963.853005	None	1965.373667	None	1	0.492555245	1967.378952	None	1967.378952	None	1967.378952	None	1967.963838	None	1967.963838	1968.966478	1970.069389	None	1970.069389	None	left	1970.069389	None	1970.971751	1972.074668	None	None	0.858107199													116	1	19	1	2020_Feb_19_1055	Test	3.2.4	59.84055735		
Pictures/IA20_10_L95p.bmp	Pictures/IA20_10_L95p.bmp	Pictures/IA20.bmp	"Don't be tempted to gamble."""""	0	safe					1	0	1	0	0	4	4	13																															1972.091371	None	1974.113377	1975.634038	1975.617346	None	1977.138006	None	1	1.512219434	1979.143293	None	1979.143293	None	1979.143293	None	1980.764225	None	1980.764225	1981.766864	1982.869774	None	1982.869774	None	right	1982.869774	None	None	None	1983.97269	None	1.057725496													116	1	19	1	2020_Feb_19_1055	Test	3.2.4	59.84055735		
Pictures/IA110_55_G95p.bmp	Pictures/IA110_55_G95p.bmp	Pictures/IA110.bmp	"Take a chance!"""""	1	risk					1	0	1	0	0	5	5	14																															1984.891782	None	1986.913779	1988.434447	1988.417728	None	1989.988546	None	1	0.50381851	1991.943693	None	1991.943693	None	1991.943693	None	1992.545269	None	1992.545269	1993.547915	1994.650821	None	1994.650821	None	left	1994.650821	None	1995.369376	1996.639391	None	None	0.684672377													116	1	19	1	2020_Feb_19_1055	Test	3.2.4	59.84055735		
Pictures/IA100_L40.bmp	Pictures/IA100_L40.bmp	Pictures/IA100.bmp	"Think of the payoff"	1	risk					1	0	1	0	0	6	6	0																															1996.656113	None	1998.678116	2000.198781	2000.182068	None	2001.752881	None	1	0.867490538	2003.708022	None	2003.708022	None	2003.708022	None	2004.693971	None	2004.693971	2005.696602	2006.799515	None	2006.799515	None	right	2006.799515	None	None	None	2007.618336	2008.788072	0.775990437													116	1	19	1	2020_Feb_19_1055	Test	3.2.4	59.84055735		
Pictures/IA50_G20.bmp	Pictures/IA50_G20.bmp	Pictures/IA50.bmp	"Let's venture and take a risk!"""""	1	risk					1	0	1	0	0	7	7	18																															2008.804797	None	2010.826793	2012.347463	2012.330745	None	2013.851433	None	1	1.422770613	2015.856721	None	2015.856721	None	2015.856721	None	2017.410804	None	2017.410804	2018.413438	2019.650038	None	2019.650038	None	right	2019.650038	None	None	None	2019.984261	2021.655326	0.285452758													116	1	19	1	2020_Feb_19_1055	Test	3.2.4	59.84055735		
Pictures/IA25_G20.bmp	Pictures/IA25_G20.bmp	Pictures/IA25.bmp	"I wouldn't gamble for this one. """""	0	safe					1	0	1	0	0	8	8	19																															2021.672028	None	2023.694025	2025.214695	2025.198002	None	2026.70195	None	1	1.611540223	2028.72396	None	2028.72396	None	2028.72396	None	2030.46187	None	2030.46187	2031.464511	2032.567423	None	2032.567423	None	right	2032.567423	None	None	None	2033.887576	None	1.280074882													116	1	19	1	2020_Feb_19_1055	Test	3.2.4	59.84055735		
Pictures/IA20_10_G95p.bmp	Pictures/IA20_10_G95p.bmp	Pictures/IA20.bmp	"Take a leap"	1	risk					1	0	1	0	0	9	9	9																															2034.572694	None	2036.59469	2038.115361	2038.098668	None	2039.66946	None	2	1.414876356	2041.624627	None	2041.624627	None	2041.624627	None	None	None	None	None	2043.212143	None	2043.212143	None	left	2043.212143	None	2043.446082	2045.217421	None	None	0.18735552													116	1	19	1	2020_Feb_19_1055	Test	3.2.4	59.84055735		
Pictures/IA25_G15.bmp	Pictures/IA25_G15.bmp	Pictures/IA25.bmp	"I think you should take a gamble."""""	1	risk					1	0	1	0	0	10	10	16																															2045.234122	None	2047.256123	2048.776792	2048.760101	None	2050.280758	None	2	1.145456849	2052.28605	None	2052.28605	None	2052.28605	None	None	None	None	None	2053.606156	None	2053.606156	None	left	2053.606156	None	2053.940415	2055.594738	None	None	0.28934547													116	1	19	1	2020_Feb_19_1055	Test	3.2.4	59.84055735		
Pictures/IA80_40_G95p.bmp	Pictures/IA80_40_G95p.bmp	Pictures/IA80.bmp	"Think of the payoff"	1	risk					1	0	1	0	0	11	11	4																															2055.611472	None	2057.633469	2059.154141	2059.13745	None	2060.658106	None	2	0.848102133	2062.663394	None	2062.663394	None	2062.663394	None	None	None	None	None	2063.682747	None	2063.682747	None	left	2063.682747	None	2063.966825	2065.67133	None	None	0.236749613													116	1	19	1	2020_Feb_19_1055	Test	3.2.4	59.84055735		
Pictures/IA100_L80.bmp	Pictures/IA100_L80.bmp	Pictures/IA100.bmp	"Go all in!"""""	1	risk					1	0	1	0	0	12	12	15																															2065.688036	None	2067.710027	2069.230699	2069.214001	None	2070.734666	None	2	0.419556157	2072.739951	None	2072.739951	None	2072.739951	None	None	None	None	None	2073.308127	None	2073.308127	None	left	2073.308127	None	2073.4418	2075.313395	None	None	0.0913791													116	1	19	1	2020_Feb_19_1055	Test	3.2.4	59.84055735		
Pictures/IA100_L20.bmp	Pictures/IA100_L20.bmp	Pictures/IA100.bmp	"Try to win as much money as you can"	1	risk					1	0	1	0	0	13	13	12																															2075.330118	None	2077.352117	2078.872789	2078.856072	None	2080.360045	None	1	2.14546662	2082.382032	None	2082.382032	None	2082.382032	None	2084.671396	None	2084.671396	2085.674036	2086.810368	None	2086.810368	None	right	2086.810368	None	None	None	2087.779599	2088.815651	0.925131103													116	1	19	1	2020_Feb_19_1055	Test	3.2.4	59.84055735		
Pictures/IA75_L45.bmp	Pictures/IA75_L45.bmp	Pictures/IA75.bmp	"Don't gamble for this one"	0	safe					1	0	1	0	0	14	14	3																															2088.832372	None	2090.854373	2092.375045	2092.358325	None	2093.91243	None	None		2095.8843	None	2095.8843	None	2095.8843	None	None	None	None	None	2099.009189	None	2099.009189	None	right	2099.009189	None	None	None	2100.262488	None	1.214310466													116	1	19	1	2020_Feb_19_1055	Test	3.2.4	59.84055735		
Pictures/IA25_G10.bmp	Pictures/IA25_G10.bmp	Pictures/IA25.bmp	"What's life without a little risk?"""""	1	risk					1	0	1	0	0	15	15	5																															2101.014479	None	2103.036476	2104.557153	2104.540432	None	2106.094539	None	2	0.701093047	2108.066404	None	2108.066404	None	2108.066404	None	None	None	None	None	2108.935353	None	2108.935353	None	left	2108.935353	None	2109.085751	2110.940632	None	None	0.112135566													116	1	19	1	2020_Feb_19_1055	Test	3.2.4	59.84055735		
Pictures/IA25_L15.bmp	Pictures/IA25_L15.bmp	Pictures/IA25.bmp	"There's not much on the line here"	1	risk					1	0	1	0	0	16	16	7																															2110.957354	None	2112.979356	2114.500028	2114.483311	None	2116.054125	None	2	0.902236728	2118.009266	None	2118.009266	None	2118.009266	None	None	None	None	None	2119.078763	None	2119.078763	None	left	2119.078763	None	2119.646912	2121.084044	None	None	0.52074009													116	1	19	1	2020_Feb_19_1055	Test	3.2.4	59.84055735		
Pictures/IA100_G60.bmp	Pictures/IA100_G60.bmp	Pictures/IA100.bmp	"Be cautious"	0	safe					1	0	1	0	0	17	17	2																															2121.100746	None	2123.122747	2124.643413	2124.626724	None	2126.197513	None	1	1.086831025	2128.15268	None	2128.15268	None	2128.15268	None	2129.389264	None	2129.389264	2130.391901	2131.511523	None	2131.511523	None	right	2131.511523	None	None	None	2131.912587	2133.500104	0.359968932													116	1	19	1	2020_Feb_19_1055	Test	3.2.4	59.84055735		
Pictures/IA50_L20.bmp	Pictures/IA50_L20.bmp	Pictures/IA50.bmp	"Certainty is boring"	1	risk					1	0	1	0	0	18	18	17																															2133.516804	None	2135.538807	2137.059473	2137.042779	None	2138.613572	None	2	0.806764417	2140.568741	None	2140.568741	None	2140.568741	None	None	None	None	None	2141.554686	None	2141.554686	None	right	2141.554686	None	None	None	2141.822027	2143.559958	0.220814702													116	1	19	1	2020_Feb_19_1055	Test	3.2.4	59.84055735		
Pictures/IA40_20_G95p.bmp	Pictures/IA40_20_G95p.bmp	Pictures/IA40.bmp	"Hold back"	0	safe					1	0	1	0	0	19	19	1																															2143.576672	None	2145.59865	2147.119322	2147.102627	None	2148.62329	None	2	1.818917876	2150.628576	None	2150.628576	None	2150.628576	None	None	None	None	None	2152.617152	None	2152.617152	None	left	2152.617152	None	2152.86781	2154.605735	None	None	0.214345983													116	1	19	1	2020_Feb_19_1055	Test	3.2.4	59.84055735		
										1	0	1	0																																																																									2154.772846	None	return	7.554648172	2154.772846	None	116	1	19	1	2020_Feb_19_1055	Test	3.2.4	59.84055735		
Pictures/IA25_G20.bmp	Pictures/IA25_G20.bmp	Pictures/IA25.bmp	"I wouldn't gamble for this one. """""	0	safe					2	0	2	0	0	0	0	3													2162.493151	None	2162.493151	None	2162.493151	None	left	1.554354423	2162.493151	None	2162.493151	None	2162.493151	None	return	2.698178245	2162.493151	None	2165.250448	None	2167.255748	2168.776419	2168.759714	None	2170.263663	None	2	1.282560345	2172.268952	None	2172.268952	None	2172.268952	None	None	None	None	None	2173.72279	None	2173.72279	None	right	2173.72279	None	None	None	2174.859122	None	1.100695559													116	1	19	1	2020_Feb_19_1055	Test	3.2.4	59.84055735		
Pictures/IA75_L60.bmp	Pictures/IA75_L60.bmp	Pictures/IA75.bmp	"Why not take the gamble?"""""	1	risk					2	0	2	0	0	1	1	18																															2175.744775	None	2177.766778	2179.287449	2179.270755	None	2180.84155	None	2	1.154805683	2182.796713	None	2182.796713	None	2182.796713	None	None	None	None	None	2184.116849	None	2184.116849	None	left	2184.116849	None	2184.350808	2186.122129	None	None	0.18665245													116	1	19	1	2020_Feb_19_1055	Test	3.2.4	59.84055735		
Pictures/IA100_L80.bmp	Pictures/IA100_L80.bmp	Pictures/IA100.bmp	"Go all in!"""""	1	risk					2	0	2	0	0	2	2	8																															2186.138851	None	2188.160849	2189.681531	2189.664805	None	2191.168779	None	1	0.424735669	2193.19077	None	2193.19077	None	2193.19077	None	2193.692099	None	2193.692099	2194.694736	2195.797651	None	2195.797651	None	left	2195.797651	None	2196.181991	2197.786221	None	None	0.345836099													116	1	19	1	2020_Feb_19_1055	Test	3.2.4	59.84055735		
Pictures/IA20_10_L95p.bmp	Pictures/IA20_10_L95p.bmp	Pictures/IA20.bmp	"Don't be tempted to gamble."""""	0	safe					2	0	2	0	0	3	3	2																															2197.802918	None	2199.824916	2201.34559	2201.328895	None	2202.849561	None	1	1.128660834	2204.854845	None	2204.854845	None	2204.854845	None	2206.108159	None	2206.108159	2207.110797	2208.213711	None	2208.213711	None	right	2208.213711	None	None	None	2208.481072	2210.21898	0.233786383													116	1	19	1	2020_Feb_19_1055	Test	3.2.4	59.84055735		
Pictures/IA80_40_G95p.bmp	Pictures/IA80_40_G95p.bmp	Pictures/IA80.bmp	"Think of the payoff"	1	risk					2	0	2	0	0	4	4	10																															2210.235714	None	2212.257703	2213.778374	2213.761655	None	2215.265632	None	1	1.159872629	2217.287632	None	2217.287632	None	2217.287632	None	2218.574351	None	2218.574351	2219.577004	2220.696616	None	2220.696616	None	left	2220.696616	None	2220.963974	2222.701885	None	None	0.230889492													116	1	19	1	2020_Feb_19_1055	Test	3.2.4	59.84055735		
Pictures/IA25_G5.bmp	Pictures/IA25_G5.bmp	Pictures/IA25.bmp	"Let's stay with the certain option."""""	0	safe					2	0	2	0	0	5	5	4																															2222.718611	None	2224.740605	2226.261282	2226.244559	None	2227.76525	None	1	0.908968167	2229.770537	None	2229.770537	None	2229.770537	None	2230.823313	None	2230.823313	2231.825944	2232.945571	None	2232.945571	None	right	2232.945571	None	None	None	2233.212926	2234.950839	0.229921352													116	1	19	1	2020_Feb_19_1055	Test	3.2.4	59.84055735		
Pictures/IA50_L10.bmp	Pictures/IA50_L10.bmp	Pictures/IA50.bmp	"Play it safe"	0	safe					2	0	2	0	0	6	6	15																															2234.967561	None	2236.98956	2238.510238	2238.493515	None	2240.014206	None	1	1.460011174	2242.019493	None	2242.019493	None	2242.019493	None	2243.590248	None	2243.590248	2244.592925	2245.695839	None	2245.695839	None	left	2245.695839	None	2246.063479	2247.701115	None	None	0.319659896													116	1	19	1	2020_Feb_19_1055	Test	3.2.4	59.84055735		
Pictures/IA80_40_L95p.bmp	Pictures/IA80_40_L95p.bmp	Pictures/IA80.bmp	"Let's stay with the certain option."""""	0	safe					2	0	2	0	0	7	7	11																															2247.717845	None	2249.739837	2251.26052	2251.243796	None	2252.764476	None	2	1.957743553	2254.769767	None	2254.769767	None	2254.769767	None	None	None	None	None	2256.908727	None	2256.908727	None	right	2256.908727	None	None	None	2257.593872	2258.897308	0.642767945													116	1	19	1	2020_Feb_19_1055	Test	3.2.4	59.84055735		
Pictures/IA100_G40.bmp	Pictures/IA100_G40.bmp	Pictures/IA100.bmp	"Try your luck and gamble!"""""	1	risk					2	0	2	0	0	8	8	14																															2258.914006	None	2260.936013	2262.456678	2262.439992	None	2263.977355	None	2	1.329560417	2265.965946	None	2265.965946	None	2265.965946	None	None	None	None	None	2267.469898	None	2267.469898	None	left	2267.469898	None	2269.157678	None	None	None	1.649595846													116	1	19	1	2020_Feb_19_1055	Test	3.2.4	59.84055735		
Pictures/IA100_L40.bmp	Pictures/IA100_L40.bmp	Pictures/IA100.bmp	"Think of the payoff"	1	risk					2	0	2	0	0	9	9	7																															2269.475182	None	2271.497181	2273.017853	2273.001157	None	2274.505109	None	None		2276.527117	None	2276.527117	None	2276.527117	None	None	None	None	None	2279.61859	None	2279.61859	None	left	2279.61859	None	2280.303727	2281.607177	None	None	0.636911977													116	1	19	1	2020_Feb_19_1055	Test	3.2.4	59.84055735		
Pictures/IA100_G60.bmp	Pictures/IA100_G60.bmp	Pictures/IA100.bmp	"Be cautious"	0	safe					2	0	2	0	0	10	10	16																															2281.623873	None	2283.64587	2285.166545	2285.149849	None	2286.653802	None	2	0.523694698	2288.675814	None	2288.675814	None	2288.675814	None	None	None	None	None	2289.37765	None	2289.37765	None	left	2289.37765	None	2289.528042	2291.366231	None	None	0.109864931													116	1	19	1	2020_Feb_19_1055	Test	3.2.4	59.84055735		
Pictures/IA75_L45.bmp	Pictures/IA75_L45.bmp	Pictures/IA75.bmp	"Don't gamble for this one"	0	safe					2	0	2	0	0	11	11	1																															2291.382931	None	2293.404935	2294.925607	2294.908911	None	2296.412859	None	1	1.028632256	2298.434869	None	2298.434869	None	2298.434869	None	2299.604609	None	2299.604609	2300.607248	2301.710165	None	2301.710165	None	left	2301.710165	None	2302.044381	2303.715453	None	None	0.289336908													116	1	19	1	2020_Feb_19_1055	Test	3.2.4	59.84055735		
Pictures/IA75_G30.bmp	Pictures/IA75_G30.bmp	Pictures/IA75.bmp	"Be bold"	1	risk					2	0	2	0	0	12	12	0																															2303.73216	None	2305.754153	2307.274824	2307.258131	None	2308.82892	None	1	1.615403379	2310.784092	None	2310.784092	None	2310.784092	None	2312.505256	None	2312.505256	2313.507932	2314.610847	None	2314.610847	None	left	2314.610847	None	2314.995189	2316.599429	None	None	0.348654051													116	1	19	1	2020_Feb_19_1055	Test	3.2.4	59.84055735		
Pictures/IA25_L10.bmp	Pictures/IA25_L10.bmp	Pictures/IA25.bmp	"Dont be afraid to take the risk!"""""	1	risk					2	0	2	0	0	13	13	13																															2316.616116	None	2318.638119	2320.158789	2320.142098	None	2321.729599	None	2	1.211461601	2323.668044	None	2323.668044	None	2323.668044	None	None	None	None	None	2325.055035	None	2325.055035	None	right	2325.055035	None	None	None	2325.155308	2327.060315	0.056479835													116	1	19	1	2020_Feb_19_1055	Test	3.2.4	59.84055735		
Pictures/IA25_G15.bmp	Pictures/IA25_G15.bmp	Pictures/IA25.bmp	"I think you should take a gamble."""""	1	risk					2	0	2	0	0	14	14	12																															2327.077041	None	2329.099037	2330.619709	2330.602996	None	2332.106971	None	1	0.966547208	2334.128955	None	2334.128955	None	2334.128955	None	2335.21516	None	2335.21516	2336.2178	2337.354135	None	2337.354135	None	left	2337.354135	None	2338.139537	2339.342708	None	None	0.749376481													116	1	19	1	2020_Feb_19_1055	Test	3.2.4	59.84055735		
Pictures/IA75_G15.bmp	Pictures/IA75_G15.bmp	Pictures/IA75.bmp	"Take a chance!"""""	1	risk					2	0	2	0	0	15	15	6																															2339.359406	None	2341.381404	2342.902076	2342.885382	None	2344.45618	None	2	1.188162985	2346.411345	None	2346.411345	None	2346.411345	None	None	None	None	None	2347.748197	None	2347.748197	None	right	2347.748197	None	None	None	2348.232798	2349.736776	0.443298914													116	1	19	1	2020_Feb_19_1055	Test	3.2.4	59.84055735		
Pictures/IA50_G10.bmp	Pictures/IA50_G10.bmp	Pictures/IA50.bmp	"Go with the safe option here!"""""	0	safe					2	0	2	0	0	16	16	19																															2349.753472	None	2351.775475	2353.296147	2353.279456	None	2354.800112	None	2	0.322102505	2356.805403	None	2356.805403	None	2356.805403	None	None	None	None	None	2357.306736	None	2357.306736	None	right	2357.306736	None	None	None	2357.507249	2359.312003	0.156761252													116	1	19	1	2020_Feb_19_1055	Test	3.2.4	59.84055735		
Pictures/IA50_G40.bmp	Pictures/IA50_G40.bmp	Pictures/IA50.bmp	"It would probably be best to play it safe."""""	0	safe					2	0	2	0	0	17	17	5																															2359.328733	None	2361.350725	2362.871399	2362.854684	None	2364.375366	None	2	1.434854386	2366.380647	None	2366.380647	None	2366.380647	None	None	None	None	None	2368.018305	None	2368.018305	None	right	2368.018305	None	None	None	2368.486191	2370.023574	0.429196497													116	1	19	1	2020_Feb_19_1055	Test	3.2.4	59.84055735		
Pictures/IA20_10_G95p.bmp	Pictures/IA20_10_G95p.bmp	Pictures/IA20.bmp	"Take a leap"	1	risk					2	0	2	0	0	18	18	17																															2370.040299	None	2372.062298	2373.582982	2373.566252	None	2375.086934	None	2	0.955278768	2377.092227	None	2377.092227	None	2377.092227	None	None	None	None	None	2378.245253	None	2378.245253	None	left	2378.245253	None	2378.947114	2380.233827	None	None	0.666243253													116	1	19	1	2020_Feb_19_1055	Test	3.2.4	59.84055735		
Pictures/IA50_L30.bmp	Pictures/IA50_L30.bmp	Pictures/IA50.bmp	"Take a leap"	1	risk					2	0	2	0	0	19	19	9																															2380.250549	None	2382.272545	2383.793221	2383.776502	None	2385.297188	None	2	0.841027317	2387.302477	None	2387.302477	None	2387.302477	None	None	None	None	None	2388.271698	None	2388.271698	None	right	2388.271698	None	None	None	2388.572485	2390.276981	0.263797644													116	1	19	1	2020_Feb_19_1055	Test	3.2.4	59.84055735		
										2	0	2	0																																																																									2390.444082	None	return	7.387401511	2390.444082	None	116	1	19	1	2020_Feb_19_1055	Test	3.2.4	59.84055735		
Pictures/IA25_G15.bmp	Pictures/IA25_G15.bmp	Pictures/IA25.bmp	"I think you should take a gamble."""""	1	risk					3	0	3	0	0	0	0	16													2397.997328	None	2397.997328	None	2397.997328	None	right	0.946169728	2397.997328	None	2397.997328	None	2397.997328	None	return	4.625946977	2397.997328	None	2402.676325	None	2404.681625	2406.202297	2406.185582	None	2407.706253	None	2	1.048653748	2409.694843	None	2409.694843	None	2409.694843	None	None	None	None	None	2410.91473	None	2410.91473	None	right	2410.91473	None	None	None	2411.215524	2412.903297	0.2527707													116	1	19	1	2020_Feb_19_1055	Test	3.2.4	59.84055735		
Pictures/IA25_L10.bmp	Pictures/IA25_L10.bmp	Pictures/IA25.bmp	"Dont be afraid to take the risk!"""""	1	risk					3	0	3	0	0	1	1	14																															2412.920001	None	2414.941994	2416.462669	2416.445973	None	2417.949926	None	2	2.499578185	2419.971938	None	2419.971938	None	2419.971938	None	None	None	None	None	2422.64564	None	2422.64564	None	right	2422.64564	None	None	None	2423.280656	2424.650923	0.585855999													116	1	19	1	2020_Feb_19_1055	Test	3.2.4	59.84055735		
Pictures/IA50_G40.bmp	Pictures/IA50_G40.bmp	Pictures/IA50.bmp	"It would probably be best to play it safe."""""	0	safe					3	0	3	0	0	2	2	17																															2424.667647	None	2426.689642	2428.210318	2428.193603	None	2429.697576	None	1	1.511942662	2431.719562	None	2431.719562	None	2431.719562	None	2433.373892	None	2433.373892	2434.376561	2435.496185	None	2435.496185	None	left	2435.496185	None	2435.897251	2437.501481	None	None	0.351313723													116	1	19	1	2020_Feb_19_1055	Test	3.2.4	59.84055735		
Pictures/IA75_G15.bmp	Pictures/IA75_G15.bmp	Pictures/IA75.bmp	"Take a chance!"""""	1	risk					3	0	3	0	0	3	3	9																															2437.518177	None	2439.54018	2441.060854	2441.044155	None	2442.548108	None	2	0.917380308	2444.570123	None	2444.570123	None	2444.570123	None	None	None	None	None	2445.673022	None	2445.673022	None	right	2445.673022	None	None	None	2446.257898	2447.661599	0.550472797													116	1	19	1	2020_Feb_19_1055	Test	3.2.4	59.84055735		
Pictures/IA80_40_L95p.bmp	Pictures/IA80_40_L95p.bmp	Pictures/IA80.bmp	"Let's stay with the certain option."""""	0	safe					3	0	3	0	0	4	4	10																															2447.678297	None	2449.700297	2451.220982	2451.204263	None	2452.724949	None	2	0.981257223	2454.730238	None	2454.730238	None	2454.730238	None	None	None	None	None	2455.916704	None	2455.916704	None	right	2455.916704	None	None	None	2456.468151	2457.905264	0.506806256													116	1	19	1	2020_Feb_19_1055	Test	3.2.4	59.84055735		
Pictures/IA25_L5.bmp	Pictures/IA25_L5.bmp	Pictures/IA25.bmp	"It would be smarter to choose the safe option."""""	0	safe					3	0	3	0	0	5	5	4																															2457.921983	None	2459.943989	2461.464654	2461.447942	None	2463.018756	None	2	1.5376055	2464.9739	None	2464.9739	None	2464.9739	None	None	None	None	None	2466.695105	None	2466.695105	None	right	2466.695105	None	None	None	2466.945763	2468.683676	0.216390137													116	1	19	1	2020_Feb_19_1055	Test	3.2.4	59.84055735		
Pictures/IA100_L20.bmp	Pictures/IA100_L20.bmp	Pictures/IA100.bmp	"Try to win as much money as you can"	1	risk					3	0	3	0	0	6	6	19																															2468.700399	None	2470.722393	2472.243074	2472.226352	None	2473.747042	None	1	1.127175722	2475.752328	None	2475.752328	None	2475.752328	None	2477.039042	None	2477.039042	2478.041679	2479.144594	None	2479.144594	None	left	2479.144594	None	2480.698687	None	None	None	1.518894384													116	1	19	1	2020_Feb_19_1055	Test	3.2.4	59.84055735		
Pictures/IA100_G20.bmp	Pictures/IA100_G20.bmp	Pictures/IA100.bmp	"Go ahead and gamble!"""""	1	risk					3	0	3	0	0	7	7	6																															2481.149876	None	2483.171874	2484.69255	2484.675853	None	2486.196517	None	2	0.789713079	2488.201804	None	2488.201804	None	2488.201804	None	None	None	None	None	2489.154327	None	2489.154327	None	right	2489.154327	None	None	None	2489.32142	2491.159609	0.125173575													116	1	19	1	2020_Feb_19_1055	Test	3.2.4	59.84055735		
Pictures/IA80_40_G95p.bmp	Pictures/IA80_40_G95p.bmp	Pictures/IA80.bmp	"Think of the payoff"	1	risk					3	0	3	0	0	8	8	1																															2491.17631	None	2493.198307	2494.718992	2494.702288	None	2496.239662	None	1	1.251278756	2498.228253	None	2498.228253	None	2498.228253	None	2499.598531	None	2499.598531	2500.601171	2501.754213	None	2501.754213	None	left	2501.754213	None	2502.021569	2503.742773	None	None	0.229283846													116	1	19	1	2020_Feb_19_1055	Test	3.2.4	59.84055735		
Pictures/IA100_G40.bmp	Pictures/IA100_G40.bmp	Pictures/IA100.bmp	"Try your luck and gamble!"""""	1	risk					3	0	3	0	0	9	9	2																															2503.759509	None	2505.781502	2507.302169	2507.285453	None	2508.78943	None	2	0.716091861	2510.811415	None	2510.811415	None	2510.811415	None	None	None	None	None	2511.680371	None	2511.680371	None	right	2511.680371	None	None	None	2512.616181	2513.685671	0.895143643													116	1	19	1	2020_Feb_19_1055	Test	3.2.4	59.84055735		
Pictures/IA75_L30.bmp	Pictures/IA75_L30.bmp	Pictures/IA75.bmp	"Hold back"	0	safe					3	0	3	0	0	10	10	7																															2513.702365	None	2515.724369	2517.24504	2517.228345	None	2518.765715	None	2	0.501196298	2520.754305	None	2520.754305	None	2520.754305	None	None	None	None	None	2521.422726	None	2521.422726	None	right	2521.422726	None	None	None	2521.673383	2523.411293	0.216770421													116	1	19	1	2020_Feb_19_1055	Test	3.2.4	59.84055735		
Pictures/IA40_20_G95p.bmp	Pictures/IA40_20_G95p.bmp	Pictures/IA40.bmp	"Hold back"	0	safe					3	0	3	0	0	11	11	0																															2523.428018	None	2525.450019	2526.970695	2526.953973	None	2528.49137	None	2	1.687556757	2530.479939	None	2530.479939	None	2530.479939	None	None	None	None	None	2532.284695	None	2532.284695	None	left	2532.284695	None	2532.602209	2534.273267	None	None	0.282812767													116	1	19	1	2020_Feb_19_1055	Test	3.2.4	59.84055735		
Pictures/IA75_L15.bmp	Pictures/IA75_L15.bmp	Pictures/IA75.bmp	"Trust me–gamble!"""""	1	risk					3	0	3	0	0	12	12	8																															2534.289988	None	2536.31199	2537.832663	2537.815941	None	2539.386764	None	2	0.513594333	2541.341908	None	2541.341908	None	2541.341908	None	None	None	None	None	2542.010336	None	2542.010336	None	right	2542.010336	None	None	None	2542.277717	2543.99892	0.221157427													116	1	19	1	2020_Feb_19_1055	Test	3.2.4	59.84055735		
Pictures/IA100_L80.bmp	Pictures/IA100_L80.bmp	Pictures/IA100.bmp	"Go all in!"""""	1	risk					3	0	3	0	0	13	13	12																															2544.015619	None	2546.037618	2547.558292	2547.541597	None	2549.06226	None	2	0.651954604	2551.067553	None	2551.067553	None	2551.067553	None	None	None	None	None	2551.869678	None	2551.869678	None	right	2551.869678	None	None	None	2552.538091	2553.874945	0.625832725													116	1	19	1	2020_Feb_19_1055	Test	3.2.4	59.84055735		
Pictures/IA25_G5.bmp	Pictures/IA25_G5.bmp	Pictures/IA25.bmp	"Let's stay with the certain option."""""	0	safe					3	0	3	0	0	14	14	18																															2553.891669	None	2555.913673	2557.41762	2557.400928	None	2558.955021	None	2	0.583894511	2560.943604	None	2560.943604	None	2560.943604	None	None	None	None	None	2561.745701	None	2561.745701	None	right	2561.745701	None	None	None	2561.812553	2563.734285	0.021795063													116	1	19	1	2020_Feb_19_1055	Test	3.2.4	59.84055735		
Pictures/IA100_G60.bmp	Pictures/IA100_G60.bmp	Pictures/IA100.bmp	"Be cautious"	0	safe					3	0	3	0	0	15	15	15																															2563.750985	None	2565.772983	2567.293658	2567.276962	None	2568.814336	None	1	0.83657978	2570.802926	None	2570.802926	None	2570.802926	None	2571.788859	None	2571.788859	2572.791512	2573.894413	None	2573.894413	None	left	2573.894413	None	2574.479281	2575.882981	None	None	0.545074082													116	1	19	1	2020_Feb_19_1055	Test	3.2.4	59.84055735		
Pictures/IA20_10_L95p.bmp	Pictures/IA20_10_L95p.bmp	Pictures/IA20.bmp	"Don't be tempted to gamble."""""	0	safe					3	0	3	0	0	16	16	3																															2575.899685	None	2577.921682	2579.442356	2579.42566	None	2580.963031	None	2	1.015854899	2582.951645	None	2582.951645	None	2582.951645	None	None	None	None	None	2584.138086	None	2584.138086	None	right	2584.138086	None	None	None	2584.338598	2586.143359	0.165403685													116	1	19	1	2020_Feb_19_1055	Test	3.2.4	59.84055735		
Pictures/IA75_G30.bmp	Pictures/IA75_G30.bmp	Pictures/IA75.bmp	"Be bold"	1	risk					3	0	3	0	0	17	17	13																															2586.160079	None	2588.182081	2589.702751	2589.686032	None	2591.190008	None	2	1.26749918	2593.211997	None	2593.211997	None	2593.211997	None	None	None	None	None	2594.632419	None	2594.632419	None	right	2594.632419	None	None	None	2595.083607	2596.620994	0.415074802													116	1	19	1	2020_Feb_19_1055	Test	3.2.4	59.84055735		
Pictures/IA100_L40.bmp	Pictures/IA100_L40.bmp	Pictures/IA100.bmp	"Think of the payoff"	1	risk					3	0	3	0	0	18	18	11																															2596.637691	None	2598.659692	2600.180368	2600.163673	None	2601.684332	None	None		2603.689623	None	2603.689623	None	2603.689623	None	None	None	None	None	2606.797823	None	2606.797823	None	left	2606.797823	None	2607.449546	2608.786391	None	None	0.601669573													116	1	19	1	2020_Feb_19_1055	Test	3.2.4	59.84055735		
Pictures/IA75_G60.bmp	Pictures/IA75_G60.bmp	Pictures/IA75.bmp	"Make it exciting"	1	risk					3	0	3	0	0	19	19	5																															2608.803144	None	2610.825111	2612.345838	2612.329125	None	2613.899884	None	1	1.856468343	2615.855035	None	2615.855035	None	2615.855035	None	2617.843618	None	2617.843618	2618.846256	2619.949173	None	2619.949173	None	left	2619.949173	None	2620.433777	2621.937744	None	None	0.450320767													116	1	19	1	2020_Feb_19_1055	Test	3.2.4	59.84055735		
										3	0	3	0																																																																									2622.104854	None	return	5.65463369	2622.104854	None	116	1	19	1	2020_Feb_19_1055	Test	3.2.4	59.84055735		
Pictures/IA110_55_G95p.bmp	Pictures/IA110_55_G95p.bmp	Pictures/IA110.bmp	"Take a chance!"""""	1	risk					4	0	4	0	0	0	0	8													2627.920185	None	2627.920185	None	2627.920185	None	left	0.887308935	2627.920185	None	2627.920185	None	2627.920185	None	return	2.04709292	2627.920185	None	2630.025734	None	2632.031008	2633.551685	2633.534989	None	2635.055665	None	2	0.763268152	2637.044234	None	2637.044234	None	2637.044234	None	None	None	None	None	2637.963331	None	2637.963331	None	left	2637.963331	None	2638.247414	2639.951896	None	None	0.244163376													116	1	19	1	2020_Feb_19_1055	Test	3.2.4	59.84055735		
Pictures/IA75_L30.bmp	Pictures/IA75_L30.bmp	Pictures/IA75.bmp	"Hold back"	0	safe					4	0	4	0	0	1	1	3																															2639.968617	None	2641.990617	2643.51129	2643.494571	None	2644.998546	None	1	1.114969561	2647.020535	None	2647.020535	None	2647.020535	None	2648.273839	None	2648.273839	2649.276478	2650.379392	None	2650.379392	None	left	2650.379392	None	2651.398742	None	None	None	0.972104633													116	1	19	1	2020_Feb_19_1055	Test	3.2.4	59.84055735		
Pictures/IA50_G30.bmp	Pictures/IA50_G30.bmp	Pictures/IA50.bmp	"I think you should gamble."""""	1	risk					4	0	4	0	0	2	2	15																															2652.384673	None	2654.406676	2655.927354	2655.910657	None	2657.448029	None	2	1.63488162	2659.436623	None	2659.436623	None	2659.436623	None	None	None	None	None	2661.258079	None	2661.258079	None	left	2661.258079	None	2661.508732	2663.263369	None	None	0.213415454													116	1	19	1	2020_Feb_19_1055	Test	3.2.4	59.84055735		
Pictures/IA25_L15.bmp	Pictures/IA25_L15.bmp	Pictures/IA25.bmp	"There's not much on the line here"	1	risk					4	0	4	0	0	3	3	17																															2663.280072	None	2665.302067	2666.806047	2666.789329	None	2668.326712	None	2	0.595503415	2670.331999	None	2670.331999	None	2670.331999	None	None	None	None	None	2671.117414	None	2671.117414	None	right	2671.117414	None	None	None	2671.30123	2673.105976	0.146081637													116	1	19	1	2020_Feb_19_1055	Test	3.2.4	59.84055735		
Pictures/IA25_G20.bmp	Pictures/IA25_G20.bmp	Pictures/IA25.bmp	"I wouldn't gamble for this one. """""	0	safe					4	0	4	0	0	4	4	13																															2673.122698	None	2675.144697	2676.665371	2676.648653	None	2678.186055	None	2	0.560897568	2680.174618	None	2680.174618	None	2680.174618	None	None	None	None	None	2680.909908	None	2680.909908	None	right	2680.909908	None	None	None	2681.177259	2682.915174	0.225599004													116	1	19	1	2020_Feb_19_1055	Test	3.2.4	59.84055735		
Pictures/IA40_20_G95p.bmp	Pictures/IA40_20_G95p.bmp	Pictures/IA40.bmp	"Hold back"	0	safe					4	0	4	0	0	5	5	2																															2682.931895	None	2684.953894	2686.474571	2686.457853	None	2687.96183	None	1	1.975705432	2689.983815	None	2689.983815	None	2689.983815	None	2692.106076	None	2692.106076	2693.108711	2694.211631	None	2694.211631	None	left	2694.211631	None	2694.779807	2696.216911	None	None	0.523880852													116	1	19	1	2020_Feb_19_1055	Test	3.2.4	59.84055735		
Pictures/IA20_10_G95p.bmp	Pictures/IA20_10_G95p.bmp	Pictures/IA20.bmp	"Take a leap"	1	risk					4	0	4	0	0	6	6	12																															2696.233636	None	2698.255634	2699.759587	2699.742893	None	2701.296994	None	2	0.945948521	2703.285555	None	2703.285555	None	2703.285555	None	None	None	None	None	2704.405174	None	2704.405174	None	left	2704.405174	None	2704.522148	2706.39375	None	None	0.082315293													116	1	19	1	2020_Feb_19_1055	Test	3.2.4	59.84055735		
Pictures/IA80_40_G95p.bmp	Pictures/IA80_40_G95p.bmp	Pictures/IA80.bmp	"Think of the payoff"	1	risk					4	0	4	0	0	7	7	7																															2706.410469	None	2708.43247	2709.953146	2709.936424	None	2711.440401	None	2	0.713108533	2713.462395	None	2713.462395	None	2713.462395	None	None	None	None	None	2714.348058	None	2714.348058	None	left	2714.348058	None	2714.632138	2716.336648	None	None	0.235449368													116	1	19	1	2020_Feb_19_1055	Test	3.2.4	59.84055735		
Pictures/IA75_G45.bmp	Pictures/IA75_G45.bmp	Pictures/IA75.bmp	"Don't gamble for this one."""""	0	safe					4	0	4	0	0	8	8	10																															2716.353342	None	2718.37534	2719.896015	2719.87932	None	2721.433404	None	1	1.130232641	2723.405271	None	2723.405271	None	2723.405271	None	2724.641883	None	2724.641883	2725.644518	2726.747435	None	2726.747435	None	left	2726.747435	None	2728.451913	None	None	None	1.668057629													116	1	19	1	2020_Feb_19_1055	Test	3.2.4	59.84055735		
Pictures/IA100_G60.bmp	Pictures/IA100_G60.bmp	Pictures/IA100.bmp	"Be cautious"	0	safe					4	0	4	0	0	9	9	4																															2728.769413	None	2730.791411	2732.312089	2732.29539	None	2733.816055	None	2	1.602157141	2735.821345	None	2735.821345	None	2735.821345	None	None	None	None	None	2737.592705	None	2737.592705	None	left	2737.592705	None	2737.843354	2739.581278	None	None	0.206799435													116	1	19	1	2020_Feb_19_1055	Test	3.2.4	59.84055735		
Pictures/IA75_G60.bmp	Pictures/IA75_G60.bmp	Pictures/IA75.bmp	"Make it exciting"	1	risk					4	0	4	0	0	10	10	14																															2739.597969	None	2741.619967	2743.140644	2743.123942	None	2744.644612	None	2	1.397603447	2746.6499	None	2746.6499	None	2746.6499	None	None	None	None	None	2748.220679	None	2748.220679	None	left	2748.220679	None	2748.471375	2750.209288	None	None	0.210829291													116	1	19	1	2020_Feb_19_1055	Test	3.2.4	59.84055735		
Pictures/IA50_G20.bmp	Pictures/IA50_G20.bmp	Pictures/IA50.bmp	"Let's venture and take a risk!"""""	1	risk					4	0	4	0	0	11	11	16																															2750.225989	None	2752.24799	2753.768663	2753.751967	None	2755.272632	None	2	0.633584195	2757.27792	None	2757.27792	None	2757.27792	None	None	None	None	None	2758.080046	None	2758.080046	None	right	2758.080046	None	None	None	2758.39755	2760.068619	0.279451489													116	1	19	1	2020_Feb_19_1055	Test	3.2.4	59.84055735		
Pictures/IA80_40_L95p.bmp	Pictures/IA80_40_L95p.bmp	Pictures/IA80.bmp	"Let's stay with the certain option."""""	0	safe					4	0	4	0	0	12	12	5																															2760.08532	None	2762.107321	2763.627994	2763.611301	None	2765.148672	None	2	1.566232239	2767.137264	None	2767.137264	None	2767.137264	None	None	None	None	None	2768.875167	None	2768.875167	None	right	2768.875167	None	None	None	2768.975445	2770.880466	0.060328388													116	1	19	1	2020_Feb_19_1055	Test	3.2.4	59.84055735		
Pictures/IA100_G80.bmp	Pictures/IA100_G80.bmp	Pictures/IA100.bmp	"Why not gamble?"""""	1	risk					4	0	4	0	0	13	13	11																															2770.897161	None	2772.91916	2774.439838	2774.42314	None	2775.94381	None	2	2.63441846	2777.949093	None	2777.949093	None	2777.949093	None	None	None	None	None	2780.756511	None	2780.756511	None	left	2780.756511	None	2781.491763	2782.76179	None	None	0.698967737													116	1	19	1	2020_Feb_19_1055	Test	3.2.4	59.84055735		
Pictures/IA50_L20.bmp	Pictures/IA50_L20.bmp	Pictures/IA50.bmp	"Certainty is boring"	1	risk					4	0	4	0	0	14	14	6																															2782.77849	None	2784.800491	2786.321165	2786.304468	None	2787.825132	None	2	1.225079965	2789.830422	None	2789.830422	None	2789.830422	None	None	None	None	None	2791.234138	None	2791.234138	None	left	2791.234138	None	2792.236763	None	None	None	0.957361079													116	1	19	1	2020_Feb_19_1055	Test	3.2.4	59.84055735		
Pictures/IA100_L20.bmp	Pictures/IA100_L20.bmp	Pictures/IA100.bmp	"Try to win as much money as you can"	1	risk					4	0	4	0	0	15	15	18																															2793.239418	None	2795.261419	2796.782092	2796.765375	None	2798.302779	None	2	0.812162968	2800.291341	None	2800.291341	None	2800.291341	None	None	None	None	None	2801.277274	None	2801.277274	None	right	2801.277274	None	None	None	2802.948352	None	1.626222683													116	1	19	1	2020_Feb_19_1055	Test	3.2.4	59.84055735		
Pictures/IA75_L15.bmp	Pictures/IA75_L15.bmp	Pictures/IA75.bmp	"Trust me–gamble!"""""	1	risk					4	0	4	0	0	16	16	9																															2803.299266	None	2805.321272	2806.84194	2806.825252	None	2808.3292	None	2	1.752286707	2810.351215	None	2810.351215	None	2810.351215	None	None	None	None	None	2812.256233	None	2812.256233	None	left	2812.256233	None	2813.275584	None	None	None	0.983257322													116	1	19	1	2020_Feb_19_1055	Test	3.2.4	59.84055735		
Pictures/IA25_L20.bmp	Pictures/IA25_L20.bmp	Pictures/IA25.bmp	"Don't be tempted to gamble."""""	0	safe					4	0	4	0	0	17	17	0																															2814.261517	None	2816.283518	2817.80419	2817.787472	None	2819.308123	None	2	0.510055801	2821.313449	None	2821.313449	None	2821.313449	None	None	None	None	None	2821.998589	None	2821.998589	None	right	2821.998589	None	None	None	2822.215825	2824.003877	0.176903587													116	1	19	1	2020_Feb_19_1055	Test	3.2.4	59.84055735		
Pictures/IA100_L80.bmp	Pictures/IA100_L80.bmp	Pictures/IA100.bmp	"Go all in!"""""	1	risk					4	0	4	0	0	18	18	19																															2824.020572	None	2826.042614	2827.546585	2827.529868	None	2829.100637	None	2	0.231003527	2831.072505	None	2831.072505	None	2831.072505	None	None	None	None	None	2831.440119	None	2831.440119	None	right	2831.440119	None	None	None	2831.657388	2833.445435	0.183375533													116	1	19	1	2020_Feb_19_1055	Test	3.2.4	59.84055735		
Pictures/IA50_G40.bmp	Pictures/IA50_G40.bmp	Pictures/IA50.bmp	"It would probably be best to play it safe."""""	0	safe					4	0	4	0	0	19	19	1																															2833.462135	None	2835.517555	2837.021531	2837.004813	None	2838.542199	None	1	1.605426766	2840.514072	None	2840.514072	None	2840.514072	None	2842.268692	None	2842.268692	2843.271332	2844.390955	None	2844.390955	None	left	2844.390955	None	2844.691758	2846.396242	None	None	0.256538641													116	1	19	1	2020_Feb_19_1055	Test	3.2.4	59.84055735		
										4	0	4	0																																																																									2846.563367	None	return	3.900121649	2846.563367	None	116	1	19	1	2020_Feb_19_1055	Test	3.2.4	59.84055735		
Pictures/IA20_10_G95p.bmp	Pictures/IA20_10_G95p.bmp	Pictures/IA20.bmp	"Take a leap"	1	risk					5	0	5	0	0	0	0	1													2850.674191	None	2850.674191	None	2850.674191	None	right	1.31730571	2850.674191	None	2850.674191	None	2850.674191	None	return	2.205073732	2850.674191	None	2852.930146	None	2854.952138	2856.472813	2856.456122	None	2857.993491	None	1	0.546848629	2859.948665	None	2859.948665	None	2859.948665	None	2860.633801	None	2860.633801	2861.636439	2862.739353	None	2862.739353	None	right	2862.739353	None	None	None	2863.023432	2864.727919	0.23614423													116	1	19	1	2020_Feb_19_1055	Test	3.2.4	59.84055735		
Pictures/IA50_L20.bmp	Pictures/IA50_L20.bmp	Pictures/IA50.bmp	"Certainty is boring"	1	risk					5	0	5	0	0	1	1	14																															2864.744634	None	2866.766636	2868.287309	2868.270591	None	2869.824699	None	2	1.850934289	2871.796569	None	2871.796569	None	2871.796569	None	None	None	None	None	2873.818569	None	2873.818569	None	left	2873.818569	None	2874.136068	2875.807139	None	None	0.276924078													116	1	19	1	2020_Feb_19_1055	Test	3.2.4	59.84055735		
Pictures/IA25_L5.bmp	Pictures/IA25_L5.bmp	Pictures/IA25.bmp	"It would be smarter to choose the safe option."""""	0	safe					5	0	5	0	0	2	2	4																															2875.823839	None	2877.862546	2879.366524	2879.34981	None	2880.903917	None	2	1.587706545	2882.875783	None	2882.875783	None	2882.875783	None	None	None	None	None	2884.647109	None	2884.647109	None	left	2884.647109	None	2884.897767	2886.635681	None	None	0.216386123													116	1	19	1	2020_Feb_19_1055	Test	3.2.4	59.84055735		
Pictures/IA75_L15.bmp	Pictures/IA75_L15.bmp	Pictures/IA75.bmp	"Trust me–gamble!"""""	1	risk					5	0	5	0	0	3	3	9																															2886.652403	None	2888.691116	2890.211792	2890.195072	None	2891.732458	None	1	0.967167097	2893.704327	None	2893.704327	None	2893.704327	None	2894.773825	None	2894.773825	2895.776464	2896.87938	None	2896.87938	None	left	2896.87938	None	2898.032415	None	None	None	1.104121118													116	1	19	1	2020_Feb_19_1055	Test	3.2.4	59.84055735		
Pictures/IA75_L45.bmp	Pictures/IA75_L45.bmp	Pictures/IA75.bmp	"Don't gamble for this one"	0	safe					5	0	5	0	0	4	4	6																															2898.88466	None	2900.906659	2902.427335	2902.41062	None	2903.964739	None	1	1.27090281	2905.936595	None	2905.936595	None	2905.936595	None	2907.357009	None	2907.357009	2908.359646	2909.46256	None	2909.46256	None	right	2909.46256	None	None	None	2909.830177	2911.467842	0.320938731													116	1	19	1	2020_Feb_19_1055	Test	3.2.4	59.84055735		
Pictures/IA100_L40.bmp	Pictures/IA100_L40.bmp	Pictures/IA100.bmp	"Think of the payoff"	1	risk					5	0	5	0	0	5	5	12																															2911.48454	None	2913.506545	2915.02722	2915.010521	None	2916.581314	None	2	1.791020932	2918.536487	None	2918.536487	None	2918.536487	None	None	None	None	None	2920.508343	None	2920.508343	None	left	2920.508343	None	2920.976249	2922.513613	None	None	0.4271489													116	1	19	1	2020_Feb_19_1055	Test	3.2.4	59.84055735		
Pictures/IA50_G20.bmp	Pictures/IA50_G20.bmp	Pictures/IA50.bmp	"Let's venture and take a risk!"""""	1	risk					5	0	5	0	0	6	6	18																															2922.530335	None	2924.552337	2926.073011	2926.056316	None	2927.593693	None	2	1.27322429	2929.582281	None	2929.582281	None	2929.582281	None	None	None	None	None	2931.052823	None	2931.052823	None	right	2931.052823	None	None	None	2931.119658	2933.058109	0.018674569													116	1	19	1	2020_Feb_19_1055	Test	3.2.4	59.84055735		
Pictures/IA25_G20.bmp	Pictures/IA25_G20.bmp	Pictures/IA25.bmp	"I wouldn't gamble for this one. """""	0	safe					5	0	5	0	0	7	7	13																															2933.074809	None	2935.096812	2936.617482	2936.600792	None	2938.154876	None	2	1.65675752	2940.126741	None	2940.126741	None	2940.126741	None	None	None	None	None	2941.964934	None	2941.964934	None	left	2941.964934	None	2942.315856	2943.970213	None	None	0.306563246													116	1	19	1	2020_Feb_19_1055	Test	3.2.4	59.84055735		
Pictures/IA100_L80.bmp	Pictures/IA100_L80.bmp	Pictures/IA100.bmp	"Go all in!"""""	1	risk					5	0	5	0	0	8	8	11																															2943.986925	None	2946.008916	2947.529597	2947.512898	None	2949.033559	None	2	0.864653411	2951.03885	None	2951.03885	None	2951.03885	None	None	None	None	None	2952.058214	None	2952.058214	None	right	2952.058214	None	None	None	2952.208617	2954.046789	0.101291591													116	1	19	1	2020_Feb_19_1055	Test	3.2.4	59.84055735		
Pictures/IA75_G30.bmp	Pictures/IA75_G30.bmp	Pictures/IA75.bmp	"Be bold"	1	risk					5	0	5	0	0	9	9	10																															2954.06349	None	2956.08549	2957.606164	2957.589469	None	2959.143559	None	2	0.532085174	2961.11542	None	2961.11542	None	2961.11542	None	None	None	None	None	2961.800577	None	2961.800577	None	right	2961.800577	None	None	None	2962.836625	None	0.998914965													116	1	19	1	2020_Feb_19_1055	Test	3.2.4	59.84055735		
Pictures/IA75_L30.bmp	Pictures/IA75_L30.bmp	Pictures/IA75.bmp	"Hold back"	0	safe					5	0	5	0	0	10	10	17																															2963.822557	None	2965.844559	2967.348534	2967.331816	None	2968.902623	None	2	1.621005709	2970.874493	None	2970.874493	None	2970.874493	None	None	None	None	None	2972.69598	None	2972.69598	None	left	2972.69598	None	2973.28084	2974.684534	None	None	0.535518249													116	1	19	1	2020_Feb_19_1055	Test	3.2.4	59.84055735		
Pictures/IA40_20_G95p.bmp	Pictures/IA40_20_G95p.bmp	Pictures/IA40.bmp	"Hold back"	0	safe					5	0	5	0	0	11	11	19																															2974.701268	None	2976.756681	2978.26063	2978.243937	None	2979.781327	None	2	1.398306177	2981.75319	None	2981.75319	None	2981.75319	None	None	None	None	None	2983.273858	None	2983.273858	None	right	2983.273858	None	None	None	2983.440978	2985.27914	0.133647879													116	1	19	1	2020_Feb_19_1055	Test	3.2.4	59.84055735		
Pictures/IA50_L10.bmp	Pictures/IA50_L10.bmp	Pictures/IA50.bmp	"Play it safe"	0	safe					5	0	5	0	0	12	12	16																															2985.295863	None	2987.317861	2988.838541	2988.821819	None	2990.375933	None	2	1.003715873	2992.347796	None	2992.347796	None	2992.347796	None	None	None	None	None	2993.517549	None	2993.517549	None	left	2993.517549	None	2993.835049	2995.506122	None	None	0.273960417													116	1	19	1	2020_Feb_19_1055	Test	3.2.4	59.84055735		
Pictures/IA100_G20.bmp	Pictures/IA100_G20.bmp	Pictures/IA100.bmp	"Go ahead and gamble!"""""	1	risk					5	0	5	0	0	13	13	8																															2995.522824	None	2997.54482	2999.048799	2999.032079	None	3000.602887	None	2	0.480740553	3002.574755	None	3002.574755	None	3002.574755	None	None	None	None	None	3003.209762	None	3003.209762	None	right	3003.209762	None	None	None	3003.510564	3005.215053	0.253739112													116	1	19	1	2020_Feb_19_1055	Test	3.2.4	59.84055735		
Pictures/IA20_10_L95p.bmp	Pictures/IA20_10_L95p.bmp	Pictures/IA20.bmp	"Don't be tempted to gamble."""""	0	safe					5	0	5	0	0	14	14	0																															3005.231771	None	3007.253785	3008.774446	3008.757729	None	3010.345256	None	2	0.451794405	3012.283704	None	3012.283704	None	3012.283704	None	None	None	None	None	3012.935416	None	3012.935416	None	right	3012.935416	None	None	None	3013.18607	3014.923982	0.216088289													116	1	19	1	2020_Feb_19_1055	Test	3.2.4	59.84055735		
Pictures/IA50_G10.bmp	Pictures/IA50_G10.bmp	Pictures/IA50.bmp	"Go with the safe option here!"""""	0	safe					5	0	5	0	0	15	15	5																															3014.940708	None	3016.962706	3018.46666	3018.449963	None	3020.037481	None	2	0.398886971	3021.992628	None	3021.992628	None	3021.992628	None	None	None	None	None	3022.544094	None	3022.544094	None	right	3022.544094	None	None	None	3023.128969	3024.532668	0.535396134													116	1	19	1	2020_Feb_19_1055	Test	3.2.4	59.84055735		
Pictures/IA100_L20.bmp	Pictures/IA100_L20.bmp	Pictures/IA100.bmp	"Try to win as much money as you can"	1	risk					5	0	5	0	0	16	16	15																															3024.549371	None	3026.571369	3028.092041	3028.075346	None	3029.612721	None	1	0.814190676	3031.601312	None	3031.601312	None	3031.601312	None	3032.570536	None	3032.570536	3033.573174	3034.676095	None	3034.676095	None	left	3034.676095	None	3035.194116	3036.664661	None	None	0.475403007													116	1	19	1	2020_Feb_19_1055	Test	3.2.4	59.84055735		
Pictures/IA75_L60.bmp	Pictures/IA75_L60.bmp	Pictures/IA75.bmp	"Why not take the gamble?"""""	1	risk					5	0	5	0	0	17	17	7																															3036.681361	None	3038.70337	3040.224035	3040.207339	None	3041.761423	None	2	0.418209907	3043.733294	None	3043.733294	None	3043.733294	None	None	None	None	None	3044.318181	None	3044.318181	None	right	3044.318181	None	None	None	3044.418431	3046.323465	0.057319215													116	1	19	1	2020_Feb_19_1055	Test	3.2.4	59.84055735		
Pictures/IA25_L10.bmp	Pictures/IA25_L10.bmp	Pictures/IA25.bmp	"Dont be afraid to take the risk!"""""	1	risk					5	0	5	0	0	18	18	3																															3046.340164	None	3048.362166	3049.882841	3049.866146	None	3051.436962	None	2	1.687392873	3053.392109	None	3053.392109	None	3053.392109	None	None	None	None	None	3055.263712	None	3055.263712	None	right	3055.263712	None	None	None	3056.065817	3057.268985	0.759792412													116	1	19	1	2020_Feb_19_1055	Test	3.2.4	59.84055735		
Pictures/IA100_G60.bmp	Pictures/IA100_G60.bmp	Pictures/IA100.bmp	"Be cautious"	0	safe					5	0	5	0	0	19	19	2																															3057.285708	None	3059.307708	3060.828385	3060.811664	None	3062.365773	None	2	0.877860069	3064.337644	None	3064.337644	None	3064.337644	None	None	None	None	None	3065.390419	None	3065.390419	None	right	3065.390419	None	None	None	3065.540815	3067.37898	0.105083353													116	1	19	1	2020_Feb_19_1055	Test	3.2.4	59.84055735		
									5	0	5	0																																																																									3067.546103	None	return	6.493388067	3067.546103	None	116	1	19	1	2020_Feb_19_1055	Test	3.2.4	59.84055735			
Pictures/IA40_20_G95p.bmp	Pictures/IA40_20_G95p.bmp	Pictures/IA40.bmp	"Hold back"	0	safe					6	0	6	0	0	0	0	16													3074.230396	None	3074.230396	None	3074.230396	None	left	1.809100953	3074.230396	None	3074.230396	None	3074.230396	None	return	4.840891915	3074.230396	None	3079.126626	None	3081.148639	3082.652592	3082.635899	None	3084.156574	None	2	0.59037721	3086.14514	None	3086.14514	None	3086.14514	None	None	None	None	None	3086.947271	None	3086.947271	None	right	3086.947271	None	None	None	3087.682525	3088.95254	0.700225029													116	1	19	1	2020_Feb_19_1055	Test	3.2.4	59.84055735		
Pictures/IA100_G60.bmp	Pictures/IA100_G60.bmp	Pictures/IA100.bmp	"Be cautious"	0	safe					6	0	6	0	0	1	1	18																															3088.969264	None	3090.991262	3092.511903	3092.49522	None	3093.999207	None	2	1.322323977	3096.021183	None	3096.021183	None	3096.021183	None	None	None	None	None	3097.525163	None	3097.525163	None	left	3097.525163	None	3097.825941	3099.530463	None	None	0.258334342													116	1	19	1	2020_Feb_19_1055	Test	3.2.4	59.84055735		
Pictures/IA75_L30.bmp	Pictures/IA75_L30.bmp	Pictures/IA75.bmp	"Hold back"	0	safe					6	0	6	0	0	2	2	7																															3099.547145	None	3101.569145	3103.089823	3103.073126	None	3104.57708	None	2	1.120418297	3106.599093	None	3106.599093	None	3106.599093	None	None	None	None	None	3107.902519	None	3107.902519	None	left	3107.902519	None	3108.403851	3109.907799	None	None	0.456980619													116	1	19	1	2020_Feb_19_1055	Test	3.2.4	59.84055735		
Pictures/IA100_G40.bmp	Pictures/IA100_G40.bmp	Pictures/IA100.bmp	"Try your luck and gamble!"""""	1	risk					6	0	6	0	0	3	3	0																															3109.924528	None	3111.94653	3113.4672	3113.450481	None	3115.0213	None	2	0.711051693	3116.976451	None	3116.976451	None	3116.976451	None	None	None	None	None	3117.862118	None	3117.862118	None	right	3117.862118	None	None	None	3118.263183	3119.867412	0.361376887													116	1	19	1	2020_Feb_19_1055	Test	3.2.4	59.84055735		
Pictures/IA75_L15.bmp	Pictures/IA75_L15.bmp	Pictures/IA75.bmp	"Trust me–gamble!"""""	1	risk					6	0	6	0	0	4	4	10																															3119.884115	None	3121.906111	3123.426786	3123.410097	None	3124.914049	None	2	0.863444049	3126.93606	None	3126.93606	None	3126.93606	None	None	None	None	None	3127.955402	None	3127.955402	None	left	3127.955402	None	3128.005532	3129.943971	None	None	0.004100199													116	1	19	1	2020_Feb_19_1055	Test	3.2.4	59.84055735		
Pictures/IA110_55_L95p.bmp	Pictures/IA110_55_L95p.bmp	Pictures/IA110.bmp	"Trust me"	1	risk					6	0	6	0	0	5	5	3																															3129.960696	None	3132.016119	3133.520074	3133.503376	None	3135.040761	None	2	0.698881332	3137.012632	None	3137.012632	None	3137.012632	None	None	None	None	None	3137.864867	None	3137.864867	None	right	3137.864867	None	None	None	3138.148948	3139.853452	0.238639651													116	1	19	1	2020_Feb_19_1055	Test	3.2.4	59.84055735		
Pictures/IA25_L15.bmp	Pictures/IA25_L15.bmp	Pictures/IA25.bmp	"There's not much on the line here"	1	risk					6	0	6	0	0	6	6	1																															3139.870154	None	3141.892156	3143.412826	3143.396137	None	3144.950216	None	2	0.581415902	3146.922086	None	3146.922086	None	3146.922086	None	None	None	None	None	3147.674071	None	3147.674071	None	right	3147.674071	None	None	None	3148.242248	3149.679353	0.525425071													116	1	19	1	2020_Feb_19_1055	Test	3.2.4	59.84055735		
Pictures/IA75_G15.bmp	Pictures/IA75_G15.bmp	Pictures/IA75.bmp	"Take a chance!"""""	1	risk					6	0	6	0	0	7	7	2																															3149.696093	None	3151.718076	3153.238753	3153.222038	None	3154.776144	None	2	0.371494342	3156.748012	None	3156.748012	None	3156.748012	None	None	None	None	None	3157.282756	None	3157.282756	None	right	3157.282756	None	None	None	3157.332884	3159.271328	0.004709549													116	1	19	1	2020_Feb_19_1055	Test	3.2.4	59.84055735		
Pictures/IA75_L60.bmp	Pictures/IA75_L60.bmp	Pictures/IA75.bmp	"Why not take the gamble?"""""	1	risk					6	0	6	0	0	8	8	12																															3159.288028	None	3161.310035	3162.830703	3162.814009	None	3164.317962	None	2	0.395530481	3166.339974	None	3166.339974	None	3166.339974	None	None	None	None	None	3166.891417	None	3166.891417	None	right	3166.891417	None	None	None	3166.958272	3168.896714	0.020083434													116	1	19	1	2020_Feb_19_1055	Test	3.2.4	59.84055735		
Pictures/IA40_20_L95p.bmp	Pictures/IA40_20_L95p.bmp	Pictures/IA40.bmp	"Trust me"	1	risk					6	0	6	0	0	9	9	19																															3168.913412	None	3170.935412	3172.456089	3172.439394	None	3174.010189	None	2	0.714137682	3175.965359	None	3175.965359	None	3175.965359	None	None	None	None	None	3176.851026	None	3176.851026	None	right	3176.851026	None	None	None	3177.001421	3178.839586	0.100472991													116	1	19	1	2020_Feb_19_1055	Test	3.2.4	59.84055735		
Pictures/IA25_L10.bmp	Pictures/IA25_L10.bmp	Pictures/IA25.bmp	"Dont be afraid to take the risk!"""""	1	risk					6	0	6	0	0	10	10	6																															3178.85631	None	3180.878316	3182.398987	3182.382273	None	3183.886248	None	2	0.467252374	3185.908251	None	3185.908251	None	3185.908251	None	None	None	None	None	3186.543255	None	3186.543255	None	right	3186.543255	None	None	None	3186.610083	3188.548525	0.032263048													116	1	19	1	2020_Feb_19_1055	Test	3.2.4	59.84055735		
Pictures/IA25_G20.bmp	Pictures/IA25_G20.bmp	Pictures/IA25.bmp	"I wouldn't gamble for this one. """""	0	safe					6	0	6	0	0	11	11	9																															3188.565249	None	3190.587249	3192.107927	3192.091208	None	3193.62861	None	1	0.486325415	3195.617173	None	3195.617173	None	3195.617173	None	3196.23548	None	3196.23548	3197.238124	3198.341035	None	3198.341035	None	left	3198.341035	None	3198.775499	3200.346317	None	None	0.394460127													116	1	19	1	2020_Feb_19_1055	Test	3.2.4	59.84055735		
Pictures/IA25_L20.bmp	Pictures/IA25_L20.bmp	Pictures/IA25.bmp	"Don't be tempted to gamble."""""	0	safe					6	0	6	0	0	12	12	13																															3200.363022	None	3202.38502	3203.905694	3203.888998	None	3205.443085	None	1	0.600542446	3207.414953	None	3207.414953	None	3207.414953	None	3208.116816	None	3208.116816	3209.119454	3210.22237	None	3210.22237	None	right	3210.22237	None	None	None	3211.208302	None	0.937125264													116	1	19	1	2020_Feb_19_1055	Test	3.2.4	59.84055735		
Pictures/IA75_G45.bmp	Pictures/IA75_G45.bmp	Pictures/IA75.bmp	"Don't gamble for this one."""""	0	safe					6	0	6	0	0	13	13	17																															3212.227641	None	3214.249646	3215.770317	3215.753621	None	3217.324423	None	1	0.735901745	3219.279603	None	3219.279603	None	3219.279603	None	3220.131835	None	3220.131835	3221.134475	3222.237389	None	3222.237389	None	left	3222.237389	None	3222.722007	3224.225949	None	None	0.450104788													116	1	19	1	2020_Feb_19_1055	Test	3.2.4	59.84055735		
Pictures/IA50_G40.bmp	Pictures/IA50_G40.bmp	Pictures/IA50.bmp	"It would probably be best to play it safe."""""	0	safe					6	0	6	0	0	14	14	4																															3224.242671	None	3226.264672	3227.785353	3227.768629	None	3229.306027	None	2	0.680903218	3231.294596	None	3231.294596	None	3231.294596	None	None	None	None	None	3232.146844	None	3232.146844	None	left	3232.146844	None	3232.464345	3234.135417	None	None	0.268656835													116	1	19	1	2020_Feb_19_1055	Test	3.2.4	59.84055735		
Pictures/IA80_40_G95p.bmp	Pictures/IA80_40_G95p.bmp	Pictures/IA80.bmp	"Think of the payoff"	1	risk					6	0	6	0	0	15	15	11																															3234.152139	None	3236.207563	3237.711533	3237.694833	None	3239.215527	None	1	0.435436896	3241.204063	None	3241.204063	None	3241.204063	None	3241.772232	None	3241.772232	3242.774868	3243.877781	None	3243.877781	None	left	3243.877781	None	3244.412532	3245.883076	None	None	0.497708346													116	1	19	1	2020_Feb_19_1055	Test	3.2.4	59.84055735		
Pictures/IA50_G20.bmp	Pictures/IA50_G20.bmp	Pictures/IA50.bmp	"Let's venture and take a risk!"""""	1	risk					6	0	6	0	0	16	16	5																															3245.899776	None	3247.921778	3249.442453	3249.425757	None	3250.946422	None	2	0.383812238	3252.951712	None	3252.951712	None	3252.951712	None	None	None	None	None	3253.536593	None	3253.536593	None	right	3253.536593	None	None	None	3253.68698	3255.525172	0.102905039													116	1	19	1	2020_Feb_19_1055	Test	3.2.4	59.84055735		
Pictures/IA75_G60.bmp	Pictures/IA75_G60.bmp	Pictures/IA75.bmp	"Make it exciting"	1	risk					6	0	6	0	0	17	17	14																															3255.541878	None	3257.563873	3259.084565	3259.067854	None	3260.638657	None	2	1.645683142	3262.59382	None	3262.59382	None	3262.59382	None	None	None	None	None	3264.415289	None	3264.415289	None	left	3264.415289	None	3265.083705	3266.420562	None	None	0.632208536													116	1	19	1	2020_Feb_19_1055	Test	3.2.4	59.84055735		
Pictures/IA50_G10.bmp	Pictures/IA50_G10.bmp	Pictures/IA50.bmp	"Go with the safe option here!"""""	0	safe					6	0	6	0	0	18	18	15																															3266.437284	None	3268.459285	3269.979964	3269.963243	None	3271.46722	None	2	2.046305704	3273.489208	None	3273.489208	None	3273.489208	None	None	None	None	None	3275.695037	None	3275.695037	None	right	3275.695037	None	None	None	3275.828718	3277.700333	0.09645407													116	1	19	1	2020_Feb_19_1055	Test	3.2.4	59.84055735		
Pictures/IA20_10_L95p.bmp	Pictures/IA20_10_L95p.bmp	Pictures/IA20.bmp	"Don't be tempted to gamble."""""	0	safe					6	0	6	0	0	19	19	8																															3277.717028	None	3279.739027	3281.259696	3281.243006	None	3282.746956	None	None		3284.768967	None	3284.768967	None	3284.768967	None	None	None	None	None	3287.860443	None	3287.860443	None	right	3287.860443	None	None	None	3288.462039	3289.849012	0.555055022													116	1	19	1	2020_Feb_19_1055	Test	3.2.4	59.84055735		
										6	0	6	0																																																																									3290.016143	None	return	4.199342558	3290.016143	None	116	1	19	1	2020_Feb_19_1055	Test	3.2.4	59.84055735		
Pictures/IA40_20_G95p.bmp	Pictures/IA40_20_G95p.bmp	Pictures/IA40.bmp	"Hold back"	0	safe					7	0	7	0	0	0	0	8													3294.394352	None	3294.394352	None	3294.394352	None	left	1.205145392	3294.394352	None	3294.394352	None	3294.394352	None	return	6.196922409	3294.394352	None	3300.644168	None	3302.649443	3304.170124	3304.153426	None	3305.674097	None	1	2.848838825	3307.662669	None	3307.662669	None	3307.662669	None	3310.653892	None	3310.653892	3311.65653	3312.759444	None	3312.759444	None	left	3312.759444	None	3314.179853	None	None	None	1.384044524													116	1	19	1	2020_Feb_19_1055	Test	3.2.4	59.84055735		
Pictures/IA100_L20.bmp	Pictures/IA100_L20.bmp	Pictures/IA100.bmp	"Try to win as much money as you can"	1	risk					7	0	7	0	0	1	1	16																															3314.764728	None	3316.786731	3318.307404	3318.290726	None	3319.82809	None	1	1.334837198	3321.816675	None	3321.816675	None	3321.816675	None	3323.287211	None	3323.287211	3324.289848	3325.392764	None	3325.392764	None	left	3325.392764	None	3325.777106	3327.381341	None	None	0.342732359													116	1	19	1	2020_Feb_19_1055	Test	3.2.4	59.84055735		
Pictures/IA80_40_G95p.bmp	Pictures/IA80_40_G95p.bmp	Pictures/IA80.bmp	"Think of the payoff"	1	risk					7	0	7	0	0	2	2	1																															3327.398059	None	3329.436773	3330.957451	3330.940727	None	3332.444691	None	2	1.805512237	3334.449986	None	3334.449986	None	3334.449986	None	None	None	None	None	3336.421852	None	3336.421852	None	left	3336.421852	None	3336.689231	3338.427145	None	None	0.233637268													116	1	19	1	2020_Feb_19_1055	Test	3.2.4	59.84055735		
Pictures/IA100_G40.bmp	Pictures/IA100_G40.bmp	Pictures/IA100.bmp	"Try your luck and gamble!"""""	1	risk					7	0	7	0	0	3	3	15																															3338.443849	None	3340.465848	3341.986522	3341.969827	None	3343.473783	None	2	1.807708773	3345.495797	None	3345.495797	None	3345.495797	None	None	None	None	None	3347.467661	None	3347.467661	None	right	3347.467661	None	None	None	3347.76844	3349.472944	0.251834993													116	1	19	1	2020_Feb_19_1055	Test	3.2.4	59.84055735		
Pictures/IA75_L60.bmp	Pictures/IA75_L60.bmp	Pictures/IA75.bmp	"Why not take the gamble?"""""	1	risk					7	0	7	0	0	4	4	10																															3349.489645	None	3351.511644	3353.015622	3352.998908	None	3354.536291	None	2	0.281920508	3356.54158	None	3356.54158	None	3356.54158	None	None	None	None	None	3356.976061	None	3356.976061	None	right	3356.976061	None	None	None	3357.193297	3358.964649	0.175449418													116	1	19	1	2020_Feb_19_1055	Test	3.2.4	59.84055735		
Pictures/IA100_G60.bmp	Pictures/IA100_G60.bmp	Pictures/IA100.bmp	"Be cautious"	0	safe					7	0	7	0	0	5	5	14																															3358.981362	None	3361.003346	3362.524023	3362.507329	None	3364.027992	None	1	1.150219851	3366.033282	None	3366.033282	None	3366.033282	None	3367.303261	None	3367.303261	3368.305937	3369.425564	None	3369.425564	None	left	3369.425564	None	3369.793207	3371.430846	None	None	0.333922727													116	1	19	1	2020_Feb_19_1055	Test	3.2.4	59.84055735		
Pictures/IA50_L40.bmp	Pictures/IA50_L40.bmp	Pictures/IA50.bmp	"That gamble doesn't sound too good"	0	safe					7	0	7	0	0	6	6	5																															3371.447577	None	3373.469572	3374.990244	3374.973531	None	3376.527635	None	2	1.092003498	3378.499505	None	3378.499505	None	3378.499505	None	None	None	None	None	3379.786229	None	3379.786229	None	right	3379.786229	None	None	None	3380.521502	3381.791524	0.685258555													116	1	19	1	2020_Feb_19_1055	Test	3.2.4	59.84055735		
Pictures/IA25_G10.bmp	Pictures/IA25_G10.bmp	Pictures/IA25.bmp	"What's life without a little risk?"""""	1	risk					7	0	7	0	0	7	7	17																															3381.808216	None	3383.830218	3385.350899	3385.334197	None	3386.88829	None	2	1.77936099	3388.860152	None	3388.860152	None	3388.860152	None	None	None	None	None	3390.81531	None	3390.81531	None	right	3390.81531	None	None	None	3391.015846	3392.820603	0.160185545													116	1	19	1	2020_Feb_19_1055	Test	3.2.4	59.84055735		
Pictures/IA75_G15.bmp	Pictures/IA75_G15.bmp	Pictures/IA75.bmp	"Take a chance!"""""	1	risk					7	0	7	0	0	8	8	0																															3392.837306	None	3394.859306	3396.379982	3396.363285	None	3397.917377	None	2	0.742264366	3399.889242	None	3399.889242	None	3399.889242	None	None	None	None	None	3400.791627	None	3400.791627	None	right	3400.791627	None	None	None	3401.008857	3402.796905	0.183872377													116	1	19	1	2020_Feb_19_1055	Test	3.2.4	59.84055735		
Pictures/IA75_G30.bmp	Pictures/IA75_G30.bmp	Pictures/IA75.bmp	"Be bold"	1	risk					7	0	7	0	0	9	9	18																															3402.813629	None	3404.8356	3406.356306	3406.339588	None	3407.87699	None	1	1.509958415	3409.865554	None	3409.865554	None	3409.865554	None	3411.469784	None	3411.469784	3412.472424	3413.60876	None	3413.60876	None	right	3413.60876	None	None	None	3413.942983	3415.614055	0.286736013													116	1	19	1	2020_Feb_19_1055	Test	3.2.4	59.84055735		
Pictures/IA25_G5.bmp	Pictures/IA25_G5.bmp	Pictures/IA25.bmp	"Let's stay with the certain option."""""	0	safe					7	0	7	0	0	10	10	4																															3415.630755	None	3417.652755	3419.173432	3419.156737	None	3420.727537	None	2	0.380796417	3422.682707	None	3422.682707	None	3422.682707	None	None	None	None	None	3423.234165	None	3423.234165	None	right	3423.234165	None	None	None	3423.735478	3425.239447	0.453331178													116	1	19	1	2020_Feb_19_1055	Test	3.2.4	59.84055735		
Pictures/IA50_G20.bmp	Pictures/IA50_G20.bmp	Pictures/IA50.bmp	"Let's venture and take a risk!"""""	1	risk					7	0	7	0	0	11	11	9																															3425.256142	None	3427.278143	3428.798818	3428.782124	None	3430.286076	None	2	0.243410335	3432.30809	None	3432.30809	None	3432.30809	None	None	None	None	None	3432.709153	None	3432.709153	None	right	3432.709153	None	None	None	3433.060071	3434.697723	0.30634418													116	1	19	1	2020_Feb_19_1055	Test	3.2.4	59.84055735		
Pictures/IA100_L40.bmp	Pictures/IA100_L40.bmp	Pictures/IA100.bmp	"Think of the payoff"	1	risk					7	0	7	0	0	12	12	6																															3434.714436	None	3436.736433	3438.257115	3438.240393	None	3439.777806	None	1	1.209149346	3441.766359	None	3441.766359	None	3441.766359	None	3443.08647	None	3443.08647	3444.089145	3445.192061	None	3445.192061	None	left	3445.192061	None	3445.944044	3447.180643	None	None	0.703429336													116	1	19	1	2020_Feb_19_1055	Test	3.2.4	59.84055735		
Pictures/IA75_L45.bmp	Pictures/IA75_L45.bmp	Pictures/IA75.bmp	"Don't gamble for this one"	0	safe					7	0	7	0	0	13	13	7																															3447.197346	None	3449.21935	3450.740021	3450.723327	None	3452.243989	None	1	1.350218892	3454.249283	None	3454.249283	None	3454.249283	None	3455.736538	None	3455.736538	3456.73918	3457.842093	None	3457.842093	None	right	3457.842093	None	None	None	3458.276582	3459.847376	0.397394013													116	1	19	1	2020_Feb_19_1055	Test	3.2.4	59.84055735		
Pictures/IA25_G15.bmp	Pictures/IA25_G15.bmp	Pictures/IA25.bmp	"I think you should take a gamble."""""	1	risk					7	0	7	0	0	14	14	11																															3459.864098	None	3461.8861	3463.406777	3463.390059	None	3464.927454	None	1	1.811480105	3466.916027	None	3466.916027	None	3466.916027	None	3468.854475	None	3468.854475	3469.857108	3470.960027	None	3470.960027	None	left	3470.960027	None	3471.812268	3472.96532	None	None	0.807469983													116	1	19	1	2020_Feb_19_1055	Test	3.2.4	59.84055735		
Pictures/IA25_L15.bmp	Pictures/IA25_L15.bmp	Pictures/IA25.bmp	"There's not much on the line here"	1	risk					7	0	7	0	0	15	15	2																															3472.982019	None	3475.004019	3476.524695	3476.508002	None	3478.028666	None	2	0.861545134	3480.033954	None	3480.033954	None	3480.033954	None	None	None	None	None	3481.086748	None	3481.086748	None	right	3481.086748	None	None	None	3481.404247	3483.075318	0.280747492													116	1	19	1	2020_Feb_19_1055	Test	3.2.4	59.84055735		
Pictures/IA50_G30.bmp	Pictures/IA50_G30.bmp	Pictures/IA50.bmp	"I think you should gamble."""""	1	risk					7	0	7	0	0	16	16	3																															3483.092016	None	3485.11402	3486.634701	3486.618002	None	3488.172085	None	2	2.119555007	3490.143955	None	3490.143955	None	3490.143955	None	None	None	None	None	3492.450038	None	3492.450038	None	left	3492.450038	None	3493.369124	3494.438612	None	None	0.869452827													116	1	19	1	2020_Feb_19_1055	Test	3.2.4	59.84055735		
Pictures/IA75_G60.bmp	Pictures/IA75_G60.bmp	Pictures/IA75.bmp	"Make it exciting"	1	risk					7	0	7	0	0	17	17	13																															3494.455337	None	3496.477335	3497.998013	3497.981292	None	3499.485266	None	2	1.388242325	3501.50726	None	3501.50726	None	3501.50726	None	None	None	None	None	3503.07808	None	3503.07808	None	right	3503.07808	None	None	None	3503.362159	3505.066643	0.249417752													116	1	19	1	2020_Feb_19_1055	Test	3.2.4	59.84055735		
Pictures/IA100_L60.bmp	Pictures/IA100_L60.bmp	Pictures/IA100.bmp	"You'd have a lot to lose"	0	safe					7	0	7	0	0	18	18	19																															3505.08337	None	3507.105366	3508.626043	3508.609324	None	3510.163433	None	2	0.264195313	3512.135305	None	3512.135305	None	3512.135305	None	None	None	None	None	3512.569769	None	3512.569769	None	right	3512.569769	None	None	None	3512.870572	3514.575049	0.253731061													116	1	19	1	2020_Feb_19_1055	Test	3.2.4	59.84055735		
Pictures/IA110_55_G95p.bmp	Pictures/IA110_55_G95p.bmp	Pictures/IA110.bmp	"Take a chance!"""""	1	risk					7	0	7	0	0	19	19	12																															3514.591781	None	3516.63054	3518.151166	3518.134447	None	3519.671835	None	2	1.803792748	3521.643703	None	3521.643703	None	3521.643703	None	None	None	None	None	3523.598876	None	3523.598876	None	left	3523.598876	None	3524.133602	3525.604145	None	None	0.488618486													116	1	19	1	2020_Feb_19_1055	Test	3.2.4	59.84055735		
										7	0	7	0																																																																									3525.77127	None	return	5.132219841	3525.77127	None	116	1	19	1	2020_Feb_19_1055	Test	3.2.4	59.84055735		
Pictures/IA20_10_L95p.bmp	Pictures/IA20_10_L95p.bmp	Pictures/IA20.bmp	"Don't be tempted to gamble."""""	0	safe					8	0	8	0	0	0	0	1													3531.068563	None	3531.068563	None	3531.068563	None	left	1.35491876	3531.068563	None	3531.068563	None	3531.068563	None	return	2.186704388	3531.068563	None	3533.291087	None	3535.296389	3536.817067	3536.800359	None	3538.337747	None	1	1.321195316	3540.326314	None	3540.326314	None	3540.326314	None	3541.780161	None	3541.780161	3542.782799	3543.885716	None	3543.885716	None	right	3543.885716	None	None	None	3544.270057	3545.874289	0.345778743													116	1	19	1	2020_Feb_19_1055	Test	3.2.4	59.84055735		
Pictures/IA75_G30.bmp	Pictures/IA75_G30.bmp	Pictures/IA75.bmp	"Be bold"	1	risk					8	0	8	0	0	1	1	17																															3545.89099	None	3547.91299	3549.433665	3549.41697	None	3550.920921	None	2	0.456569076	3552.942938	None	3552.942938	None	3552.942938	None	None	None	None	None	3553.561224	None	3553.561224	None	right	3553.561224	None	None	None	3555.215592	None	1.60627446													116	1	19	1	2020_Feb_19_1055	Test	3.2.4	59.84055735		
Pictures/IA50_G40.bmp	Pictures/IA50_G40.bmp	Pictures/IA50.bmp	"It would probably be best to play it safe."""""	0	safe					8	0	8	0	0	2	2	4																															3555.566519	None	3557.588527	3559.109198	3559.092485	None	3560.613167	None	1	0.70103665	3562.618458	None	3562.618458	None	3562.618458	None	3563.453982	None	3563.453982	3564.456626	3565.559541	None	3565.559541	None	left	3565.559541	None	3565.893761	3567.564833	None	None	0.2959485													116	1	19	1	2020_Feb_19_1055	Test	3.2.4	59.84055735		
Pictures/IA75_G45.bmp	Pictures/IA75_G45.bmp	Pictures/IA75.bmp	"Don't gamble for this one."""""	0	safe					8	0	8	0	0	3	3	6																															3567.581532	None	3569.603534	3571.124216	3571.107516	None	3572.628185	None	2	1.934019085	3574.633476	None	3574.633476	None	3574.633476	None	None	None	None	None	3576.755749	None	3576.755749	None	left	3576.755749	None	3577.156794	3578.76102	None	None	0.363756225													116	1	19	1	2020_Feb_19_1055	Test	3.2.4	59.84055735		
Pictures/IA25_G15.bmp	Pictures/IA25_G15.bmp	Pictures/IA25.bmp	"I think you should take a gamble."""""	1	risk					8	0	8	0	0	4	4	10																															3578.777743	None	3580.799747	3582.320423	3582.303703	None	3583.807681	None	2	0.761849804	3585.829652	None	3585.829652	None	3585.829652	None	None	None	None	None	3586.798904	None	3586.798904	None	left	3586.798904	None	3587.183273	3588.787478	None	None	0.344584796													116	1	19	1	2020_Feb_19_1055	Test	3.2.4	59.84055735		
Pictures/IA40_20_L95p.bmp	Pictures/IA40_20_L95p.bmp	Pictures/IA40.bmp	"Trust me"	1	risk					8	0	8	0	0	5	5	9																															3588.804177	None	3590.826181	3592.346855	3592.330159	None	3593.867541	None	1	0.719377614	3595.856132	None	3595.856132	None	3595.856132	None	3596.674947	None	3596.674947	3597.677584	3598.780498	None	3598.780498	None	right	3598.780498	None	None	None	3599.215061	3600.785816	0.387011146													116	1	19	1	2020_Feb_19_1055	Test	3.2.4	59.84055735		
Pictures/IA100_G40.bmp	Pictures/IA100_G40.bmp	Pictures/IA100.bmp	"Try your luck and gamble!"""""	1	risk					8	0	8	0	0	6	6	18																															3600.802505	None	3602.824508	3604.345182	3604.328463	None	3605.865867	None	2	1.761074543	3607.854432	None	3607.854432	None	3607.854432	None	None	None	None	None	3609.776182	None	3609.776182	None	right	3609.776182	None	None	None	3610.87907	None	1.055318425													116	1	19	1	2020_Feb_19_1055	Test	3.2.4	59.84055735		
Pictures/IA100_G80.bmp	Pictures/IA100_G80.bmp	Pictures/IA100.bmp	"Why not gamble?"""""	1	risk					8	0	8	0	0	7	7	2																															3611.798162	None	3613.820164	3615.324141	3615.307422	None	3616.894942	None	1	0.797388095	3618.850113	None	3618.850113	None	3618.850113	None	3619.735769	None	3619.735769	3620.73841	3621.841326	None	3621.841326	None	left	3621.841326	None	3622.158824	3623.846609	None	None	0.270172018													116	1	19	1	2020_Feb_19_1055	Test	3.2.4	59.84055735		
Pictures/IA75_G60.bmp	Pictures/IA75_G60.bmp	Pictures/IA75.bmp	"Make it exciting"	1	risk					8	0	8	0	0	8	8	14																															3623.863329	None	3625.885333	3627.389287	3627.372596	None	3628.926691	None	2	1.036246663	3630.915263	None	3630.915263	None	3630.915263	None	None	None	None	None	3632.135167	None	3632.135167	None	left	3632.135167	None	3633.137788	None	None	None	0.968328347													116	1	19	1	2020_Feb_19_1055	Test	3.2.4	59.84055735		
Pictures/IA50_G10.bmp	Pictures/IA50_G10.bmp	Pictures/IA50.bmp	"Go with the safe option here!"""""	0	safe					8	0	8	0	0	9	9	7																															3634.157152	None	3636.179152	3637.699842	3637.683111	None	3639.220511	None	2	1.150433227	3641.209079	None	3641.209079	None	3641.209079	None	None	None	None	None	3642.512516	None	3642.512516	None	right	3642.512516	None	None	None	3642.662908	3644.501102	0.102983036													116	1	19	1	2020_Feb_19_1055	Test	3.2.4	59.84055735		
Pictures/IA50_G30.bmp	Pictures/IA50_G30.bmp	Pictures/IA50.bmp	"I think you should gamble."""""	1	risk					8	0	8	0	0	10	10	19																															3644.517802	None	3646.539802	3648.144035	3648.12734	None	3649.581176	None	1	1.173770463	3651.56974	None	3651.56974	None	3651.56974	None	3652.856473	None	3652.856473	3653.859109	3654.978735	None	3654.978735	None	left	3654.978735	None	3655.363077	3656.967313	None	None	0.348758875													116	1	19	1	2020_Feb_19_1055	Test	3.2.4	59.84055735		
Pictures/IA75_L15.bmp	Pictures/IA75_L15.bmp	Pictures/IA75.bmp	"Trust me–gamble!"""""	1	risk					8	0	8	0	0	11	11	3																															3656.98403	None	3659.006033	3660.526709	3660.509989	None	3662.047391	None	2	0.883547651	3664.035959	None	3664.035959	None	3664.035959	None	None	None	None	None	3665.071986	None	3665.071986	None	left	3665.071986	None	3665.52321	3667.060597	None	None	0.407520723													116	1	19	1	2020_Feb_19_1055	Test	3.2.4	59.84055735		
Pictures/IA25_G10.bmp	Pictures/IA25_G10.bmp	Pictures/IA25.bmp	"What's life without a little risk?"""""	1	risk					8	0	8	0	0	12	12	0																															3667.077322	None	3669.099322	3670.603308	3670.58658	None	3672.14068	None	2	0.662233892	3674.129278	None	3674.129278	None	3674.129278	None	None	None	None	None	3674.998207	None	3674.998207	None	right	3674.998207	None	None	None	3675.449412	3676.986838	0.417291734													116	1	19	1	2020_Feb_19_1055	Test	3.2.4	59.84055735		
Pictures/IA25_L15.bmp	Pictures/IA25_L15.bmp	Pictures/IA25.bmp	"There's not much on the line here"	1	risk					8	0	8	0	0	13	13	13																															3677.003518	None	3679.025524	3680.546172	3680.529477	None	3682.066853	None	2	1.632051435	3684.055444	None	3684.055444	None	3684.055444	None	None	None	None	None	3685.860192	None	3685.860192	None	right	3685.860192	None	None	None	3686.695751	3687.86548	0.795310581													116	1	19	1	2020_Feb_19_1055	Test	3.2.4	59.84055735		
Pictures/IA75_G15.bmp	Pictures/IA75_G15.bmp	Pictures/IA75.bmp	"Take a chance!"""""	1	risk					8	0	8	0	0	14	14	15																															3687.882203	None	3689.904202	3691.424879	3691.408173	None	3692.945561	None	2	0.481366122	3694.934129	None	3694.934129	None	3694.934129	None	None	None	None	None	3695.569137	None	3695.569137	None	right	3695.569137	None	None	None	3696.137311	3697.574422	0.526358692													116	1	19	1	2020_Feb_19_1055	Test	3.2.4	59.84055735		
Pictures/IA75_L45.bmp	Pictures/IA75_L45.bmp	Pictures/IA75.bmp	"Don't gamble for this one"	0	safe					8	0	8	0	0	15	15	11																															3697.591146	None	3699.613147	3701.133824	3701.117104	None	3702.62108	None	1	0.612430379	3704.643073	None	3704.643073	None	3704.643073	None	3705.395055	None	3705.395055	3706.397696	3707.500611	None	3707.500611	None	right	3707.500611	None	None	None	3707.868255	3709.505895	0.330884079													116	1	19	1	2020_Feb_19_1055	Test	3.2.4	59.84055735		
Pictures/IA100_G20.bmp	Pictures/IA100_G20.bmp	Pictures/IA100.bmp	"Go ahead and gamble!"""""	1	risk					8	0	8	0	0	16	16	16																															3709.522619	None	3711.544622	3713.065296	3713.048582	None	3714.569264	None	2	0.584944242	3716.574557	None	3716.574557	None	3716.574557	None	None	None	None	None	3717.309832	None	3717.309832	None	right	3717.309832	None	None	None	3717.660753	3719.298395	0.313659804													116	1	19	1	2020_Feb_19_1055	Test	3.2.4	59.84055735		
Pictures/IA80_40_L95p.bmp	Pictures/IA80_40_L95p.bmp	Pictures/IA80.bmp	"Let's stay with the certain option."""""	0	safe					8	0	8	0	0	17	17	5																															3719.315116	None	3721.353835	3722.874506	3722.857791	None	3724.378467	None	1	1.288448999	3726.367058	None	3726.367058	None	3726.367058	None	3727.804173	None	3727.804173	3728.806808	3729.909725	None	3729.909725	None	right	3729.909725	None	None	None	3730.344212	3731.91501	0.385762681													116	1	19	1	2020_Feb_19_1055	Test	3.2.4	59.84055735		
Pictures/IA110_55_G95p.bmp	Pictures/IA110_55_G95p.bmp	Pictures/IA110.bmp	"Take a chance!"""""	1	risk					8	0	8	0	0	18	18	8																															3731.931732	None	3733.970446	3735.49112	3735.474403	None	3736.961658	None	2	1.383822336	3738.983674	None	3738.983674	None	3738.983674	None	None	None	None	None	3740.521061	None	3740.521061	None	left	3740.521061	None	3740.905411	3742.509609	None	None	0.334440374													116	1	19	1	2020_Feb_19_1055	Test	3.2.4	59.84055735		
Pictures/IA100_L60.bmp	Pictures/IA100_L60.bmp	Pictures/IA100.bmp	"You'd have a lot to lose"	0	safe					8	0	8	0	0	19	19	12																															3742.526301	None	3744.548335	3746.069017	3746.05232	None	3747.556277	None	2	1.381203267	3749.578292	None	3749.578292	None	3749.578292	None	None	None	None	None	3751.132386	None	3751.132386	None	right	3751.132386	None	None	None	3751.95121	3753.137672	0.779110229													116	1	19	1	2020_Feb_19_1055	Test	3.2.4	59.84055735		
										8	0	8	0																																																																									3753.304774	None	return	4.078701818	3753.304774	None	116	1	19	1	2020_Feb_19_1055	Test	3.2.4	59.84055735		
Pictures/IA25_L15.bmp	Pictures/IA25_L15.bmp	Pictures/IA25.bmp	"There's not much on the line here"	1	risk					9	0	9	0	0	0	0	17													3757.549302	None	3757.549302	None	3757.549302	None	right	0.970198154	3757.549302	None	3757.549302	None	3757.549302	None	return	2.049966064	3757.549302	None	3759.638153	None	3761.643464	3763.164122	3763.147408	None	3764.651386	None	2	0.262133296	3766.673372	None	3766.673372	None	3766.673372	None	None	None	None	None	3767.124574	None	3767.124574	None	right	3767.124574	None	None	None	3767.308389	3769.113147	0.146918468													116	1	19	1	2020_Feb_19_1055	Test	3.2.4	59.84055735		
Pictures/IA50_L40.bmp	Pictures/IA50_L40.bmp	Pictures/IA50.bmp	"That gamble doesn't sound too good"	0	safe					9	0	9	0	0	1	1	14																															3769.129847	None	3771.151853	3772.672534	3772.655835	None	3774.19321	None	2	0.257706103	3776.1818	None	3776.1818	None	3776.1818	None	None	None	None	None	3776.632984	None	3776.632984	None	right	3776.632984	None	None	None	3776.683113	3778.621552	0.006515806													116	1	19	1	2020_Feb_19_1055	Test	3.2.4	59.84055735		
Pictures/IA75_L30.bmp	Pictures/IA75_L30.bmp	Pictures/IA75.bmp	"Hold back"	0	safe					9	0	9	0	0	2	2	8																															3778.638275	None	3780.660278	3782.180957	3782.164237	None	3783.701647	None	2	0.821300818	3785.690205	None	3785.690205	None	3785.690205	None	None	None	None	None	3786.692879	None	3786.692879	None	left	3786.692879	None	3786.960225	3788.69815	None	None	0.218613059													116	1	19	1	2020_Feb_19_1055	Test	3.2.4	59.84055735		
Pictures/IA100_L20.bmp	Pictures/IA100_L20.bmp	Pictures/IA100.bmp	"Try to win as much money as you can"	1	risk					9	0	9	0	0	3	3	16																															3788.714863	None	3790.736861	3792.257537	3792.240818	None	3793.761507	None	2	0.752711598	3795.766799	None	3795.766799	None	3795.766799	None	None	None	None	None	3796.719304	None	3796.719304	None	left	3796.719304	None	3796.886416	3798.724592	None	None	0.120195844													116	1	19	1	2020_Feb_19_1055	Test	3.2.4	59.84055735		
Pictures/IA40_20_G95p.bmp	Pictures/IA40_20_G95p.bmp	Pictures/IA40.bmp	"Hold back"	0	safe					9	0	9	0	0	4	4	11																															3798.741326	None	3800.76331	3802.283988	3802.267269	None	3803.787956	None	2	1.158286113	3805.793249	None	3805.793249	None	3805.793249	None	None	None	None	None	3807.130097	None	3807.130097	None	right	3807.130097	None	None	None	3807.481026	3809.118685	0.301395234													116	1	19	1	2020_Feb_19_1055	Test	3.2.4	59.84055735		
Pictures/IA50_L30.bmp	Pictures/IA50_L30.bmp	Pictures/IA50.bmp	"Take a leap"	1	risk					9	0	9	0	0	5	5	4																															3809.135383	None	3811.157389	3812.678064	3812.661365	None	3814.215453	None	2	1.084173845	3816.187325	None	3816.187325	None	3816.187325	None	None	None	None	None	3817.457341	None	3817.457341	None	right	3817.457341	None	None	None	3817.724724	3819.462692	0.222160188													116	1	19	1	2020_Feb_19_1055	Test	3.2.4	59.84055735		
Pictures/IA50_G10.bmp	Pictures/IA50_G10.bmp	Pictures/IA50.bmp	"Go with the safe option here!"""""	0	safe					9	0	9	0	0	6	6	10																															3819.479404	None	3821.501344	3823.02202	3823.005322	None	3824.509275	None	2	1.068199693	3826.531295	None	3826.531295	None	3826.531295	None	None	None	None	None	3827.767874	None	3827.767874	None	right	3827.767874	None	None	None	3828.319331	3829.756461	0.503622279													116	1	19	1	2020_Feb_19_1055	Test	3.2.4	59.84055735		
Pictures/IA75_L15.bmp	Pictures/IA75_L15.bmp	Pictures/IA75.bmp	"Trust me–gamble!"""""	1	risk					9	0	9	0	0	7	7	12																															3829.773163	None	3831.795163	3833.31584	3833.299145	None	3834.819812	None	1	1.710407383	3836.825102	None	3836.825102	None	3836.825102	None	3838.629861	None	3838.629861	3839.632502	3840.735419	None	3840.735419	None	left	3840.735419	None	3842.172549	None	None	None	1.392089271													116	1	19	1	2020_Feb_19_1055	Test	3.2.4	59.84055735		
Pictures/IA75_G60.bmp	Pictures/IA75_G60.bmp	Pictures/IA75.bmp	"Make it exciting"	1	risk					9	0	9	0	0	8	8	0																															3842.757414	None	3844.779416	3846.300092	3846.283398	None	3847.787353	None	2	0.79015021	3849.809368	None	3849.809368	None	3849.809368	None	None	None	None	None	3850.778579	None	3850.778579	None	left	3850.778579	None	3851.029236	3852.783865	None	None	0.204915843													116	1	19	1	2020_Feb_19_1055	Test	3.2.4	59.84055735		
Pictures/IA75_L60.bmp	Pictures/IA75_L60.bmp	Pictures/IA75.bmp	"