Choice	Choice2	Amount	AdviceVar1	GambleAdviceNum	GambleAdviceType	practice.thisRepN	practice.thisTrialN	practice.thisN	practice.thisIndex	trials_2.thisRepN	trials_2.thisTrialN	trials_2.thisN	trials_2.thisIndex	trials.thisRepN	trials.thisTrialN	trials.thisN	trials.thisIndex	text.started	text.stopped	key_resp_4.keys	key_resp_4.rt	key_resp_4.started	key_resp_4.stopped	instructions.started	instructions.stopped	space.keys	space.rt	space.started	space.stopped	chooseInst.started	chooseInst.stopped	Ad1.started	Ad1.stopped	Ad2.started	Ad2.stopped	key_resp_3.keys	key_resp_3.rt	key_resp_3.started	key_resp_3.stopped	Ad1pic.started	Ad1pic.stopped	Ad2pic.started	Ad2pic.stopped	enter.keys	enter.rt	enter.started	enter.stopped	iSi.started	iSi.stopped	receiveMoneyPicture.started	receiveMoneyPicture.stopped	ISI2.started	ISI2.stopped	ChoicePic.started	ChoicePic.stopped	response.keys	response.rt	response.started	response.stopped	yesNo.started	yesNo.stopped	ask.started	ask.stopped	getAdv.started	getAdv.stopped	textForCode.started	textForCode.stopped	blank.started	blank.stopped	ChoicePic2.started	ChoicePic2.stopped	resp.keys	resp.rt	resp.started	resp.stopped	checkL1.started	checkL1.stopped	checkR1.started	checkR1.stopped	EndPrac.started	EndPrac.stopped	key_resp.keys	key_resp.rt	key_resp.started	key_resp.stopped	endText.started	endText.stopped	key_resp_2.keys	key_resp_2.rt	key_resp_2.started	key_resp_2.stopped	participant	session	age	gender (0=male	 1 = female	 2 = other)	date	expName	psychopyVersion	frameRate
																		237.1817113	None	space	496.4428114	237.1817113	None																																																																					117	1	19	0	2020_Feb_26_1201	Test	3.2.4	59.83990779		
																								733.6573102	None	space	3.983232973	733.6573102	None																																																															117	1	19	0	2020_Feb_26_1201	Test	3.2.4	59.83990779		
																														738.3530381	None	738.3530381	None	738.3530381	None	right	9.663487816	738.3530381	None																																																					117	1	19	0	2020_Feb_26_1201	Test	3.2.4	59.83990779		
																																								738.3530381	None	738.3530381	None	return	12.91134029	738.3530381	None																																													117	1	19	0	2020_Feb_26_1201	Test	3.2.4	59.83990779		
Pictures/IA50_G10.bmp	Pictures/IA50_G10.bmp	Pictures/IA50.bmp	"Go with the safe option here!"""""	0	safe	0	0	0	0																																							751.4041139	None	753.3759963	754.8799504	754.8632528	None	756.3839371	None	1	2.009179174	758.4393572	None	758.4393572	None	758.4393572	None	760.5950409	None	760.5950409	761.5976844	762.7674427	None	762.7674427	None	left	1.265076551	762.7674427	None	764.0708663	None	None	None													117	1	19	0	2020_Feb_26_1201	Test	3.2.4	59.83990779		
Pictures/IA50_G30.bmp	Pictures/IA50_G30.bmp	Pictures/IA50.bmp	"I think you should gamble."""""	1	risk	0	1	1	2																																							764.789426	None	766.8114286	768.3321044	768.3154095	None	769.8862073	None	1	1.015155031	771.8413776	None	771.8413776	None	771.8413776	None	772.9777089	None	772.9777089	773.9803517	775.099976	None	775.099976	None	right	1.332547832	775.099976	None	None	None	776.4702451	None													117	1	19	0	2020_Feb_26_1201	Test	3.2.4	59.83990779		
Pictures/IA50_G20.bmp	Pictures/IA50_G20.bmp	Pictures/IA50.bmp	"Let's venture and take a risk!"""""	1	risk	0	2	2	1																																							777.1219615	None	779.1439646	780.66464	780.6479487	None	782.2187427	None	1	0.290620441	784.1739137	None	784.1739137	None	784.1739137	None	784.5749651	None	784.5749651	785.5776008	786.680517	None	786.680517	None	right	0.96800381	786.680517	None	None	None	787.68317	None													117	1	19	0	2020_Feb_26_1201	Test	3.2.4	59.83990779		
Pictures/IA100_G40.bmp	Pictures/IA100_G40.bmp	Pictures/IA100.bmp	"Try your luck and gamble!"""""	1	risk	0	3	3	5																																							788.7025131	None	790.757938	792.2786141	792.2619217	None	793.799293	None	1	0.270065514	795.7544684	None	795.7544684	None	795.7544684	None	796.1388106	None	796.1388106	797.1414546	798.2443738	None	798.2443738	None	right	0.652142825	798.2443738	None	None	None	798.9462119	800.2496567													117	1	19	0	2020_Feb_26_1201	Test	3.2.4	59.83990779		
Pictures/IA50_G40.bmp	Pictures/IA50_G40.bmp	Pictures/IA50.bmp	"It would probably be best to play it safe."""""	0	safe	0	4	4	3																																							800.2663562	None	802.2883575	803.8090364	803.7923407	None	805.3631383	None	1	0.898233672	807.3183091	None	807.3183091	None	807.3183091	None	808.3710739	None	808.3710739	809.3737193	810.5100543	None	810.5100543	None	left	0.866460339	810.5100543	None	811.4124471	812.5153415	None	None													117	1	19	0	2020_Feb_26_1201	Test	3.2.4	59.83990779		
Pictures/IA100_G20.bmp	Pictures/IA100_G20.bmp	Pictures/IA100.bmp	"Go ahead and gamble!"""""	1	risk	0	5	5	4																																							812.5320629	None	814.5540655	816.0747428	816.0580226	None	817.628845	None	1	1.064537274	819.583993	None	819.583993	None	819.583993	None	820.7370478	None	820.7370478	821.739692	822.8760249	None	822.8760249	None	left	0.500496057	822.8760249	None	823.4107523	824.8812991	None	None													117	1	19	0	2020_Feb_26_1201	Test	3.2.4	59.83990779		
																																																																																824.8980248	None	space	20.87850393	824.8980248	None							117	1	19	0	2020_Feb_26_1201	Test	3.2.4	59.83990779		
Pictures/IA20_10_G95p.bmp	Pictures/IA20_10_G95p.bmp	Pictures/IA20.bmp	"Take a leap"	1	risk					0	0	0	0	0	0	0	6													845.9535834	None	845.9535834	None	845.9535834	None	left	2.942947621	845.9535834	None	845.9535834	None	845.9535834	None	return	4.054837803	845.9535834	None	850.0811368	None	852.1031404	853.623817	853.6070971	None	855.127774	None	1	1.685560109	857.0829521	None	857.0829521	None	857.0829521	None	858.9044234	None	858.9044234	859.9070637	861.0099776	None	861.0099776	None	None		861.0099776	None	None	None	None	None													117	1	19	0	2020_Feb_26_1201	Test	3.2.4	59.83990779		
Pictures/IA110_55_G95p.bmp	Pictures/IA110_55_G95p.bmp	Pictures/IA110.bmp	"Take a chance!"""""	1	risk					0	0	0	0	0	1	1	4																															863.0152635	None	865.0706916	866.5746439	866.5579503	None	868.1120477	None	1	0.917333232	870.0672049	None	870.0672049	None	870.0672049	None	871.0698444	None	871.0698444	872.0724852	873.1753976	None	873.1753976	None	left	0.681124485	873.1753976	None	873.8939622	875.1639756	None	None													117	1	19	0	2020_Feb_26_1201	Test	3.2.4	59.83990779		
Pictures/IA100_G80.bmp	Pictures/IA100_G80.bmp	Pictures/IA100.bmp	"Why not gamble?"""""	1	risk					0	0	0	0	0	2	2	10																															875.1806995	None	877.2027043	878.7233809	878.7066611	None	880.2774876	None	1	1.383895533	882.2326343	None	882.2326343	None	882.2326343	None	883.7031447	None	883.7031447	884.705824	885.8087387	None	885.8087387	None	right	0.743782901	885.8087387	None	None	None	886.5941383	887.7973165													117	1	19	0	2020_Feb_26_1201	Test	3.2.4	59.83990779		
Pictures/IA100_L80.bmp	Pictures/IA100_L80.bmp	Pictures/IA100.bmp	"Go all in!"""""	1	risk					0	0	0	0	0	3	3	7																															887.8140359	None	889.8360421	891.3567209	891.3400002	None	892.9275312	None	1	1.04656574	894.8659832	None	894.8659832	None	894.8659832	None	896.0023137	None	896.0023137	897.0049568	898.1580056	None	898.1580056	None	right	1.730517653	898.1580056	None	None	None	899.9293287	None													117	1	19	0	2020_Feb_26_1201	Test	3.2.4	59.83990779		
Pictures/IA100_L20.bmp	Pictures/IA100_L20.bmp	Pictures/IA100.bmp	"Try to win as much money as you can"	1	risk					0	0	0	0	0	4	4	17																															900.1799902	None	902.2019946	903.7226724	903.7059772	None	905.2767793	None	1	0.928591496	907.2319535	None	907.2319535	None	907.2319535	None	908.318135	None	908.318135	909.3207823	910.4236937	None	910.4236937	None	right	1.464827766	910.4236937	None	None	None	911.9276727	None													117	1	19	0	2020_Feb_26_1201	Test	3.2.4	59.83990779		
Pictures/IA25_L15.bmp	Pictures/IA25_L15.bmp	Pictures/IA25.bmp	"There's not much on the line here"	1	risk					0	0	0	0	0	5	5	9																															912.4457039	None	914.4844313	915.9883737	915.9716816	None	917.5424796	None	2	1.42286545	919.4976591	None	919.4976591	None	919.4976591	None	None	None	None	None	921.1018734	None	921.1018734	None	left	0.546644804	921.1018734	None	921.6867763	923.0904506	None	None													117	1	19	0	2020_Feb_26_1201	Test	3.2.4	59.83990779		
Pictures/IA75_L30.bmp	Pictures/IA75_L30.bmp	Pictures/IA75.bmp	"Hold back"	0	safe					0	0	0	0	0	6	6	1																															923.1071787	None	925.1626017	926.6665564	926.6498585	None	928.1705078	None	1	0.873424061	930.1591098	None	930.1591098	None	930.1591098	None	931.1784698	None	931.1784698	932.1811085	933.2840295	None	933.2840295	None	left	0.516490635	933.2840295	None	933.8355016	935.2726097	None	None													117	1	19	0	2020_Feb_26_1201	Test	3.2.4	59.83990779		
Pictures/IA25_L5.bmp	Pictures/IA25_L5.bmp	Pictures/IA25.bmp	"It would be smarter to choose the safe option."""""	0	safe					0	0	0	0	0	7	7	14																															935.2893122	None	937.3113202	938.8152858	938.7985886	None	940.3861208	None	1	0.787271225	942.3412663	None	942.3412663	None	942.3412663	None	943.2770754	None	943.2770754	944.2797212	945.3826331	None	945.3826331	None	right	0.529886257	945.3826331	None	None	None	945.9507831	947.387922													117	1	19	0	2020_Feb_26_1201	Test	3.2.4	59.83990779		
Pictures/IA50_G20.bmp	Pictures/IA50_G20.bmp	Pictures/IA50.bmp	"Let's venture and take a risk!"""""	1	risk					0	0	0	0	0	8	8	3																															947.4046207	None	949.4266233	950.9473046	950.9306091	None	952.4512733	None	1	0.67196569	954.4565687	None	954.4565687	None	954.4565687	None	955.2586851	None	955.2586851	956.2613271	957.3642451	None	957.3642451	None	left	0.556291525	957.3642451	None	957.9658389	959.3695321	None	None													117	1	19	0	2020_Feb_26_1201	Test	3.2.4	59.83990779		
Pictures/IA100_L40.bmp	Pictures/IA100_L40.bmp	Pictures/IA100.bmp	"Think of the payoff"	1	risk					0	0	0	0	0	9	9	15																															959.3862552	None	961.4082599	962.9289393	962.9122223	None	964.4997664	None	1	0.538330297	966.4382061	None	966.4382061	None	966.4382061	None	967.1066402	None	967.1066402	968.1092816	969.2121954	None	969.2121954	None	right	1.220320749	969.2121954	None	None	None	970.4822135	None													117	1	19	0	2020_Feb_26_1201	Test	3.2.4	59.83990779		
Pictures/IA20_10_L95p.bmp	Pictures/IA20_10_L95p.bmp	Pictures/IA20.bmp	"Don't be tempted to gamble."""""	0	safe					0	0	0	0	0	10	10	5																															971.2341931	None	973.2561973	974.7768764	974.7601549	None	976.3309922	None	1	0.586391697	978.2861316	None	978.2861316	None	978.2861316	None	979.0047085	None	979.0047085	980.0073486	981.1102635	None	981.1102635	None	right	0.842263128	981.1102635	None	None	None	981.9959307	983.0988297													117	1	19	0	2020_Feb_26_1201	Test	3.2.4	59.83990779		
Pictures/IA100_G40.bmp	Pictures/IA100_G40.bmp	Pictures/IA100.bmp	"Try your luck and gamble!"""""	1	risk					0	0	0	0	0	11	11	2																															983.115553	None	985.137559	986.6582403	986.6415174	None	988.1455002	None	1	0.617033272	990.1674956	None	990.1674956	None	990.1674956	None	990.8860535	None	990.8860535	991.8886948	992.9916106	None	992.9916106	None	left	0.56092445	992.9916106	None	993.5932077	994.9969124	None	None													117	1	19	0	2020_Feb_26_1201	Test	3.2.4	59.83990779		
Pictures/IA110_55_L95p.bmp	Pictures/IA110_55_L95p.bmp	Pictures/IA110.bmp	"Trust me"	1	risk					0	0	0	0	0	12	12	13																															995.0136107	None	997.0356174	998.5562947	998.5395998	None	1000.127111	None	1	0.65496949	1002.065563	None	1002.065563	None	1002.065563	None	1002.834268	None	1002.834268	1003.836911	1004.939827	None	1004.939827	None	right	0.26068697	1004.939827	None	None	None	1005.240607	1006.945116													117	1	19	0	2020_Feb_26_1201	Test	3.2.4	59.83990779		
Pictures/IA50_G30.bmp	Pictures/IA50_G30.bmp	Pictures/IA50.bmp	"I think you should gamble."""""	1	risk					0	0	0	0	0	13	13	8																															1006.961821	None	1008.98382	1010.504503	1010.487818	None	1011.991762	None	1	1.090755305	1014.01378	None	1014.01378	None	1014.01378	None	1015.216941	None	1015.216941	1016.219598	1017.355923	None	1017.355923	None	right	0.500595118	1017.355923	None	None	None	1017.890675	1019.361212													117	1	19	0	2020_Feb_26_1201	Test	3.2.4	59.83990779		
Pictures/IA80_40_G95p.bmp	Pictures/IA80_40_G95p.bmp	Pictures/IA80.bmp	"Think of the payoff"	1	risk					0	0	0	0	0	14	14	0																															1019.377935	None	1021.416615	1022.937333	1022.92061	None	1024.474714	None	1	0.490649835	1026.429886	None	1026.429886	None	1026.429886	None	1027.048171	None	1027.048171	1028.050818	1029.153732	None	1029.153732	None	left	0.438798209	1029.153732	None	1029.638343	1031.142322	None	None													117	1	19	0	2020_Feb_26_1201	Test	3.2.4	59.83990779		
Pictures/IA100_L60.bmp	Pictures/IA100_L60.bmp	Pictures/IA100.bmp	"You'd have a lot to lose"	0	safe					0	0	0	0	0	15	15	12																															1031.15902	None	1033.181027	1034.685006	1034.668287	None	1036.255811	None	1	0.65355253	1038.210985	None	1038.210985	None	1038.210985	None	1039.013094	None	1039.013094	1040.015732	1041.118649	None	1041.118649	None	None		1041.118649	None	None	None	None	None													117	1	19	0	2020_Feb_26_1201	Test	3.2.4	59.83990779		
Pictures/IA50_G10.bmp	Pictures/IA50_G10.bmp	Pictures/IA50.bmp	"Go with the safe option here!"""""	0	safe					0	0	0	0	0	16	16	11																															1043.123938	None	1045.145949	1046.666624	1046.649932	None	1048.170598	None	1	1.544641035	1050.175892	None	1050.175892	None	1050.175892	None	1051.846972	None	1051.846972	1052.849612	1053.952528	None	1053.952528	None	right	1.615993392	1053.952528	None	None	None	1055.606893	None													117	1	19	0	2020_Feb_26_1201	Test	3.2.4	59.83990779		
Pictures/IA25_L20.bmp	Pictures/IA25_L20.bmp	Pictures/IA25.bmp	"Don't be tempted to gamble."""""	0	safe					0	0	0	0	0	17	17	18																															1055.957829	None	1057.979836	1059.500522	1059.483804	None	1061.054619	None	1	0.934752029	1063.009772	None	1063.009772	None	1063.009772	None	1064.062559	None	1064.062559	1065.065203	1066.168122	None	1066.168122	None	right	0.320408962	1066.168122	None	None	None	1066.535743	1068.173408													117	1	19	0	2020_Feb_26_1201	Test	3.2.4	59.83990779		
Pictures/IA50_L40.bmp	Pictures/IA50_L40.bmp	Pictures/IA50.bmp	"That gamble doesn't sound too good"	0	safe					0	0	0	0	0	18	18	16																															1068.19011	None	1070.212115	1071.732797	1071.716097	None	1073.286903	None	2	0.90246252	1075.242074	None	1075.242074	None	1075.242074	None	None	None	None	None	1076.328264	None	1076.328264	None	right	0.032254515	1076.328264	None	None	None	1076.395119	1078.333567													117	1	19	0	2020_Feb_26_1201	Test	3.2.4	59.83990779		
Pictures/IA80_40_L95p.bmp	Pictures/IA80_40_L95p.bmp	Pictures/IA80.bmp	"Let's stay with the certain option."""""	0	safe					0	0	0	0	0	19	19	19																															1078.350264	None	1080.372272	1081.892954	1081.876254	None	1083.447057	None	2	0.862305541	1085.402233	None	1085.402233	None	1085.402233	None	None	None	None	None	1086.438286	None	1086.438286	None	right	0.954229443	1086.438286	None	None	None	1087.440942	None													117	1	19	0	2020_Feb_26_1201	Test	3.2.4	59.83990779		
										0	0	0	0																																																																									1088.694246	None	return	11.57825697	1088.694246	None	117	1	19	0	2020_Feb_26_1201	Test	3.2.4	59.83990779		
Pictures/IA100_L80.bmp	Pictures/IA100_L80.bmp	Pictures/IA100.bmp	"Go all in!"""""	1	risk					1	0	1	0	0	0	0	17													1100.42521	None	1100.42521	None	1100.42521	None	right	2.415312245	1100.42521	None	1100.42521	None	1100.42521	None	return	3.599112628	1100.42521	None	1104.068174	None	1106.090182	1107.610858	1107.594144	None	1109.081399	None	1	1.745118235	1111.103424	None	1111.103424	None	1111.103424	None	1112.924894	None	1112.924894	1113.927535	1115.047165	None	1115.047165	None	left	1.513354875	1115.047165	None	1116.601263	None	None	None													117	1	19	0	2020_Feb_26_1201	Test	3.2.4	59.83990779		
Pictures/IA100_L20.bmp	Pictures/IA100_L20.bmp	Pictures/IA100.bmp	"Try to win as much money as you can"	1	risk					1	0	1	0	0	1	1	10																															1117.052455	None	1119.074463	1120.595143	1120.578421	None	1122.082407	None	1	0.936123086	1124.1044	None	1124.1044	None	1124.1044	None	1125.190599	None	1125.190599	1126.193242	1127.362968	None	1127.362968	None	right	1.325556674	1127.362968	None	None	None	1128.733296	None													117	1	19	0	2020_Feb_26_1201	Test	3.2.4	59.83990779		
Pictures/IA100_G80.bmp	Pictures/IA100_G80.bmp	Pictures/IA100.bmp	"Why not gamble?"""""	1	risk					1	0	1	0	0	2	2	15																															1129.385001	None	1131.407011	1132.927691	1132.910995	None	1134.431664	None	1	1.187565895	1136.436961	None	1136.436961	None	1136.436961	None	1137.7237	None	1137.7237	1138.72635	1139.845974	None	1139.845974	None	left	0.898540716	1139.845974	None	1140.781762	1141.851253	None	None													117	1	19	0	2020_Feb_26_1201	Test	3.2.4	59.83990779		
Pictures/IA50_L40.bmp	Pictures/IA50_L40.bmp	Pictures/IA50.bmp	"That gamble doesn't sound too good"	0	safe					1	0	1	0	0	3	3	11																															1141.86798	None	1143.889982	1145.410663	1145.393942	None	1146.920042	None	1	1.216595303	1148.919927	None	1148.919927	None	1148.919927	None	1150.29022	None	1150.29022	1151.292863	1152.429203	None	1152.429203	None	left	0.859318968	1152.429203	None	1153.331566	1154.43449	None	None													117	1	19	0	2020_Feb_26_1201	Test	3.2.4	59.83990779		
Pictures/IA40_20_G95p.bmp	Pictures/IA40_20_G95p.bmp	Pictures/IA40.bmp	"Hold back"	0	safe					1	0	1	0	0	4	4	6																															1154.451188	None	1156.506619	1158.027297	1158.010602	None	1159.547982	None	1	0.617369526	1161.50316	None	1161.50316	None	1161.50316	None	1162.255143	None	1162.255143	1163.257787	1164.360705	None	1164.360705	None	left	0.327824639	1164.360705	None	1164.728324	1166.365988	None	None													117	1	19	0	2020_Feb_26_1201	Test	3.2.4	59.83990779		
Pictures/IA25_L10.bmp	Pictures/IA25_L10.bmp	Pictures/IA25.bmp	"Dont be afraid to take the risk!"""""	1	risk					1	0	1	0	0	5	5	7																															1166.382698	None	1168.404701	1169.925381	1169.908686	None	1171.479487	None	2	0.997869958	1173.434661	None	1173.434661	None	1173.434661	None	None	None	None	None	1174.604423	None	1174.604423	None	left	0.676091375	1174.604423	None	1175.322967	1176.592987	None	None													117	1	19	0	2020_Feb_26_1201	Test	3.2.4	59.83990779		
Pictures/IA80_40_G95p.bmp	Pictures/IA80_40_G95p.bmp	Pictures/IA80.bmp	"Think of the payoff"	1	risk					1	0	1	0	0	6	6	9																															1176.609711	None	1178.631717	1180.152397	1180.135678	None	1181.639661	None	1	0.770868176	1183.661663	None	1183.661663	None	1183.661663	None	1184.547326	None	1184.547326	1185.549972	1186.652887	None	1186.652887	None	left	0.643644612	1186.652887	None	1187.338027	1188.641483	None	None													117	1	19	0	2020_Feb_26_1201	Test	3.2.4	59.83990779		
Pictures/IA100_G60.bmp	Pictures/IA100_G60.bmp	Pictures/IA100.bmp	"Be cautious"	0	safe					1	0	1	0	0	7	7	13																															1188.65818	None	1190.680193	1192.200885	1192.184196	None	1193.754974	None	1	0.794375908	1195.710158	None	1195.710158	None	1195.710158	None	1196.645941	None	1196.645941	1197.648587	1198.7515	None	1198.7515	None	left	1.449021518	1198.7515	None	1200.238761	None	None	None													117	1	19	0	2020_Feb_26_1201	Test	3.2.4	59.83990779		
Pictures/IA75_G45.bmp	Pictures/IA75_G45.bmp	Pictures/IA75.bmp	"Don't gamble for this one."""""	0	safe					1	0	1	0	0	8	8	5																															1200.756798	None	1202.778802	1204.299484	1204.282794	None	1205.853592	None	2	1.071771823	1207.808766	None	1207.808766	None	1207.808766	None	None	None	None	None	1209.095497	None	1209.095497	None	left	0.345019445	1209.095497	None	1209.479882	1211.084078	None	None													117	1	19	0	2020_Feb_26_1201	Test	3.2.4	59.83990779		
Pictures/IA50_G40.bmp	Pictures/IA50_G40.bmp	Pictures/IA50.bmp	"It would probably be best to play it safe."""""	0	safe					1	0	1	0	0	9	9	19																															1211.100778	None	1213.122786	1214.643468	1214.626772	None	1216.16415	None	1	0.303784472	1218.15275	None	1218.15275	None	1218.15275	None	1218.60394	None	1218.60394	1219.606584	1220.709503	None	1220.709503	None	right	1.483013009	1220.709503	None	None	None	1222.230181	None													117	1	19	0	2020_Feb_26_1201	Test	3.2.4	59.83990779		
Pictures/IA20_10_G95p.bmp	Pictures/IA20_10_G95p.bmp	Pictures/IA20.bmp	"Take a leap"	1	risk					1	0	1	0	0	10	10	1																															1222.714782	None	1224.736789	1226.257468	1226.240776	None	1227.778157	None	1	1.249768366	1229.766755	None	1229.766755	None	1229.766755	None	1231.15375	None	1231.15375	1232.156392	1233.259314	None	1233.259314	None	left	0.573210731	1233.259314	None	1233.877606	1235.247879	None	None													117	1	19	0	2020_Feb_26_1201	Test	3.2.4	59.83990779		
Pictures/IA50_L20.bmp	Pictures/IA50_L20.bmp	Pictures/IA50.bmp	"Certainty is boring"	1	risk					1	0	1	0	0	11	11	0																															1235.264615	None	1237.286612	1238.807295	1238.79057	None	1240.361399	None	1	2.147980221	1242.316551	None	1242.316551	None	1242.316551	None	1244.572506	None	1244.572506	1245.575151	1246.678069	None	1246.678069	None	None		1246.678069	None	None	None	None	None													117	1	19	0	2020_Feb_26_1201	Test	3.2.4	59.83990779		
Pictures/IA100_L40.bmp	Pictures/IA100_L40.bmp	Pictures/IA100.bmp	"Think of the payoff"	1	risk					1	0	1	0	0	12	12	2																															1248.68336	None	1250.705369	1252.226051	1252.209357	None	1253.730025	None	1	1.609210303	1255.735323	None	1255.735323	None	1255.735323	None	1257.473246	None	1257.473246	1258.475889	1259.578806	None	1259.578806	None	left	0.541724671	1259.578806	None	1260.163684	1261.567391	None	None													117	1	19	0	2020_Feb_26_1201	Test	3.2.4	59.83990779		
Pictures/IA100_G20.bmp	Pictures/IA100_G20.bmp	Pictures/IA100.bmp	"Go ahead and gamble!"""""	1	risk					1	0	1	0	0	13	13	14																															1261.58411	None	1263.606123	1265.126806	1265.110081	None	1266.647487	None	1	0.836476731	1268.63606	None	1268.63606	None	1268.63606	None	1269.571865	None	1269.571865	1270.574509	1271.677427	None	1271.677427	None	right	0.555106501	1271.677427	None	None	None	1272.279023	1273.682731													117	1	19	0	2020_Feb_26_1201	Test	3.2.4	59.83990779		
Pictures/IA25_L20.bmp	Pictures/IA25_L20.bmp	Pictures/IA25.bmp	"Don't be tempted to gamble."""""	0	safe					1	0	1	0	0	14	14	18																															1273.699428	None	1275.72144	1277.242119	1277.225428	None	1278.729386	None	1	1.169126157	1280.751404	None	1280.751404	None	1280.751404	None	1282.021417	None	1282.021417	1283.024054	1284.126974	None	1284.126974	None	left	0.337550647	1284.126974	None	1284.511315	1286.115556	None	None													117	1	19	0	2020_Feb_26_1201	Test	3.2.4	59.83990779		
Pictures/IA75_L30.bmp	Pictures/IA75_L30.bmp	Pictures/IA75.bmp	"Hold back"	0	safe					1	0	1	0	0	15	15	4																															1286.132277	None	1288.154288	1289.674969	1289.658246	None	1291.195654	None	2	1.344295294	1293.184239	None	1293.184239	None	1293.184239	None	None	None	None	None	1294.704911	None	1294.704911	None	left	0.271619233	1294.704911	None	1295.022412	1296.693493	None	None													117	1	19	0	2020_Feb_26_1201	Test	3.2.4	59.83990779		
Pictures/IA75_L60.bmp	Pictures/IA75_L60.bmp	Pictures/IA75.bmp	"Why not take the gamble?"""""	1	risk					1	0	1	0	0	16	16	8																															1296.710216	None	1298.732226	1300.236182	1300.219486	None	1301.823724	None	1	0.782351177	1303.762179	None	1303.762179	None	1303.762179	None	1304.647853	None	1304.647853	1305.650497	1306.753413	None	1306.753413	None	left	0.791111115	1306.753413	None	1307.588937	1308.758712	None	None													117	1	19	0	2020_Feb_26_1201	Test	3.2.4	59.83990779		
Pictures/IA50_G10.bmp	Pictures/IA50_G10.bmp	Pictures/IA50.bmp	"Go with the safe option here!"""""	0	safe					1	0	1	0	0	17	17	3																															1308.775368	None	1310.797413	1312.318093	1312.301401	None	1313.838778	None	1	0.28514671	1315.827379	None	1315.827379	None	1315.827379	None	1316.228426	None	1316.228426	1317.231071	1318.333987	None	1318.333987	None	left	0.282526265	1318.333987	None	1318.651489	1320.339291	None	None													117	1	19	0	2020_Feb_26_1201	Test	3.2.4	59.83990779		
Pictures/IA80_40_L95p.bmp	Pictures/IA80_40_L95p.bmp	Pictures/IA80.bmp	"Let's stay with the certain option."""""	0	safe					1	0	1	0	0	18	18	16																															1320.355989	None	1322.378	1323.898682	1323.881986	None	1325.385946	None	1	0.256573248	1327.407965	None	1327.407965	None	1327.407965	None	1327.792301	None	1327.792301	1328.794947	1329.897828	None	1329.897828	None	right	0.59869742	1329.897828	None	None	None	1330.532886	1331.903168													117	1	19	0	2020_Feb_26_1201	Test	3.2.4	59.83990779		
Pictures/IA100_G40.bmp	Pictures/IA100_G40.bmp	Pictures/IA100.bmp	"Try your luck and gamble!"""""	1	risk					1	0	1	0	0	19	19	12																															1331.919867	None	1333.941876	1335.462558	1335.445863	None	1336.966531	None	1	0.26871275	1338.971831	None	1338.971831	None	1338.971831	None	1339.37289	None	1339.37289	1340.375533	1341.478451	None	1341.478451	None	left	0.282070445	1341.478451	None	1341.795953	1343.467035	None	None													117	1	19	0	2020_Feb_26_1201	Test	3.2.4	59.83990779		
										1	0	1	0																																																																									1343.634157	None	return	7.118350987	1343.634157	None	117	1	19	0	2020_Feb_26_1201	Test	3.2.4	59.83990779		
Pictures/IA100_L60.bmp	Pictures/IA100_L60.bmp	Pictures/IA100.bmp	"You'd have a lot to lose"	0	safe					2	0	2	0	0	0	0	1													1350.903351	None	1350.903351	None	1350.903351	None	right	1.745182753	1350.903351	None	1350.903351	None	1350.903351	None	return	6.320959893	1350.903351	None	1357.286866	None	1359.29218	1360.812864	1360.796142	None	1362.300132	None	1	0.751120074	1364.305412	None	1364.305412	None	1364.305412	None	1365.191085	None	1365.191085	1366.19373	1367.330069	None	1367.330069	None	left	0.470454904	1367.330069	None	1367.848102	1369.335373	None	None													117	1	19	0	2020_Feb_26_1201	Test	3.2.4	59.83990779		
Pictures/IA75_G30.bmp	Pictures/IA75_G30.bmp	Pictures/IA75.bmp	"Be bold"	1	risk					2	0	2	0	0	1	1	8																															1369.352074	None	1371.374082	1372.894764	1372.878068	None	1374.448872	None	1	0.804485613	1376.404052	None	1376.404052	None	1376.404052	None	1377.323144	None	1377.323144	1378.32579	1379.428708	None	1379.428708	None	left	0.467810918	1379.428708	None	1379.92998	1381.434001	None	None													117	1	19	0	2020_Feb_26_1201	Test	3.2.4	59.83990779		
Pictures/IA40_20_G95p.bmp	Pictures/IA40_20_G95p.bmp	Pictures/IA40.bmp	"Hold back"	0	safe					2	0	2	0	0	2	2	19																															1381.450696	None	1383.472707	1384.99339	1384.976694	None	1386.480698	None	1	0.657854378	1388.502676	None	1388.502676	None	1388.502676	None	1389.304782	None	1389.304782	1390.307426	1391.410345	None	1391.410345	None	left	0.262174184	1391.410345	None	1391.71115	1393.415637	None	None													117	1	19	0	2020_Feb_26_1201	Test	3.2.4	59.83990779		
Pictures/IA75_L30.bmp	Pictures/IA75_L30.bmp	Pictures/IA75.bmp	"Hold back"	0	safe					2	0	2	0	0	3	3	18																															1393.432365	None	1395.454371	1396.975051	1396.958333	None	1398.462317	None	1	1.260203827	1400.484326	None	1400.484326	None	1400.484326	None	1401.837901	None	1401.837901	1402.840548	1403.943465	None	1403.943465	None	left	0.657062153	1403.943465	None	1404.645305	1405.948757	None	None													117	1	19	0	2020_Feb_26_1201	Test	3.2.4	59.83990779		
Pictures/IA25_L10.bmp	Pictures/IA25_L10.bmp	Pictures/IA25.bmp	"Dont be afraid to take the risk!"""""	1	risk					2	0	2	0	0	4	4	10																															1405.965457	None	1407.987467	1409.508151	1409.491463	None	1411.012126	None	2	0.879108308	1413.017422	None	1413.017422	None	1413.017422	None	None	None	None	None	1414.070205	None	1414.070205	None	left	0.834318267	1414.070205	None	1414.939174	1416.075509	None	None													117	1	19	0	2020_Feb_26_1201	Test	3.2.4	59.83990779		
Pictures/IA75_L15.bmp	Pictures/IA75_L15.bmp	Pictures/IA75.bmp	"Trust me–gamble!"""""	1	risk					2	0	2	0	0	5	5	2																															1416.092208	None	1418.114219	1419.634899	1419.618204	None	1421.189009	None	1	1.072345561	1423.144188	None	1423.144188	None	1423.144188	None	1424.347368	None	1424.347368	1425.350009	1426.469638	None	1426.469638	None	right	1.818875469	1426.469638	None	None	None	1428.324534	None													117	1	19	0	2020_Feb_26_1201	Test	3.2.4	59.83990779		
Pictures/IA25_G20.bmp	Pictures/IA25_G20.bmp	Pictures/IA25.bmp	"I wouldn't gamble for this one. """""	0	safe					2	0	2	0	0	6	6	0																															1428.474917	None	1430.49693	1432.017611	1432.000917	None	1433.571722	None	1	1.241630911	1435.526903	None	1435.526903	None	1435.526903	None	1436.897184	None	1436.897184	1437.899828	1439.036168	None	1439.036168	None	left	1.212350798	1439.036168	None	1440.289475	None	None	None													117	1	19	0	2020_Feb_26_1201	Test	3.2.4	59.83990779		
Pictures/IA25_L5.bmp	Pictures/IA25_L5.bmp	Pictures/IA25.bmp	"It would be smarter to choose the safe option."""""	0	safe					2	0	2	0	0	7	7	15																															1441.04145	None	1443.063463	1444.584142	1444.567446	None	1446.088116	None	1	1.051112136	1448.093418	None	1448.093418	None	1448.093418	None	1449.279883	None	1449.279883	1450.282529	1451.418869	None	1451.418869	None	left	0.365679678	1451.418869	None	1451.819938	1453.424174	None	None													117	1	19	0	2020_Feb_26_1201	Test	3.2.4	59.83990779		
Pictures/IA75_L60.bmp	Pictures/IA75_L60.bmp	Pictures/IA75.bmp	"Why not take the gamble?"""""	1	risk					2	0	2	0	0	8	8	12																															1453.440872	None	1455.462883	1456.983563	1456.96687	None	1458.504252	None	1	0.739675897	1460.492862	None	1460.492862	None	1460.492862	None	1461.345107	None	1461.345107	1462.34775	1463.484102	None	1463.484102	None	left	1.156416049	1463.484102	None	1464.68725	None	None	None													117	1	19	0	2020_Feb_26_1201	Test	3.2.4	59.83990779		
Pictures/IA25_G10.bmp	Pictures/IA25_G10.bmp	Pictures/IA25.bmp	"What's life without a little risk?"""""	1	risk					2	0	2	0	0	9	9	9																															1465.506093	None	1467.528107	1469.048791	1469.032066	None	1470.619605	None	1	0.626447366	1472.558078	None	1472.558078	None	1472.558078	None	1473.310046	None	1473.310046	1474.31269	1475.43232	None	1475.43232	None	left	0.664199976	1475.43232	None	1476.134158	1477.437613	None	None													117	1	19	0	2020_Feb_26_1201	Test	3.2.4	59.83990779		
Pictures/IA110_55_G95p.bmp	Pictures/IA110_55_G95p.bmp	Pictures/IA110.bmp	"Take a chance!"""""	1	risk					2	0	2	0	0	10	10	17																															1477.454318	None	1479.476321	1480.980307	1480.963586	None	1482.517692	None	1	0.726237748	1484.506293	None	1484.506293	None	1484.506293	None	1485.325108	None	1485.325108	1486.327753	1487.430672	None	1487.430672	None	left	0.457864444	1487.430672	None	1487.932006	1489.435977	None	None													117	1	19	0	2020_Feb_26_1201	Test	3.2.4	59.83990779		
Pictures/IA100_L20.bmp	Pictures/IA100_L20.bmp	Pictures/IA100.bmp	"Try to win as much money as you can"	1	risk					2	0	2	0	0	11	11	11																															1489.452677	None	1491.47469	1492.995374	1492.978677	None	1494.499352	None	1	1.367867176	1496.504654	None	1496.504654	None	1496.504654	None	1498.008631	None	1498.008631	1499.011274	1500.114193	None	1500.114193	None	right	0.926333064	1500.114193	None	None	None	1501.083405	1502.119488													117	1	19	0	2020_Feb_26_1201	Test	3.2.4	59.83990779		
Pictures/IA80_40_L95p.bmp	Pictures/IA80_40_L95p.bmp	Pictures/IA80.bmp	"Let's stay with the certain option."""""	0	safe					2	0	2	0	0	12	12	16																															1502.136186	None	1504.158196	1505.67888	1505.662183	None	1507.199563	None	1	0.66036392	1509.188169	None	1509.188169	None	1509.188169	None	1509.97356	None	1509.97356	1510.976206	1512.079126	None	1512.079126	None	right	0.457404919	1512.079126	None	None	None	1512.580458	1514.08442													117	1	19	0	2020_Feb_26_1201	Test	3.2.4	59.83990779		
Pictures/IA75_G45.bmp	Pictures/IA75_G45.bmp	Pictures/IA75.bmp	"Don't gamble for this one."""""	0	safe					2	0	2	0	0	13	13	5																															1514.101141	None	1516.123154	1517.643835	1517.627119	None	1519.147819	None	1	0.863419065	1521.153112	None	1521.153112	None	1521.153112	None	1522.122325	None	1522.122325	1523.124986	1524.227888	None	1524.227888	None	left	0.620636638	1524.227888	None	1524.89633	1526.233193	None	None													117	1	19	0	2020_Feb_26_1201	Test	3.2.4	59.83990779		
Pictures/IA50_G20.bmp	Pictures/IA50_G20.bmp	Pictures/IA50.bmp	"Let's venture and take a risk!"""""	1	risk					2	0	2	0	0	14	14	3																															1526.249893	None	1528.271904	1529.792585	1529.775891	None	1531.313278	None	1	0.906659118	1533.301874	None	1533.301874	None	1533.301874	None	1534.321234	None	1534.321234	1535.323878	1536.426798	None	1536.426798	None	left	0.933721656	1536.426798	None	1537.396008	1538.432091	None	None													117	1	19	0	2020_Feb_26_1201	Test	3.2.4	59.83990779		
Pictures/IA50_L30.bmp	Pictures/IA50_L30.bmp	Pictures/IA50.bmp	"Take a leap"	1	risk					2	0	2	0	0	15	15	7																															1538.44879	None	1540.470802	1541.991486	1541.974787	None	1543.562302	None	1	1.139771851	1545.50076	None	1545.50076	None	1545.50076	None	1546.78749	None	1546.78749	1547.790135	1548.89306	None	1548.89306	None	left	1.019451971	1548.89306	None	1549.945837	None	None	None													117	1	19	0	2020_Feb_26_1201	Test	3.2.4	59.83990779		
Pictures/IA75_G60.bmp	Pictures/IA75_G60.bmp	Pictures/IA75.bmp	"Make it exciting"	1	risk					2	0	2	0	0	16	16	6																															1550.898362	None	1552.92037	1554.424331	1554.407636	None	1555.995163	None	1	0.61021486	1557.950318	None	1557.950318	None	1557.950318	None	1558.685592	None	1558.685592	1559.688237	1560.791158	None	1560.791158	None	left	0.345372812	1560.791158	None	1561.175502	1562.77974	None	None													117	1	19	0	2020_Feb_26_1201	Test	3.2.4	59.83990779		
Pictures/IA100_L80.bmp	Pictures/IA100_L80.bmp	Pictures/IA100.bmp	"Go all in!"""""	1	risk					2	0	2	0	0	17	17	14																															1562.796463	None	1564.818479	1566.322435	1566.30574	None	1567.859846	None	1	0.632117904	1569.848419	None	1569.848419	None	1569.848419	None	1570.550284	None	1570.550284	1571.552932	1572.655851	None	1572.655851	None	left	0.72867438	1572.655851	None	1573.424531	1574.661143	None	None													117	1	19	0	2020_Feb_26_1201	Test	3.2.4	59.83990779		
Pictures/IA40_20_L95p.bmp	Pictures/IA40_20_L95p.bmp	Pictures/IA40.bmp	"Trust me"	1	risk					2	0	2	0	0	18	18	4																															1574.677842	None	1576.699862	1578.220535	1578.203845	None	1579.774643	None	1	0.814705298	1581.729825	None	1581.729825	None	1581.729825	None	1582.632206	None	1582.632206	1583.634855	1584.737774	None	1584.737774	None	right	0.262750381	1584.737774	None	None	None	1585.03855	1586.743069													117	1	19	0	2020_Feb_26_1201	Test	3.2.4	59.83990779		
Pictures/IA75_G15.bmp	Pictures/IA75_G15.bmp	Pictures/IA75.bmp	"Take a chance!"""""	1	risk					2	0	2	0	0	19	19	13																															1586.759764	None	1588.781779	1590.302457	1590.285763	None	1591.85658	None	1	0.228776278	1593.811748	None	1593.811748	None	1593.811748	None	1594.129238	None	1594.129238	1595.131883	1596.234804	None	1596.234804	None	left	0.981718315	1596.234804	None	1597.254158	None	None	None													117	1	19	0	2020_Feb_26_1201	Test	3.2.4	59.83990779		
										2	0	2	0																																																																									1598.390505	None	return	6.050017194	1598.390505	None	117	1	19	0	2020_Feb_26_1201	Test	3.2.4	59.83990779		
Pictures/IA25_L10.bmp	Pictures/IA25_L10.bmp	Pictures/IA25.bmp	"Dont be afraid to take the risk!"""""	1	risk					3	0	3	0	0	0	0	10													1604.590179	None	1604.590179	None	1604.590179	None	left	1.362343023	1604.590179	None	1604.590179	None	1604.590179	None	return	2.1702251	1604.590179	None	1606.812759	None	1608.818049	1610.338737	1610.322034	None	1611.826008	None	1	0.745220534	1613.831309	None	1613.831309	None	1613.831309	None	1614.700274	None	1614.700274	1615.702914	1616.822546	None	1616.822546	None	left	0.337974683	1616.822546	None	1617.20689	1618.827827	None	None													117	1	19	0	2020_Feb_26_1201	Test	3.2.4	59.83990779		
Pictures/IA25_G15.bmp	Pictures/IA25_G15.bmp	Pictures/IA25.bmp	"I think you should take a gamble."""""	1	risk					3	0	3	0	0	1	1	1																															1618.844551	None	1620.86656	1622.387244	1622.370524	None	1623.958068	None	1	0.968007629	1625.896522	None	1625.896522	None	1625.896522	None	1626.982707	None	1626.982707	1627.985356	1629.121697	None	1629.121697	None	left	0.454826699	1629.121697	None	1629.623031	1631.126997	None	None													117	1	19	0	2020_Feb_26_1201	Test	3.2.4	59.83990779		
Pictures/IA75_L30.bmp	Pictures/IA75_L30.bmp	Pictures/IA75.bmp	"Hold back"	0	safe					3	0	3	0	0	2	2	2																															1631.143717	None	1633.165726	1634.686407	1634.669688	None	1636.223806	None	1	0.572852556	1638.195687	None	1638.195687	None	1638.195687	None	1638.91426	None	1638.91426	1639.916894	1641.036596	None	1641.036596	None	left	0.259907663	1641.036596	None	1641.337407	1643.041808	None	None													117	1	19	0	2020_Feb_26_1201	Test	3.2.4	59.83990779		
Pictures/IA50_L40.bmp	Pictures/IA50_L40.bmp	Pictures/IA50.bmp	"That gamble doesn't sound too good"	0	safe					3	0	3	0	0	3	3	16																															1643.058529	None	1645.080595	1646.584502	1646.567806	None	1648.105203	None	1	0.538036865	1650.110497	None	1650.110497	None	1650.110497	None	1650.812354	None	1650.812354	1651.814999	1652.951341	None	1652.951341	None	left	0.473183592	1652.951341	None	1653.469372	1654.939921	None	None													117	1	19	0	2020_Feb_26_1201	Test	3.2.4	59.83990779		
Pictures/IA100_L80.bmp	Pictures/IA100_L80.bmp	Pictures/IA100.bmp	"Go all in!"""""	1	risk					3	0	3	0	0	4	4	11																															1654.956621	None	1656.978633	1658.499324	1658.482635	None	1659.986581	None	1	0.591926467	1662.008605	None	1662.008605	None	1662.008605	None	1662.693734	None	1662.693734	1663.696382	1664.799298	None	1664.799298	None	left	0.3132217	1664.799298	None	1665.150223	1666.787895	None	None													117	1	19	0	2020_Feb_26_1201	Test	3.2.4	59.83990779		
Pictures/IA50_G10.bmp	Pictures/IA50_G10.bmp	Pictures/IA50.bmp	"Go with the safe option here!"""""	0	safe					3	0	3	0	0	5	5	3																															1666.804595	None	1668.826605	1670.347292	1670.330596	None	1671.851268	None	1	0.567967199	1673.856565	None	1673.856565	None	1673.856565	None	1674.541718	None	1674.541718	1675.544364	1676.647284	None	1676.647284	None	left	0.281236008	1676.647284	None	1676.964789	1678.635863	None	None													117	1	19	0	2020_Feb_26_1201	Test	3.2.4	59.83990779		
Pictures/IA25_L5.bmp	Pictures/IA25_L5.bmp	Pictures/IA25.bmp	"It would be smarter to choose the safe option."""""	0	safe					3	0	3	0	0	6	6	12																															1678.652565	None	1680.674581	1682.195263	1682.178565	None	1683.699238	None	1	0.68796694	1685.704563	None	1685.704563	None	1685.704563	None	1686.540089	None	1686.540089	1687.542735	1688.645654	None	1688.645654	None	left	0.642865521	1688.645654	None	1689.330794	1690.634226	None	None													117	1	19	0	2020_Feb_26_1201	Test	3.2.4	59.83990779		
Pictures/IA75_L15.bmp	Pictures/IA75_L15.bmp	Pictures/IA75.bmp	"Trust me–gamble!"""""	1	risk					3	0	3	0	0	7	7	9																															1690.65095	None	1692.672961	1694.193644	1694.176928	None	1695.680909	None	1	1.025621689	1697.702908	None	1697.702908	None	1697.702908	None	1698.839253	None	1698.839253	1699.8419	1700.944816	None	1700.944816	None	left	1.48771134	1700.944816	None	1702.482212	None	None	None													117	1	19	0	2020_Feb_26_1201	Test	3.2.4	59.83990779		
Pictures/IA75_L45.bmp	Pictures/IA75_L45.bmp	Pictures/IA75.bmp	"Don't gamble for this one"	0	safe					3	0	3	0	0	8	8	15																															1702.966825	None	1704.98884	1706.509523	1706.49281	None	1708.063626	None	1	0.989764229	1710.018785	None	1710.018785	None	1710.018785	None	1711.155131	None	1711.155131	1712.157775	1713.260698	None	1713.260698	None	left	0.387832842	1713.260698	None	1713.69516	1715.265991	None	None													117	1	19	0	2020_Feb_26_1201	Test	3.2.4	59.83990779		
Pictures/IA80_40_G95p.bmp	Pictures/IA80_40_G95p.bmp	Pictures/IA80.bmp	"Think of the payoff"	1	risk					3	0	3	0	0	9	9	13																															1715.282697	None	1717.3047	1718.808672	1718.791978	None	1720.346082	None	1	0.625869437	1722.33466	None	1722.33466	None	1722.33466	None	1723.086659	None	1723.086659	1724.089302	1725.192222	None	1725.192222	None	left	0.480297194	1725.192222	None	1725.710255	1727.180808	None	None													117	1	19	0	2020_Feb_26_1201	Test	3.2.4	59.83990779		
Pictures/IA100_L40.bmp	Pictures/IA100_L40.bmp	Pictures/IA100.bmp	"Think of the payoff"	1	risk					3	0	3	0	0	10	10	6																															1727.197505	None	1729.219517	1730.740198	1730.723505	None	1732.244176	None	1	0.24704969	1734.249483	None	1734.249483	None	1734.249483	None	1734.56698	None	1734.56698	1735.569626	1736.689258	None	1736.689258	None	left	0.279262299	1736.689258	None	1737.006759	1738.67784	None	None													117	1	19	0	2020_Feb_26_1201	Test	3.2.4	59.83990779		
Pictures/IA80_40_L95p.bmp	Pictures/IA80_40_L95p.bmp	Pictures/IA80.bmp	"Let's stay with the certain option."""""	0	safe					3	0	3	0	0	11	11	0																															1738.694563	None	1740.716604	1742.23726	1742.220539	None	1743.724524	None	1	0.261991969	1745.74653	None	1745.74653	None	1745.74653	None	1746.130888	None	1746.130888	1747.133536	1748.236449	None	1748.236449	None	right	0.34807123	1748.236449	None	None	None	1748.620792	1750.225018													117	1	19	0	2020_Feb_26_1201	Test	3.2.4	59.83990779		
Pictures/IA50_L30.bmp	Pictures/IA50_L30.bmp	Pictures/IA50.bmp	"Take a leap"	1	risk					3	0	3	0	0	12	12	4																															1750.241743	None	1752.263754	1753.784438	1753.767716	None	1755.305124	None	1	2.122829973	1757.293706	None	1757.293706	None	1757.293706	None	1759.566386	None	1759.566386	1760.569032	1761.671958	None	1761.671958	None	left	0.376568662	1761.671958	None	1762.089717	1763.66053	None	None													117	1	19	0	2020_Feb_26_1201	Test	3.2.4	59.83990779		
Pictures/IA100_L60.bmp	Pictures/IA100_L60.bmp	Pictures/IA100.bmp	"You'd have a lot to lose"	0	safe					3	0	3	0	0	13	13	14																															1763.677246	None	1765.699256	1767.21994	1767.203218	None	1768.72392	None	1	0.895292678	1770.729222	None	1770.729222	None	1770.729222	None	1771.765273	None	1771.765273	1772.76792	1773.87084	None	1773.87084	None	left	0.761673883	1773.87084	None	1774.672967	1775.876145	None	None													117	1	19	0	2020_Feb_26_1201	Test	3.2.4	59.83990779		
Pictures/IA75_G60.bmp	Pictures/IA75_G60.bmp	Pictures/IA75.bmp	"Make it exciting"	1	risk					3	0	3	0	0	14	14	17																															1775.892845	None	1777.914859	1779.435539	1779.41885	None	1780.922804	None	1	0.703700104	1782.944828	None	1782.944828	None	1782.944828	None	1783.797082	None	1783.797082	1784.799724	1785.919357	None	1785.919357	None	left	0.265167415	1785.919357	None	1786.220134	1787.924651	None	None													117	1	19	0	2020_Feb_26_1201	Test	3.2.4	59.83990779		
Pictures/IA50_G20.bmp	Pictures/IA50_G20.bmp	Pictures/IA50.bmp	"Let's venture and take a risk!"""""	1	risk					3	0	3	0	0	15	15	7																															1787.941347	None	1789.96336	1791.484057	1791.467347	None	1792.971309	None	1	0.975201343	1794.993336	None	1794.993336	None	1794.993336	None	1796.096244	None	1796.096244	1797.098897	1798.201812	None	1798.201812	None	left	0.358709714	1798.201812	None	1798.602853	1800.207092	None	None													117	1	19	0	2020_Feb_26_1201	Test	3.2.4	59.83990779		
Pictures/IA25_L15.bmp	Pictures/IA25_L15.bmp	Pictures/IA25.bmp	"There's not much on the line here"	1	risk					3	0	3	0	0	16	16	19																															1800.223823	None	1802.24583	1803.766512	1803.749792	None	1805.287199	None	1	0.532753146	1807.275775	None	1807.275775	None	1807.275775	None	1807.960931	None	1807.960931	1808.963576	1810.099922	None	1810.099922	None	left	0.844597187	1810.099922	None	1810.985587	1812.093227	None	None													117	1	19	0	2020_Feb_26_1201	Test	3.2.4	59.83990779		
Pictures/IA40_20_L95p.bmp	Pictures/IA40_20_L95p.bmp	Pictures/IA40.bmp	"Trust me"	1	risk					3	0	3	0	0	17	17	8																															1812.126275	None	1814.143923	1815.664616	1815.64791	None	1817.168594	None	1	0.579358394	1819.157172	None	1819.157172	None	1819.157172	None	1819.842317	None	1819.842317	1820.844959	1821.947879	None	1821.947879	None	right	0.244643764	1821.947879	None	None	None	1822.231961	1823.936477													117	1	19	0	2020_Feb_26_1201	Test	3.2.4	59.83990779		
Pictures/IA20_10_L95p.bmp	Pictures/IA20_10_L95p.bmp	Pictures/IA20.bmp	"Don't be tempted to gamble."""""	0	safe					3	0	3	0	0	18	18	18																															1823.953174	None	1825.975186	1827.495871	1827.479183	None	1829.016558	None	1	0.635366336	1831.005164	None	1831.005164	None	1831.005164	None	1831.773857	None	1831.773857	1832.7765	1833.879423	None	1833.879423	None	right	0.337102997	1833.879423	None	None	None	1834.263766	1835.868005													117	1	19	0	2020_Feb_26_1201	Test	3.2.4	59.83990779		
Pictures/IA25_G10.bmp	Pictures/IA25_G10.bmp	Pictures/IA25.bmp	"What's life without a little risk?"""""	1	risk					3	0	3	0	0	19	19	5																															1835.884703	None	1837.90672	1839.427399	1839.41071	None	1840.948088	None	1	0.263836779	1842.936688	None	1842.936688	None	1842.936688	None	1843.321028	None	1843.321028	1844.323667	1845.426595	None	1845.426595	None	left	0.509927674	1845.426595	None	1845.978044	1847.415183	None	None													117	1	19	0	2020_Feb_26_1201	Test	3.2.4	59.83990779		
										3	0	3	0																																																																									1847.582282	None	return	4.434233055	1847.582282	None	117	1	19	0	2020_Feb_26_1201	Test	3.2.4	59.83990779		
Pictures/IA50_L40.bmp	Pictures/IA50_L40.bmp	Pictures/IA50.bmp	"That gamble doesn't sound too good"	0	safe					4	0	4	0	0	0	0	19													1852.177773	None	1852.177773	None	1852.177773	None	left	4.046744189	1852.177773	None	1852.177773	None	1852.177773	None	return	4.9985319	1852.177773	None	1857.24114	None	1859.246449	1860.767134	1860.750415	None	1862.271112	None	1	0.508830039	1864.2597	None	1864.2597	None	1864.2597	None	1864.92813	None	1864.92813	1865.930773	1867.067119	None	1867.067119	None	left	0.30140144	1867.067119	None	1867.418043	1869.072417	None	None													117	1	19	0	2020_Feb_26_1201	Test	3.2.4	59.83990779		
Pictures/IA100_L80.bmp	Pictures/IA100_L80.bmp	Pictures/IA100.bmp	"Go all in!"""""	1	risk					4	0	4	0	0	1	1	1																															1869.089112	None	1871.111125	1872.631806	1872.615108	None	1874.152495	None	1	0.659430936	1876.141101	None	1876.141101	None	1876.141101	None	1876.89307	None	1876.89307	1877.895716	1878.998685	None	1878.998685	None	left	0.305833664	1878.998685	None	1879.349558	1880.98723	None	None													117	1	19	0	2020_Feb_26_1201	Test	3.2.4	59.83990779		
Pictures/IA75_L30.bmp	Pictures/IA75_L30.bmp	Pictures/IA75.bmp	"Hold back"	0	safe					4	0	4	0	0	2	2	17																															1881.003936	None	1883.025946	1884.546626	1884.529936	None	1886.03389	None	1	0.368614523	1888.055917	None	1888.055917	None	1888.055917	None	1888.57395	None	1888.57395	1889.576596	1890.712936	None	1890.712936	None	left	0.279585671	1890.712936	None	1891.030438	1892.70152	None	None													117	1	19	0	2020_Feb_26_1201	Test	3.2.4	59.83990779		
Pictures/IA110_55_G95p.bmp	Pictures/IA110_55_G95p.bmp	Pictures/IA110.bmp	"Take a chance!"""""	1	risk					4	0	4	0	0	3	3	10																															1892.71822	None	1894.74023	1896.260916	1896.244222	None	1897.781604	None	1	1.502329172	1899.770209	None	1899.770209	None	1899.770209	None	1901.357718	None	1901.357718	1902.360363	1903.463284	None	1903.463284	None	left	0.313239245	1903.463284	None	1903.814208	1905.451878	None	None													117	1	19	0	2020_Feb_26_1201	Test	3.2.4	59.83990779		
Pictures/IA75_G30.bmp	Pictures/IA75_G30.bmp	Pictures/IA75.bmp	"Be bold"	1	risk					4	0	4	0	0	4	4	16																															1905.468579	None	1907.490598	1909.011275	1908.994581	None	1910.531961	None	1	0.295944861	1912.520581	None	1912.520581	None	1912.520581	None	1912.921611	None	1912.921611	1913.924255	1915.027177	None	1915.027177	None	left	0.405346666	1915.027177	None	1915.478363	1917.015761	None	None													117	1	19	0	2020_Feb_26_1201	Test	3.2.4	59.83990779		
Pictures/IA100_G40.bmp	Pictures/IA100_G40.bmp	Pictures/IA100.bmp	"Try your luck and gamble!"""""	1	risk					4	0	4	0	0	5	5	2																															1917.032482	None	1919.054494	1920.575181	1920.558457	None	1922.095863	None	1	1.100089619	1924.084444	None	1924.084444	None	1924.084444	None	1925.287634	None	1925.287634	1926.290277	1927.393198	None	1927.393198	None	left	0.719322907	1927.393198	None	1928.161881	1929.398485	None	None													117	1	19	0	2020_Feb_26_1201	Test	3.2.4	59.83990779		
Pictures/IA100_L40.bmp	Pictures/IA100_L40.bmp	Pictures/IA100.bmp	"Think of the payoff"	1	risk					4	0	4	0	0	6	6	9																															1929.415205	None	1931.437216	1932.957903	1932.94118	None	1934.445165	None	1	0.725369547	1936.467165	None	1936.467165	None	1936.467165	None	1937.319429	None	1937.319429	1938.322076	1939.425009	None	1939.425009	None	left	0.74351216	1939.425009	None	1940.210399	1941.413577	None	None													117	1	19	0	2020_Feb_26_1201	Test	3.2.4	59.83990779		
Pictures/IA50_L20.bmp	Pictures/IA50_L20.bmp	Pictures/IA50.bmp	"Certainty is boring"	1	risk					4	0	4	0	0	7	7	7																															1941.43028	None	1943.452292	1944.97297	1944.956281	None	1946.476946	None	1	0.830254495	1948.482265	None	1948.482265	None	1948.482265	None	1949.418064	None	1949.418064	1950.420711	1951.523632	None	1951.523632	None	left	0.37289315	1951.523632	None	1951.941398	1953.512206	None	None													117	1	19	0	2020_Feb_26_1201	Test	3.2.4	59.83990779		
Pictures/IA75_G15.bmp	Pictures/IA75_G15.bmp	Pictures/IA75.bmp	"Take a chance!"""""	1	risk					4	0	4	0	0	8	8	11																															1953.528926	None	1955.550942	1957.054897	1957.038201	None	1958.575596	None	1	0.555646167	1960.580898	None	1960.580898	None	1960.580898	None	1961.232611	None	1961.232611	1962.235257	1963.338177	None	1963.338177	None	left	0.302341712	1963.338177	None	1963.689097	1965.326768	None	None													117	1	19	0	2020_Feb_26_1201	Test	3.2.4	59.83990779		
Pictures/IA50_G10.bmp	Pictures/IA50_G10.bmp	Pictures/IA50.bmp	"Go with the safe option here!"""""	0	safe					4	0	4	0	0	9	9	14																															1965.343466	None	1967.365478	1968.886162	1968.869468	None	1970.373429	None	1	1.005077271	1972.395451	None	1972.395451	None	1972.395451	None	1973.531791	None	1973.531791	1974.584619	1975.654055	None	1975.654055	None	right	1.842473595	1975.654055	None	None	None	1977.54237	None													117	1	19	0	2020_Feb_26_1201	Test	3.2.4	59.83990779		
Pictures/IA25_L10.bmp	Pictures/IA25_L10.bmp	Pictures/IA25.bmp	"Dont be afraid to take the risk!"""""	1	risk					4	0	4	0	0	10	10	8																															1977.65935	None	1979.681358	1981.202041	1981.185346	None	1982.722729	None	1	0.929216028	1984.711329	None	1984.711329	None	1984.711329	None	1985.764103	None	1985.764103	1986.766748	1987.869663	None	1987.869663	None	left	0.78684976	1987.869663	None	1988.705216	1989.874977	None	None													117	1	19	0	2020_Feb_26_1201	Test	3.2.4	59.83990779		
Pictures/IA75_L45.bmp	Pictures/IA75_L45.bmp	Pictures/IA75.bmp	"Don't gamble for this one"	0	safe					4	0	4	0	0	11	11	6																															1989.891671	None	1991.913682	1993.43436	1993.417671	None	1994.92163	None	1	0.872883286	1996.943654	None	1996.943654	None	1996.943654	None	1997.963014	None	1997.963014	1998.965658	2000.06858	None	2000.06858	None	left	0.259939902	2000.06858	None	2000.369361	2002.073873	None	None													117	1	19	0	2020_Feb_26_1201	Test	3.2.4	59.83990779		
Pictures/IA25_G20.bmp	Pictures/IA25_G20.bmp	Pictures/IA25.bmp	"I wouldn't gamble for this one. """""	0	safe					4	0	4	0	0	12	12	5																															2002.090573	None	2004.112589	2005.633268	2005.616592	None	2007.153956	None	1	0.569979653	2009.142558	None	2009.142558	None	2009.142558	None	2009.844413	None	2009.844413	2010.84706	2011.983402	None	2011.983402	None	left	0.249114788	2011.983402	None	2012.267478	2013.971969	None	None													117	1	19	0	2020_Feb_26_1201	Test	3.2.4	59.83990779		
Pictures/IA50_L30.bmp	Pictures/IA50_L30.bmp	Pictures/IA50.bmp	"Take a leap"	1	risk					4	0	4	0	0	13	13	13																															2013.988693	None	2016.010706	2017.531392	2017.514672	None	2019.052076	None	1	0.607878977	2021.040655	None	2021.040655	None	2021.040655	None	2021.792605	None	2021.792605	2022.795288	2023.898208	None	2023.898208	None	left	0.806316658	2023.898208	None	2024.750452	2025.886787	None	None													117	1	19	0	2020_Feb_26_1201	Test	3.2.4	59.83990779		
Pictures/IA50_L10.bmp	Pictures/IA50_L10.bmp	Pictures/IA50.bmp	"Play it safe"	0	safe					4	0	4	0	0	14	14	4																															2025.903515	None	2027.925525	2029.446208	2029.429487	None	2031.000317	None	1	0.581046932	2032.955474	None	2032.955474	None	2032.955474	None	2033.657331	None	2033.657331	2034.659971	2035.762893	None	2035.762893	None	left	0.245628916	2035.762893	None	2036.046973	2037.75149	None	None													117	1	19	0	2020_Feb_26_1201	Test	3.2.4	59.83990779		
Pictures/IA25_G15.bmp	Pictures/IA25_G15.bmp	Pictures/IA25.bmp	"I think you should take a gamble."""""	1	risk					4	0	4	0	0	15	15	15																															2037.768187	None	2039.790201	2041.310882	2041.29419	None	2042.83157	None	1	0.604362397	2044.820171	None	2044.820171	None	2044.820171	None	2045.555411	None	2045.555411	2046.558093	2047.661013	None	2047.661013	None	left	0.235502306	2047.661013	None	2047.945094	2049.666306	None	None													117	1	19	0	2020_Feb_26_1201	Test	3.2.4	59.83990779		
Pictures/IA100_L60.bmp	Pictures/IA100_L60.bmp	Pictures/IA100.bmp	"You'd have a lot to lose"	0	safe					4	0	4	0	0	16	16	0																															2049.683005	None	2051.705017	2053.2257	2053.209008	None	2054.746391	None	1	1.553531291	2056.734991	None	2056.734991	None	2056.734991	None	2058.422783	None	2058.422783	2059.42543	2060.545061	None	2060.545061	None	left	0.711484834	2060.545061	None	2061.29708	2062.533635	None	None													117	1	19	0	2020_Feb_26_1201	Test	3.2.4	59.83990779		
Pictures/IA110_55_L95p.bmp	Pictures/IA110_55_L95p.bmp	Pictures/IA110.bmp	"Trust me"	1	risk					4	0	4	0	0	17	17	18																															2062.550355	None	2064.572371	2066.093062	2066.07633	None	2067.613736	None	1	0.71821484	2069.602314	None	2069.602314	None	2069.602314	None	2070.421145	None	2070.421145	2071.423789	2072.52671	None	2072.52671	None	right	0.369812524	2072.52671	None	None	None	2072.944475	2074.515307													117	1	19	0	2020_Feb_26_1201	Test	3.2.4	59.83990779		
Pictures/IA25_G5.bmp	Pictures/IA25_G5.bmp	Pictures/IA25.bmp	"Let's stay with the certain option."""""	0	safe					4	0	4	0	0	18	18	12																															2074.532008	None	2076.554019	2078.074701	2078.058006	None	2079.628809	None	1	0.920539572	2081.583989	None	2081.583989	None	2081.583989	None	2082.63678	None	2082.63678	2083.639402	2084.759038	None	2084.759038	None	right	0.793494701	2084.759038	None	None	None	2085.594587	2086.76433													117	1	19	0	2020_Feb_26_1201	Test	3.2.4	59.83990779		
Pictures/IA75_L15.bmp	Pictures/IA75_L15.bmp	Pictures/IA75.bmp	"Trust me–gamble!"""""	1	risk					4	0	4	0	0	19	19	3																															2086.781057	None	2088.803066	2090.323748	2090.307027	None	2091.827724	None	1	0.623504846	2093.833025	None	2093.833025	None	2093.833025	None	2094.568288	None	2094.568288	2095.570934	2096.707274	None	2096.707274	None	left	1.245253281	2096.707274	None	2097.994005	None	None	None													117	1	19	0	2020_Feb_26_1201	Test	3.2.4	59.83990779		
										4	0	4	0																																																																									2098.796128	None	return	5.548395184	2098.796128	None	117	1	19	0	2020_Feb_26_1201	Test	3.2.4	59.83990779		
Pictures/IA75_L15.bmp	Pictures/IA75_L15.bmp	Pictures/IA75.bmp	"Trust me–gamble!"""""	1	risk					5	0	5	0	0	0	0	5													2104.511233	None	2104.511233	None	2104.511233	None	right	1.769294067	2104.511233	None	2104.511233	None	2104.511233	None	return	2.441096553	2104.511233	None	2107.001144	None	2109.006452	2110.527135	2110.510417	None	2112.014403	None	1	1.284131906	2114.036405	None	2114.036405	None	2114.036405	None	2115.40669	None	2115.40669	2116.409328	2117.512252	None	2117.512252	None	None		2117.512252	None	None	None	None	None													117	1	19	0	2020_Feb_26_1201	Test	3.2.4	59.83990779		
Pictures/IA75_G60.bmp	Pictures/IA75_G60.bmp	Pictures/IA75.bmp	"Make it exciting"	1	risk					5	0	5	0	0	1	1	12																															2119.51755	None	2121.53956	2123.060243	2123.043547	None	2124.580935	None	1	0.790988872	2126.56954	None	2126.56954	None	2126.56954	None	2127.488634	None	2127.488634	2128.491273	2129.610891	None	2129.610891	None	left	0.293628397	2129.610891	None	2129.945118	2131.616199	None	None													117	1	19	0	2020_Feb_26_1201	Test	3.2.4	59.83990779		
Pictures/IA100_G80.bmp	Pictures/IA100_G80.bmp	Pictures/IA100.bmp	"Why not gamble?"""""	1	risk					5	0	5	0	0	2	2	13																															2131.632897	None	2133.654909	2135.175593	2135.158898	None	2136.696279	None	1	0.507649707	2138.684882	None	2138.684882	None	2138.684882	None	2139.28647	None	2139.28647	2140.289129	2141.392037	None	2141.392037	None	left	0.416475206	2141.392037	None	2141.843228	2143.38062	None	None													117	1	19	0	2020_Feb_26_1201	Test	3.2.4	59.83990779		
Pictures/IA25_L20.bmp	Pictures/IA25_L20.bmp	Pictures/IA25.bmp	"Don't be tempted to gamble."""""	0	safe					5	0	5	0	0	3	3	15																															2143.397318	None	2145.419331	2146.940014	2146.923321	None	2148.460703	None	1	0.839245357	2150.449305	None	2150.449305	None	2150.449305	None	2151.418529	None	2151.418529	2152.421175	2153.524099	None	2153.524099	None	right	0.308423718	2153.524099	None	None	None	2153.875018	2155.512671													117	1	19	0	2020_Feb_26_1201	Test	3.2.4	59.83990779		
Pictures/IA100_G40.bmp	Pictures/IA100_G40.bmp	Pictures/IA100.bmp	"Try your luck and gamble!"""""	1	risk					5	0	5	0	0	4	4	14																															2155.529391	None	2157.551401	2159.072086	2159.055368	None	2160.559353	None	1	0.531176614	2162.581353	None	2162.581353	None	2162.581353	None	2163.233094	None	2163.233094	2164.235732	2165.338656	None	2165.338656	None	left	0.261864495	2165.338656	None	2165.639395	2167.343948	None	None													117	1	19	0	2020_Feb_26_1201	Test	3.2.4	59.83990779		
Pictures/IA75_L45.bmp	Pictures/IA75_L45.bmp	Pictures/IA75.bmp	"Don't gamble for this one"	0	safe					5	0	5	0	0	5	5	11																															2167.360644	None	2169.382657	2170.903338	2170.886644	None	2172.424027	None	1	0.659911714	2174.412629	None	2174.412629	None	2174.412629	None	2175.214734	None	2175.214734	2176.217384	2177.337017	None	2177.337017	None	left	0.719507872	2177.337017	None	2177.821622	2179.325595	None	None													117	1	19	0	2020_Feb_26_1201	Test	3.2.4	59.83990779		
Pictures/IA25_G10.bmp	Pictures/IA25_G10.bmp	Pictures/IA25.bmp	"What's life without a little risk?"""""	1	risk					5	0	5	0	0	6	6	10																															2179.342318	None	2181.364332	2182.885013	2182.868295	None	2184.422412	None	1	0.590237188	2186.394293	None	2186.394293	None	2186.394293	None	2187.112846	None	2187.112846	2188.115489	2189.21841	None	2189.21841	None	left	0.478103811	2189.21841	None	2189.736443	2191.206995	None	None													117	1	19	0	2020_Feb_26_1201	Test	3.2.4	59.83990779		
Pictures/IA110_55_G95p.bmp	Pictures/IA110_55_G95p.bmp	Pictures/IA110.bmp	"Take a chance!"""""	1	risk					5	0	5	0	0	7	7	4																															2191.223718	None	2193.245732	2194.766412	2194.749694	None	2196.253681	None	1	1.412850965	2198.275678	None	2198.275678	None	2198.275678	None	2199.779651	None	2199.779651	2200.782295	2201.918637	None	2201.918637	None	left	0.817876119	2201.918637	None	2202.77089	2203.907219	None	None													117	1	19	0	2020_Feb_26_1201	Test	3.2.4	59.83990779		
Pictures/IA50_L30.bmp	Pictures/IA50_L30.bmp	Pictures/IA50.bmp	"Take a leap"	1	risk					5	0	5	0	0	8	8	7																															2203.923947	None	2205.945955	2207.466641	2207.44992	None	2208.953904	None	1	1.936620837	2210.975908	None	2210.975908	None	2210.975908	None	2213.048057	None	2213.048057	2214.050713	2215.170336	None	2215.170336	None	left	1.806177829	2215.170336	None	2217.025236	None	None	None													117	1	19	0	2020_Feb_26_1201	Test	3.2.4	59.83990779		
Pictures/IA40_20_L95p.bmp	Pictures/IA40_20_L95p.bmp	Pictures/IA40.bmp	"Trust me"	1	risk					5	0	5	0	0	9	9	19																															2217.175619	None	2219.197627	2220.718314	2220.701581	None	2222.238999	None	1	1.756932577	2224.227603	None	2224.227603	None	2224.227603	None	2226.099201	None	2226.099201	2227.101846	2228.204767	None	2228.204767	None	right	0.283747127	2228.204767	None	None	None	2228.522269	2230.193352													117	1	19	0	2020_Feb_26_1201	Test	3.2.4	59.83990779		
Pictures/IA75_L30.bmp	Pictures/IA75_L30.bmp	Pictures/IA75.bmp	"Hold back"	0	safe					5	0	5	0	0	10	10	18																															2230.210077	None	2232.232084	2233.752769	2233.736053	None	2235.273454	None	1	0.922500938	2237.262034	None	2237.262034	None	2237.262034	None	2238.331537	None	2238.331537	2239.334184	2240.437104	None	2240.437104	None	left	0.307419376	2240.437104	None	2240.788028	2242.442397	None	None													117	1	19	0	2020_Feb_26_1201	Test	3.2.4	59.83990779		
Pictures/IA25_G15.bmp	Pictures/IA25_G15.bmp	Pictures/IA25.bmp	"I think you should take a gamble."""""	1	risk					5	0	5	0	0	11	11	2																															2242.459097	None	2244.481123	2246.001794	2245.985102	None	2247.489067	None	2	0.761442491	2249.511084	None	2249.511084	None	2249.511084	None	None	None	None	None	2250.480311	None	2250.480311	None	left	0.488208505	2250.480311	None	2251.015055	2252.468892	None	None													117	1	19	0	2020_Feb_26_1201	Test	3.2.4	59.83990779		
Pictures/IA80_40_L95p.bmp	Pictures/IA80_40_L95p.bmp	Pictures/IA80.bmp	"Let's stay with the certain option."""""	0	safe					5	0	5	0	0	12	12	3																															2252.485607	None	2254.50761	2256.028288	2256.0116	None	2257.548976	None	1	1.766944661	2259.537578	None	2259.537578	None	2259.537578	None	2261.442601	None	2261.442601	2262.445247	2263.548168	None	2263.548168	None	right	0.300352419	2263.548168	None	None	None	2263.882389	2265.553474													117	1	19	0	2020_Feb_26_1201	Test	3.2.4	59.83990779		
Pictures/IA25_L5.bmp	Pictures/IA25_L5.bmp	Pictures/IA25.bmp	"It would be smarter to choose the safe option."""""	0	safe					5	0	5	0	0	13	13	6																															2265.57017	None	2267.592183	2269.112865	2269.09617	None	2270.633557	None	1	0.60237024	2272.622154	None	2272.622154	None	2272.622154	None	2273.374146	None	2273.374146	2274.376787	2275.496412	None	2275.496412	None	left	0.352100656	2275.496412	None	2275.897475	2277.501726	None	None													117	1	19	0	2020_Feb_26_1201	Test	3.2.4	59.83990779		
Pictures/IA50_L10.bmp	Pictures/IA50_L10.bmp	Pictures/IA50.bmp	"Play it safe"	0	safe					5	0	5	0	0	14	14	9																															2277.518414	None	2279.540423	2281.044411	2281.027688	None	2282.548377	None	2	0.646127343	2284.570395	None	2284.570395	None	2284.570395	None	None	None	None	None	2285.372515	None	2285.372515	None	left	1.020005411	2285.372515	None	2286.441993	None	None	None													117	1	19	0	2020_Feb_26_1201	Test	3.2.4	59.83990779		
Pictures/IA75_G30.bmp	Pictures/IA75_G30.bmp	Pictures/IA75.bmp	"Be bold"	1	risk					5	0	5	0	0	15	15	8																															2287.394521	None	2289.41656	2290.937219	2290.920497	None	2292.457903	None	2	0.882046757	2294.446482	None	2294.446482	None	2294.446482	None	None	None	None	None	2295.482566	None	2295.482566	None	left	0.501955733	2295.482566	None	2296.034008	2297.471148	None	None													117	1	19	0	2020_Feb_26_1201	Test	3.2.4	59.83990779		
Pictures/IA25_L10.bmp	Pictures/IA25_L10.bmp	Pictures/IA25.bmp	"Dont be afraid to take the risk!"""""	1	risk					5	0	5	0	0	16	16	0																															2297.487862	None	2299.509864	2301.030545	2301.013849	None	2302.534523	None	2	0.93270995	2304.539824	None	2304.539824	None	2304.539824	None	None	None	None	None	2305.626036	None	2305.626036	None	left	0.262487802	2305.626036	None	2305.926815	2307.631331	None	None													117	1	19	0	2020_Feb_26_1201	Test	3.2.4	59.83990779		
Pictures/IA100_L40.bmp	Pictures/IA100_L40.bmp	Pictures/IA100.bmp	"Think of the payoff"	1	risk					5	0	5	0	0	17	17	17																															2307.648034	None	2309.670044	2311.190726	2311.174033	None	2312.711412	None	2	0.82050838	2314.700015	None	2314.700015	None	2314.700015	None	None	None	None	None	2315.702659	None	2315.702659	None	left	0.353867253	2315.702659	None	2316.103719	2317.707959	None	None													117	1	19	0	2020_Feb_26_1201	Test	3.2.4	59.83990779		
Pictures/IA50_L20.bmp	Pictures/IA50_L20.bmp	Pictures/IA50.bmp	"Certainty is boring"	1	risk					5	0	5	0	0	18	18	16																															2317.724657	None	2319.746669	2321.267353	2321.25066	None	2322.788041	None	2	0.311870054	2324.776655	None	2324.776655	None	2324.776655	None	None	None	None	None	2325.244546	None	2325.244546	None	left	0.019989564	2325.244546	None	2325.311372	2327.249826	None	None													117	1	19	0	2020_Feb_26_1201	Test	3.2.4	59.83990779		
Pictures/IA110_55_L95p.bmp	Pictures/IA110_55_L95p.bmp	Pictures/IA110.bmp	"Trust me"	1	risk					5	0	5	0	0	19	19	1																															2327.266552	None	2329.288588	2330.809248	2330.792495	None	2332.296517	None	1	0.362009423	2334.318513	None	2334.318513	None	2334.318513	None	2334.769716	None	2334.769716	2335.772361	2336.891993	None	2336.891993	None	right	0.228527566	2336.891993	None	None	None	2337.15935	2338.897277													117	1	19	0	2020_Feb_26_1201	Test	3.2.4	59.83990779		
										5	0	5	0																																																																									2339.0644	None	return	4.328120131	2339.0644	None	117	1	19	0	2020_Feb_26_1201	Test	3.2.4	59.83990779		
Pictures/IA20_10_G95p.bmp	Pictures/IA20_10_G95p.bmp	Pictures/IA20.bmp	"Take a leap"	1	risk					6	0	6	0	0	0	0	7													2343.542902	None	2343.542902	None	2343.542902	None	right	1.977627739	2343.542902	None	2343.542902	None	2343.542902	None	return	2.281432759	2343.542902	None	2345.882412	None	2347.8877	2349.408386	2349.39169	None	2350.912372	None	1	1.779581747	2352.90095	None	2352.90095	None	2352.90095	None	2354.822692	None	2354.822692	2355.825304	2356.928261	None	2356.928261	None	left	0.304258999	2356.928261	None	2357.279183	2358.933556	None	None													117	1	19	0	2020_Feb_26_1201	Test	3.2.4	59.83990779		
Pictures/IA100_G80.bmp	Pictures/IA100_G80.bmp	Pictures/IA100.bmp	"Why not gamble?"""""	1	risk					6	0	6	0	0	1	1	10																															2358.950283	None	2360.972291	2362.492984	2362.476256	None	2363.996948	None	1	0.430273753	2366.002255	None	2366.002255	None	2366.002255	None	2366.520272	None	2366.520272	2367.522919	2368.642551	None	2368.642551	None	right	0.245967805	2368.642551	None	None	None	2368.926629	2370.631147													117	1	19	0	2020_Feb_26_1201	Test	3.2.4	59.83990779		
Pictures/IA75_G30.bmp	Pictures/IA75_G30.bmp	Pictures/IA75.bmp	"Be bold"	1	risk					6	0	6	0	0	2	2	0																															2370.647845	None	2372.669854	2374.190544	2374.173844	None	2375.711224	None	2	0.484683877	2377.699834	None	2377.699834	None	2377.699834	None	None	None	None	None	2378.351538	None	2378.351538	None	left	0.36897881	2378.351538	None	2378.769312	2380.340131	None	None													117	1	19	0	2020_Feb_26_1201	Test	3.2.4	59.83990779		
Pictures/IA110_55_L95p.bmp	Pictures/IA110_55_L95p.bmp	Pictures/IA110.bmp	"Trust me"	1	risk					6	0	6	0	0	3	3	11																															2380.356834	None	2382.378848	2383.89953	2383.882833	None	2385.420216	None	1	0.471709037	2387.408825	None	2387.408825	None	2387.408825	None	2387.976986	None	2387.976986	2388.979631	2390.082553	None	2390.082553	None	right	0.269970762	2390.082553	None	None	None	2390.400052	2392.071134													117	1	19	0	2020_Feb_26_1201	Test	3.2.4	59.83990779		
Pictures/IA100_L40.bmp	Pictures/IA100_L40.bmp	Pictures/IA100.bmp	"Think of the payoff"	1	risk					6	0	6	0	0	4	4	5																															2392.087834	None	2394.109845	2395.630528	2395.613851	None	2397.117793	None	1	1.044709344	2399.13982	None	2399.13982	None	2399.13982	None	2400.309575	None	2400.309575	2401.31222	2402.415141	None	2402.415141	None	left	0.313377456	2402.415141	None	2402.766064	2404.403709	None	None													117	1	19	0	2020_Feb_26_1201	Test	3.2.4	59.83990779		
Pictures/IA100_G20.bmp	Pictures/IA100_G20.bmp	Pictures/IA100.bmp	"Go ahead and gamble!"""""	1	risk					6	0	6	0	0	5	5	6																															2404.420435	None	2406.442447	2407.963137	2407.946411	None	2409.467113	None	1	1.240123739	2411.472408	None	2411.472408	None	2411.472408	None	2412.809273	None	2412.809273	2413.811919	2414.914842	None	2414.914842	None	left	0.517679027	2414.914842	None	2415.466293	2416.903409	None	None													117	1	19	0	2020_Feb_26_1201	Test	3.2.4	59.83990779		
Pictures/IA75_L30.bmp	Pictures/IA75_L30.bmp	Pictures/IA75.bmp	"Hold back"	0	safe					6	0	6	0	0	6	6	17																															2416.920134	None	2418.942148	2420.462829	2420.446109	None	2421.950094	None	2	1.34043908	2423.972094	None	2423.972094	None	2423.972094	None	None	None	None	None	2425.526201	None	2425.526201	None	left	0.754326534	2425.526201	None	2426.328334	2427.53151	None	None													117	1	19	0	2020_Feb_26_1201	Test	3.2.4	59.83990779		
Pictures/IA25_L10.bmp	Pictures/IA25_L10.bmp	Pictures/IA25.bmp	"Dont be afraid to take the risk!"""""	1	risk					6	0	6	0	0	7	7	13																															2427.548207	None	2429.570218	2431.090901	2431.074211	None	2432.578165	None	2	0.320342508	2434.600191	None	2434.600191	None	2434.600191	None	None	None	None	None	2435.101502	None	2435.101502	None	left	0.003029929	2435.101502	None	2435.151632	2437.090088	None	None													117	1	19	0	2020_Feb_26_1201	Test	3.2.4	59.83990779		
Pictures/IA40_20_L95p.bmp	Pictures/IA40_20_L95p.bmp	Pictures/IA40.bmp	"Trust me"	1	risk					6	0	6	0	0	8	8	16																															2437.106811	None	2439.128824	2440.649504	2440.632785	None	2442.136771	None	1	0.961758824	2444.158771	None	2444.158771	None	2444.158771	None	2445.211526	None	2445.211526	2446.214209	2447.317138	None	2447.317138	None	right	0.283370259	2447.317138	None	None	None	2447.634632	2449.305711													117	1	19	0	2020_Feb_26_1201	Test	3.2.4	59.83990779		
Pictures/IA100_L20.bmp	Pictures/IA100_L20.bmp	Pictures/IA100.bmp	"Try to win as much money as you can"	1	risk					6	0	6	0	0	9	9	4																															2449.322419	None	2451.344424	2452.848408	2452.831688	None	2454.369084	None	2	1.698149068	2456.374383	None	2456.374383	None	2456.374383	None	None	None	None	None	2458.279431	None	2458.279431	None	left	0.617091436	2458.279431	None	2458.931148	2460.268013	None	None													117	1	19	0	2020_Feb_26_1201	Test	3.2.4	59.83990779		
Pictures/IA25_L15.bmp	Pictures/IA25_L15.bmp	Pictures/IA25.bmp	"There's not much on the line here"	1	risk					6	0	6	0	0	10	10	15																															2460.284713	None	2462.306727	2463.827409	2463.810714	None	2465.331385	None	2	1.23984765	2467.336686	None	2467.336686	None	2467.336686	None	None	None	None	None	2468.757119	None	2468.757119	None	left	0.235391996	2468.757119	None	2469.041188	2470.7457	None	None													117	1	19	0	2020_Feb_26_1201	Test	3.2.4	59.83990779		
Pictures/IA25_G15.bmp	Pictures/IA25_G15.bmp	Pictures/IA25.bmp	"I think you should take a gamble."""""	1	risk					6	0	6	0	0	11	11	2																															2470.7624	None	2472.784412	2474.305095	2474.288401	None	2475.809071	None	2	0.530160419	2477.814371	None	2477.814371	None	2477.814371	None	None	None	None	None	2478.516243	None	2478.516243	None	left	0.028281155	2478.516243	None	2478.583068	2480.504826	None	None													117	1	19	0	2020_Feb_26_1201	Test	3.2.4	59.83990779		
Pictures/IA100_L80.bmp	Pictures/IA100_L80.bmp	Pictures/IA100.bmp	"Go all in!"""""	1	risk					6	0	6	0	0	12	12	14																															2480.521535	None	2482.543547	2484.064229	2484.04751	None	2485.56821	None	2	1.10702284	2487.573511	None	2487.573511	None	2487.573511	None	None	None	None	None	2488.860239	None	2488.860239	None	left	0.748285754	2488.860239	None	2489.645647	2490.848826	None	None													117	1	19	0	2020_Feb_26_1201	Test	3.2.4	59.83990779		
Pictures/IA100_G40.bmp	Pictures/IA100_G40.bmp	Pictures/IA100.bmp	"Try your luck and gamble!"""""	1	risk					6	0	6	0	0	13	13	12																															2490.865524	None	2492.887539	2494.408217	2494.391528	None	2495.912194	None	2	0.299034795	2497.917496	None	2497.917496	None	2497.917496	None	None	None	None	None	2498.368703	None	2498.368703	None	left	0.047823817	2498.368703	None	2498.452267	2500.373999	None	None													117	1	19	0	2020_Feb_26_1201	Test	3.2.4	59.83990779		
Pictures/IA80_40_G95p.bmp	Pictures/IA80_40_G95p.bmp	Pictures/IA80.bmp	"Think of the payoff"	1	risk					6	0	6	0	0	14	14	3																															2500.390696	None	2502.412706	2503.933388	2503.916695	None	2505.437366	None	2	0.325878366	2507.442666	None	2507.442666	None	2507.442666	None	None	None	None	None	2507.944004	None	2507.944004	None	left	0.312517714	2507.944004	None	2508.294926	2509.932574	None	None													117	1	19	0	2020_Feb_26_1201	Test	3.2.4	59.83990779		
Pictures/IA50_G30.bmp	Pictures/IA50_G30.bmp	Pictures/IA50.bmp	"I think you should gamble."""""	1	risk					6	0	6	0	0	15	15	8																															2509.949299	None	2511.971314	2513.492005	2513.475278	None	2514.995976	None	2	1.615253576	2517.001276	None	2517.001276	None	2517.001276	None	None	None	None	None	2518.772583	None	2518.772583	None	left	0.043931947	2518.772583	None	2518.856168	2520.76119	None	None													117	1	19	0	2020_Feb_26_1201	Test	3.2.4	59.83990779		
Pictures/IA50_L10.bmp	Pictures/IA50_L10.bmp	Pictures/IA50.bmp	"Play it safe"	0	safe					6	0	6	0	0	16	16	1																															2520.777912	None	2522.799924	2524.320622	2524.303889	None	2525.824586	None	1	0.89064296	2527.829886	None	2527.829886	None	2527.829886	None	2528.849233	None	2528.849233	2529.851883	2530.954798	None	2530.954798	None	left	0.25372425	2530.954798	None	2531.255601	2532.960094	None	None													117	1	19	0	2020_Feb_26_1201	Test	3.2.4	59.83990779		
Pictures/IA25_L20.bmp	Pictures/IA25_L20.bmp	Pictures/IA25.bmp	"Don't be tempted to gamble."""""	0	safe					6	0	6	0	0	17	17	19																															2532.976815	None	2534.998831	2536.519514	2536.502793	None	2538.023486	None	2	1.459760217	2540.028788	None	2540.028788	None	2540.028788	None	None	None	None	None	2541.649728	None	2541.649728	None	left	0.27079701	2541.649728	None	2541.967226	2543.638312	None	None													117	1	19	0	2020_Feb_26_1201	Test	3.2.4	59.83990779		
Pictures/IA75_G60.bmp	Pictures/IA75_G60.bmp	Pictures/IA75.bmp	"Make it exciting"	1	risk					6	0	6	0	0	18	18	9																															2543.655033	None	2545.677043	2547.197726	2547.181009	None	2548.701707	None	1	0.877528842	2550.707005	None	2550.707005	None	2550.707005	None	2551.726365	None	2551.726365	2552.729008	2553.831932	None	2553.831932	None	right	1.936587402	2553.831932	None	None	None	2555.80379	None													117	1	19	0	2020_Feb_26_1201	Test	3.2.4	59.83990779		
Pictures/IA75_G15.bmp	Pictures/IA75_G15.bmp	Pictures/IA75.bmp	"Take a chance!"""""	1	risk					6	0	6	0	0	19	19	18																															2555.853924	None	2557.875934	2559.396618	2559.379923	None	2560.900594	None	1	1.430602137	2562.905921	None	2562.905921	None	2562.905921	None	2564.426588	None	2564.426588	2565.429263	2566.615695	None	2566.615695	None	left	0.224832018	2566.615695	None	2566.883061	2568.604266	None	None													117	1	19	0	2020_Feb_26_1201	Test	3.2.4	59.83990779		
										6	0	6	0																																																																									2568.778583	None	return	5.101942789	2568.778583	None	117	1	19	0	2020_Feb_26_1201	Test	3.2.4	59.83990779		
Pictures/IA110_55_L95p.bmp	Pictures/IA110_55_L95p.bmp	Pictures/IA110.bmp	"Trust me"	1	risk					7	0	7	0	0	0	0	0													2574.085428	None	2574.085428	None	2574.085428	None	left	2.667109088	2574.085428	None	2574.085428	None	2574.085428	None	return	3.674942864	2574.085428	None	2577.79524	None	2579.81726	2581.321211	2581.287785	None	2582.8586	None	2	2.322021825	2584.83049	None	2584.83049	None	2584.83049	None	None	None	None	None	2587.30369	None	2587.30369	None	right	0.032828045	2587.30369	None	None	None	2587.370544	2589.29228													117	1	19	0	2020_Feb_26_1201	Test	3.2.4	59.83990779		
Pictures/IA100_L20.bmp	Pictures/IA100_L20.bmp	Pictures/IA100.bmp	"Try to win as much money as you can"	1	risk					7	0	7	0	0	1	1	15																															2589.308976	None	2591.347713	2592.851674	2592.818263	None	2594.355648	None	2	0.951563631	2596.36095	None	2596.36095	None	2596.36095	None	None	None	None	None	2597.497283	None	2597.497283	None	left	0.20724263	2597.497283	None	2597.747961	2599.485891	None	None													117	1	19	0	2020_Feb_26_1201	Test	3.2.4	59.83990779		
Pictures/IA25_G15.bmp	Pictures/IA25_G15.bmp	Pictures/IA25.bmp	"I think you should take a gamble."""""	1	risk					7	0	7	0	0	2	2	7																															2599.502594	None	2601.54132	2603.061994	2603.045313	None	2604.565975	None	2	0.421979795	2606.554552	None	2606.554552	None	2606.554552	None	None	None	None	None	2607.156166	None	2607.156166	None	left	0.020356733	2607.156166	None	2607.222982	2609.144706	None	None													117	1	19	0	2020_Feb_26_1201	Test	3.2.4	59.83990779		
Pictures/IA100_L80.bmp	Pictures/IA100_L80.bmp	Pictures/IA100.bmp	"Go all in!"""""	1	risk					7	0	7	0	0	3	3	18																															2609.161467	None	2611.200218	2612.704185	2612.670757	None	2614.241564	None	2	0.315085927	2616.213438	None	2616.213438	None	2616.213438	None	None	None	None	None	2616.698033	None	2616.698033	None	left	0.390497382	2616.698033	None	2617.132532	2618.686618	None	None													117	1	19	0	2020_Feb_26_1201	Test	3.2.4	59.83990779		
Pictures/IA75_L15.bmp	Pictures/IA75_L15.bmp	Pictures/IA75.bmp	"Trust me–gamble!"""""	1	risk					7	0	7	0	0	4	4	13																															2618.703317	None	2620.742069	2622.246023	2622.212613	None	2623.766703	None	2	0.637904074	2625.738623	None	2625.738623	None	2625.738623	None	None	None	None	None	2626.55751	None	2626.55751	None	left	0.027002648	2626.55751	None	2626.624284	2628.54606	None	None													117	1	19	0	2020_Feb_26_1201	Test	3.2.4	59.83990779		
Pictures/IA20_10_L95p.bmp	Pictures/IA20_10_L95p.bmp	Pictures/IA20.bmp	"Don't be tempted to gamble."""""	0	safe					7	0	7	0	0	5	5	4																															2628.562763	None	2630.601478	2632.105472	2632.072029	None	2633.626107	None	1	1.001811286	2635.614706	None	2635.614706	None	2635.614706	None	2636.734326	None	2636.734326	2637.736975	2638.85661	None	2638.85661	None	right	0.247890453	2638.85661	None	None	None	2639.140686	2640.845178													117	1	19	0	2020_Feb_26_1201	Test	3.2.4	59.83990779		
Pictures/IA100_G40.bmp	Pictures/IA100_G40.bmp	Pictures/IA100.bmp	"Try your luck and gamble!"""""	1	risk					7	0	7	0	0	6	6	12																															2640.861905	None	2642.901111	2644.421347	2644.40464	None	2645.975417	None	2	0.365711647	2647.914812	None	2647.914812	None	2647.914812	None	None	None	None	None	2648.532215	None	2648.532215	None	left	0.340306789	2648.532215	None	2648.916531	2650.520722	None	None													117	1	19	0	2020_Feb_26_1201	Test	3.2.4	59.83990779		
Pictures/IA80_40_G95p.bmp	Pictures/IA80_40_G95p.bmp	Pictures/IA80.bmp	"Think of the payoff"	1	risk					7	0	7	0	0	7	7	2																															2650.537478	None	2652.57691	2654.080194	2654.063611	None	2655.600899	None	2	0.379087376	2657.589437	None	2657.589437	None	2657.589437	None	None	None	None	None	2658.140893	None	2658.140893	None	left	0.267636589	2658.140893	None	2658.458396	2660.129464	None	None													117	1	19	0	2020_Feb_26_1201	Test	3.2.4	59.83990779		
Pictures/IA50_L20.bmp	Pictures/IA50_L20.bmp	Pictures/IA50.bmp	"Certainty is boring"	1	risk					7	0	7	0	0	8	8	17																															2660.146188	None	2662.184912	2663.7056	2663.688875	None	2665.226267	None	2	0.754387708	2667.198148	None	2667.198148	None	2667.198148	None	None	None	None	None	2668.150676	None	2668.150676	None	left	0.113843602	2668.150676	None	2668.301071	2670.139247	None	None													117	1	19	0	2020_Feb_26_1201	Test	3.2.4	59.83990779		
Pictures/IA110_55_G95p.bmp	Pictures/IA110_55_G95p.bmp	Pictures/IA110.bmp	"Take a chance!"""""	1	risk					7	0	7	0	0	9	9	3																															2670.155971	None	2672.194694	2673.715374	2673.698658	None	2675.219339	None	2	1.232592398	2677.20794	None	2677.20794	None	2677.20794	None	None	None	None	None	2678.611641	None	2678.611641	None	left	0.436880493	2678.611641	None	2679.096249	2680.600231	None	None													117	1	19	0	2020_Feb_26_1201	Test	3.2.4	59.83990779		
Pictures/IA25_L10.bmp	Pictures/IA25_L10.bmp	Pictures/IA25.bmp	"Dont be afraid to take the risk!"""""	1	risk					7	0	7	0	0	10	10	19																															2680.616932	None	2682.655661	2684.15964	2684.142914	None	2685.680325	None	2	1.41162736	2687.668904	None	2687.668904	None	2687.668904	None	None	None	None	None	2689.273142	None	2689.273142	None	left	0.311388207	2689.273142	None	2689.624066	2691.278438	None	None													117	1	19	0	2020_Feb_26_1201	Test	3.2.4	59.83990779		
Pictures/IA100_G20.bmp	Pictures/IA100_G20.bmp	Pictures/IA100.bmp	"Go ahead and gamble!"""""	1	risk					7	0	7	0	0	11	11	9																															2691.29516	None	2693.31717	2694.837855	2694.821135	None	2696.358555	None	2	0.285424664	2698.347119	None	2698.347119	None	2698.347119	None	None	None	None	None	2698.814999	None	2698.814999	None	left	0.001536222	2698.814999	None	2698.865165	2700.803615	None	None													117	1	19	0	2020_Feb_26_1201	Test	3.2.4	59.83990779		
Pictures/IA25_G20.bmp	Pictures/IA25_G20.bmp	Pictures/IA25.bmp	"I wouldn't gamble for this one. """""	0	safe					7	0	7	0	0	12	12	16																															2700.820316	None	2702.842327	2704.363011	2704.346323	None	2705.883698	None	2	0.936235429	2707.872299	None	2707.872299	None	2707.872299	None	None	None	None	None	2708.991926	None	2708.991926	None	left	0.152597862	2708.991926	None	2709.192438	2710.997205	None	None													117	1	19	0	2020_Feb_26_1201	Test	3.2.4	59.83990779		
Pictures/IA80_40_L95p.bmp	Pictures/IA80_40_L95p.bmp	Pictures/IA80.bmp	"Let's stay with the certain option."""""	0	safe					7	0	7	0	0	13	13	8																															2711.013931	None	2713.035939	2714.556622	2714.539906	None	2716.093984	None	2	0.846621095	2718.065901	None	2718.065901	None	2718.065901	None	None	None	None	None	2719.085258	None	2719.085258	None	right	0.955264056	2719.085258	None	None	None	2720.087893	None													117	1	19	0	2020_Feb_26_1201	Test	3.2.4	59.83990779		
Pictures/IA25_L20.bmp	Pictures/IA25_L20.bmp	Pictures/IA25.bmp	"Don't be tempted to gamble."""""	0	safe					7	0	7	0	0	14	14	10																															2721.107264	None	2723.129275	2724.649959	2724.633239	None	2726.170646	None	2	0.953300712	2728.159224	None	2728.159224	None	2728.159224	None	None	None	None	None	2729.379121	None	2729.379121	None	left	0.317402596	2729.379121	None	2729.730049	2731.367697	None	None													117	1	19	0	2020_Feb_26_1201	Test	3.2.4	59.83990779		
Pictures/IA50_G30.bmp	Pictures/IA50_G30.bmp	Pictures/IA50.bmp	"I think you should gamble."""""	1	risk					7	0	7	0	0	15	15	5																															2731.38442	None	2733.406429	2734.927112	2734.910396	None	2736.447803	None	2	0.396150066	2738.436379	None	2738.436379	None	2738.436379	None	None	None	None	None	2739.004559	None	2739.004559	None	left	0.099961151	2739.004559	None	2739.138228	2741.009842	None	None													117	1	19	0	2020_Feb_26_1201	Test	3.2.4	59.83990779		
Pictures/IA75_G30.bmp	Pictures/IA75_G30.bmp	Pictures/IA75.bmp	"Be bold"	1	risk					7	0	7	0	0	16	16	14																															2741.026564	None	2743.065286	2744.569243	2744.552556	None	2746.106645	None	2	0.23400537	2748.078521	None	2748.078521	None	2748.078521	None	None	None	None	None	2748.462882	None	2748.462882	None	left	0.001649309	2748.462882	None	2748.513015	2750.451465	None	None													117	1	19	0	2020_Feb_26_1201	Test	3.2.4	59.83990779		
Pictures/IA25_G5.bmp	Pictures/IA25_G5.bmp	Pictures/IA25.bmp	"Let's stay with the certain option."""""	0	safe					7	0	7	0	0	17	17	6																															2750.468167	None	2752.490177	2754.01086	2753.994162	None	2755.548256	None	2	0.392396319	2757.520134	None	2757.520134	None	2757.520134	None	None	None	None	None	2758.105024	None	2758.105024	None	left	0.623499909	2758.105024	None	2758.773445	2760.110307	None	None													117	1	19	0	2020_Feb_26_1201	Test	3.2.4	59.83990779		
Pictures/IA100_G80.bmp	Pictures/IA100_G80.bmp	Pictures/IA100.bmp	"Why not gamble?"""""	1	risk					7	0	7	0	0	18	18	11																															2760.12703	None	2762.149041	2763.669726	2763.653006	None	2765.20712	None	2	1.053524849	2767.179001	None	2767.179001	None	2767.179001	None	None	None	None	None	2768.398879	None	2768.398879	None	left	0.24963563	2768.398879	None	2768.682958	2770.387473	None	None													117	1	19	0	2020_Feb_26_1201	Test	3.2.4	59.83990779		
Pictures/IA25_L15.bmp	Pictures/IA25_L15.bmp	Pictures/IA25.bmp	"There's not much on the line here"	1	risk					7	0	7	0	0	19	19	1																															2770.404176	None	2772.426187	2773.946865	2773.930173	None	2775.484262	None	2	0.896405378	2777.456141	None	2777.456141	None	2777.456141	None	None	None	None	None	2778.525647	None	2778.525647	None	left	0.16286869	2778.525647	None	2778.726161	2780.514218	None	None													117	1	19	0	2020_Feb_26_1201	Test	3.2.4	59.83990779		
										7	0	7	0																																																																									2780.681342	None	return	4.263179791	2780.681342	None	117	1	19	0	2020_Feb_26_1201	Test	3.2.4	59.83990779		
Pictures/IA75_L60.bmp	Pictures/IA75_L60.bmp	Pictures/IA75.bmp	"Why not take the gamble?"""""	1	risk					8	0	8	0	0	0	0	12													2785.126411	None	2785.126411	None	2785.126411	None	right	1.946122817	2785.126411	None	2785.126411	None	2785.126411	None	return	3.657934093	2785.126411	None	2788.819494	None	2790.824806	2792.34549	2792.328784	None	2793.899609	None	2	1.249777223	2795.854752	None	2795.854752	None	2795.854752	None	None	None	None	None	2797.258467	None	2797.258467	None	left	0.262058943	2797.258467	None	2797.559265	2799.263752	None	None													117	1	19	0	2020_Feb_26_1201	Test	3.2.4	59.83990779		
Pictures/IA80_40_L95p.bmp	Pictures/IA80_40_L95p.bmp	Pictures/IA80.bmp	"Let's stay with the certain option."""""	0	safe					8	0	8	0	0	1	1	15																															2799.280482	None	2801.302487	2802.823174	2802.806454	None	2804.31044	None	1	1.244072702	2806.332452	None	2806.332452	None	2806.332452	None	2807.70273	None	2807.70273	2808.705367	2809.808289	None	2809.808289	None	right	0.224234115	2809.808289	None	None	None	2810.075669	2811.796888													117	1	19	0	2020_Feb_26_1201	Test	3.2.4	59.83990779		
Pictures/IA100_L40.bmp	Pictures/IA100_L40.bmp	Pictures/IA100.bmp	"Think of the payoff"	1	risk					8	0	8	0	0	2	2	7																															2811.813585	None	2813.83559	2815.3563	2815.3396	None	2816.893677	None	2	0.926976554	2818.865553	None	2818.865553	None	2818.865553	None	None	None	None	None	2819.968479	None	2819.968479	None	left	0.312043311	2819.968479	None	2820.319404	2821.957045	None	None													117	1	19	0	2020_Feb_26_1201	Test	3.2.4	59.83990779		
Pictures/IA80_40_G95p.bmp	Pictures/IA80_40_G95p.bmp	Pictures/IA80.bmp	"Think of the payoff"	1	risk					8	0	8	0	0	3	3	4																															2821.97377	None	2823.995783	2825.516465	2825.499748	None	2827.020441	None	2	0.318803946	2829.02574	None	2829.02574	None	2829.02574	None	None	None	None	None	2829.476921	None	2829.476921	None	left	0.291607346	2829.476921	None	2829.811147	2831.482231	None	None													117	1	19	0	2020_Feb_26_1201	Test	3.2.4	59.83990779		
Pictures/IA100_L80.bmp	Pictures/IA100_L80.bmp	Pictures/IA100.bmp	"Go all in!"""""	1	risk					8	0	8	0	0	4	4	1																															2831.498929	None	2833.52094	2835.024922	2835.008206	None	2836.579019	None	2	1.177639046	2838.550895	None	2838.550895	None	2838.550895	None	None	None	None	None	2839.871054	None	2839.871054	None	left	0.297469589	2839.871054	None	2840.205275	2841.859645	None	None													117	1	19	0	2020_Feb_26_1201	Test	3.2.4	59.83990779		
Pictures/IA50_L10.bmp	Pictures/IA50_L10.bmp	Pictures/IA50.bmp	"Play it safe"	0	safe					8	0	8	0	0	5	5	13																															2841.876351	None	2843.89836	2845.419044	2845.402344	None	2846.956435	None	2	0.336214955	2848.928315	None	2848.928315	None	2848.928315	None	None	None	None	None	2849.463059	None	2849.463059	None	left	0.097463755	2849.463059	None	2849.596756	2851.468369	None	None													117	1	19	0	2020_Feb_26_1201	Test	3.2.4	59.83990779		
Pictures/IA25_L20.bmp	Pictures/IA25_L20.bmp	Pictures/IA25.bmp	"Don't be tempted to gamble."""""	0	safe					8	0	8	0	0	6	6	5																															2851.485065	None	2853.507074	2855.02776	2855.011069	None	2856.548446	None	2	0.703482041	2858.537049	None	2858.537049	None	2858.537049	None	None	None	None	None	2859.406011	None	2859.406011	None	left	0.794520471	2859.406011	None	2860.241535	2861.411303	None	None													117	1	19	0	2020_Feb_26_1201	Test	3.2.4	59.83990779		
Pictures/IA25_L15.bmp	Pictures/IA25_L15.bmp	Pictures/IA25.bmp	"There's not much on the line here"	1	risk					8	0	8	0	0	7	7	11																															2861.428002	None	2863.450012	2864.970695	2864.954006	None	2866.457963	None	2	0.456545898	2868.479988	None	2868.479988	None	2868.479988	None	None	None	None	None	2869.131698	None	2869.131698	None	left	0.308824825	2869.131698	None	2869.482617	2871.120289	None	None													117	1	19	0	2020_Feb_26_1201	Test	3.2.4	59.83990779		
Pictures/IA25_G10.bmp	Pictures/IA25_G10.bmp	Pictures/IA25.bmp	"What's life without a little risk?"""""	1	risk					8	0	8	0	0	8	8	0																															2871.136989	None	2873.159	2874.679681	2874.662987	None	2876.21708	None	2	0.347572652	2878.188957	None	2878.188957	None	2878.188957	None	None	None	None	None	2878.70699	None	2878.70699	None	left	0.12553136	2878.70699	None	2878.874114	2880.712286	None	None													117	1	19	0	2020_Feb_26_1201	Test	3.2.4	59.83990779		
Pictures/IA50_G30.bmp	Pictures/IA50_G30.bmp	Pictures/IA50.bmp	"I think you should gamble."""""	1	risk					8	0	8	0	0	9	9	18																															2880.729016	None	2882.751021	2884.254982	2884.238286	None	2885.792397	None	2	0.259560726	2887.780968	None	2887.780968	None	2887.780968	None	None	None	None	None	2888.198751	None	2888.198751	None	left	0.017786507	2888.198751	None	2888.265579	2890.204031	None	None													117	1	19	0	2020_Feb_26_1201	Test	3.2.4	59.83990779		
Pictures/IA100_L60.bmp	Pictures/IA100_L60.bmp	Pictures/IA100.bmp	"You'd have a lot to lose"	0	safe					8	0	8	0	0	10	10	14																															2890.220756	None	2892.242768	2893.763453	2893.74673	None	2895.300843	None	2	0.743798146	2897.27273	None	2897.27273	None	2897.27273	None	None	None	None	None	2898.19179	None	2898.19179	None	left	0.192739674	2898.19179	None	2898.425758	2900.197101	None	None													117	1	19	0	2020_Feb_26_1201	Test	3.2.4	59.83990779		
Pictures/IA25_G15.bmp	Pictures/IA25_G15.bmp	Pictures/IA25.bmp	"I think you should take a gamble."""""	1	risk					8	0	8	0	0	11	11	16																															2900.213827	None	2902.235835	2903.756517	2903.7398	None	2905.293917	None	2	0.502739812	2907.265795	None	2907.265795	None	2907.265795	None	None	None	None	None	2907.950938	None	2907.950938	None	left	0.145590526	2907.950938	None	2908.134755	2909.939519	None	None													117	1	19	0	2020_Feb_26_1201	Test	3.2.4	59.83990779		
Pictures/IA20_10_L95p.bmp	Pictures/IA20_10_L95p.bmp	Pictures/IA20.bmp	"Don't be tempted to gamble."""""	0	safe					8	0	8	0	0	12	12	6																															2909.956219	None	2911.978229	2913.498928	2913.482219	None	2914.986178	None	1	0.528327173	2917.008202	None	2917.008202	None	2917.008202	None	2917.6432	None	2917.6432	2918.645843	2919.748764	None	2919.748764	None	right	0.355758702	2919.748764	None	None	None	2920.149834	2921.754068													117	1	19	0	2020_Feb_26_1201	Test	3.2.4	59.83990779		
Pictures/IA25_G20.bmp	Pictures/IA25_G20.bmp	Pictures/IA25.bmp	"I wouldn't gamble for this one. """""	0	safe					8	0	8	0	0	13	13	17																															2921.770768	None	2923.79278	2925.313462	2925.296768	None	2926.817439	None	1	1.121795004	2928.82274	None	2928.82274	None	2928.82274	None	2930.076062	None	2930.076062	2931.078706	2932.181625	None	2932.181625	None	left	0.226896971	2932.181625	None	2932.448982	2934.186905	None	None													117	1	19	0	2020_Feb_26_1201	Test	3.2.4	59.83990779		
Pictures/IA50_G40.bmp	Pictures/IA50_G40.bmp	Pictures/IA50.bmp	"It would probably be best to play it safe."""""	0	safe					8	0	8	0	0	14	14	3																															2934.203628	None	2936.225641	2937.74634	2937.729607	None	2939.28372	None	2	0.58492486	2941.255598	None	2941.255598	None	2941.255598	None	None	None	None	None	2942.007589	None	2942.007589	None	left	0.136932985	2942.007589	None	2942.191401	2943.996168	None	None													117	1	19	0	2020_Feb_26_1201	Test	3.2.4	59.83990779		
Pictures/IA75_G15.bmp	Pictures/IA75_G15.bmp	Pictures/IA75.bmp	"Take a chance!"""""	1	risk					8	0	8	0	0	15	15	19																															2944.012867	None	2946.034879	2947.555561	2947.538866	None	2949.092956	None	2	0.871695733	2951.064837	None	2951.064837	None	2951.064837	None	None	None	None	None	2952.100908	None	2952.100908	None	left	0.187612241	2952.100908	None	2952.334879	2954.1062	None	None													117	1	19	0	2020_Feb_26_1201	Test	3.2.4	59.83990779		
Pictures/IA50_L30.bmp	Pictures/IA50_L30.bmp	Pictures/IA50.bmp	"Take a leap"	1	risk					8	0	8	0	0	16	16	9																															2954.122926	None	2956.144934	2957.665619	2957.648901	None	2959.20302	None	2	0.393634129	2961.174895	None	2961.174895	None	2961.174895	None	None	None	None	None	2961.743051	None	2961.743051	None	left	0.281481421	2961.743051	None	2962.06055	2963.731634	None	None													117	1	19	0	2020_Feb_26_1201	Test	3.2.4	59.83990779		
Pictures/IA40_20_G95p.bmp	Pictures/IA40_20_G95p.bmp	Pictures/IA40.bmp	"Hold back"	0	safe					8	0	8	0	0	17	17	10																															2963.748357	None	2965.787078	2967.291036	2967.274341	None	2968.828433	None	2	1.184207282	2970.800314	None	2970.800314	None	2970.800314	None	None	None	None	None	2972.15389	None	2972.15389	None	left	1.134632517	2972.15389	None	2973.323658	None	None	None													117	1	19	0	2020_Feb_26_1201	Test	3.2.4	59.83990779		
Pictures/IA100_L20.bmp	Pictures/IA100_L20.bmp	Pictures/IA100.bmp	"Try to win as much money as you can"	1	risk					8	0	8	0	0	18	18	8																															2974.175906	None	2976.197921	2977.718601	2977.701882	None	2979.256002	None	2	0.56464181	2981.22788	None	2981.22788	None	2981.22788	None	None	None	None	None	2981.99656	None	2981.99656	None	left	0.307960939	2981.99656	None	2982.347495	2983.985154	None	None													117	1	19	0	2020_Feb_26_1201	Test	3.2.4	59.83990779		
Pictures/IA75_L45.bmp	Pictures/IA75_L45.bmp	Pictures/IA75.bmp	"Don't gamble for this one"	0	safe					8	0	8	0	0	19	19	2																															2984.001862	None	2986.023867	2987.544548	2987.527855	None	2989.081946	None	2	0.722719206	2991.053825	None	2991.053825	None	2991.053825	None	None	None	None	None	2991.972933	None	2991.972933	None	left	0.243599961	2991.972933	None	2992.257012	2993.961501	None	None													117	1	19	0	2020_Feb_26_1201	Test	3.2.4	59.83990779		
										8	0	8	0																																																																									2994.128627	None	return	3.82388666	2994.128627	None	117	1	19	0	2020_Feb_26_1201	Test	3.2.4	59.83990779		
Pictures/IA20_10_G95p.bmp	Pictures/IA20_10_G95p.bmp	Pictures/IA20.bmp	"Take a leap"	1	risk					9	0	9	0	0	0	0	2													2998.105801	None	2998.105801	None	2998.105801	None	right	1.782718913	2998.105801	None	2998.105801	None	2998.105801	None	return	2.150580565	2998.105801	None	3000.31163	None	3002.316917	3003.837595	3003.820904	None	3005.358296	None	2	0.630351769	3007.330184	None	3007.330184	None	3007.330184	None	None	None	None	None	3008.14899	None	3008.14899	None	left	0.059533242	3008.14899	None	3008.249265	3010.137576	None	None													117	1	19	0	2020_Feb_26_1201	Test	3.2.4	59.83990779		
Pictures/IA50_G40.bmp	Pictures/IA50_G40.bmp	Pictures/IA50.bmp	"It would probably be best to play it safe."""""	0	safe					9	0	9	0	0	1	1	0																															3010.154297	None	3012.176308	3013.69699	3013.680274	None	3015.217677	None	2	0.402272226	3017.206259	None	3017.206259	None	3017.206259	None	None	None	None	None	3017.807842	None	3017.807842	None	left	0.52069901	3017.807842	None	3018.376019	3019.796427	None	None													117	1	19	0	2020_Feb_26_1201	Test	3.2.4	59.83990779		
Pictures/IA25_L10.bmp	Pictures/IA25_L10.bmp	Pictures/IA25.bmp	"Dont be afraid to take the risk!"""""	1	risk					9	0	9	0	0	2	2	6																															3019.813151	None	3021.835161	3023.35585	3023.339135	None	3024.85982	None	2	0.487412463	3026.865121	None	3026.865121	None	3026.865121	None	None	None	None	None	3027.533544	None	3027.533544	None	left	0.018989381	3027.533544	None	3027.600392	3029.522136	None	None													117	1	19	0	2020_Feb_26_1201	Test	3.2.4	59.83990779		
Pictures/IA75_G45.bmp	Pictures/IA75_G45.bmp	Pictures/IA75.bmp	"Don't gamble for this one."""""	0	safe					9	0	9	0	0	3	3	16																															3029.538834	None	3031.560844	3033.081529	3033.064836	None	3034.618925	None	2	0.729728405	3036.59081	None	3036.59081	None	3036.59081	None	None	None	None	None	3037.50991	None	3037.50991	None	left	0.146609696	3037.50991	None	3037.693726	3039.498491	None	None													117	1	19	0	2020_Feb_26_1201	Test	3.2.4	59.83990779		
Pictures/IA100_G80.bmp	Pictures/IA100_G80.bmp	Pictures/IA100.bmp	"Why not gamble?"""""	1	risk					9	0	9	0	0	4	4	15																															3039.515193	None	3041.537205	3043.057887	3043.041192	None	3044.545153	None	2	0.481366824	3046.567176	None	3046.567176	None	3046.567176	None	None	None	None	None	3047.202186	None	3047.202186	None	left	0.078332838	3047.202186	None	3047.319158	3049.190767	None	None													117	1	19	0	2020_Feb_26_1201	Test	3.2.4	59.83990779		
Pictures/IA100_G20.bmp	Pictures/IA100_G20.bmp	Pictures/IA100.bmp	"Go ahead and gamble!"""""	1	risk					9	0	9	0	0	5	5	11																															3049.207466	None	3051.229537	3052.750165	3052.733465	None	3054.254139	None	2	0.301088268	3056.259447	None	3056.259447	None	3056.259447	None	None	None	None	None	3056.760762	None	3056.760762	None	left	0.511764668	3056.760762	None	3057.312218	3058.749358	None	None													117	1	19	0	2020_Feb_26_1201	Test	3.2.4	59.83990779		
Pictures/IA50_L30.bmp	Pictures/IA50_L30.bmp	Pictures/IA50.bmp	"