Choice	Choice2	Amount	AdviceVar1	GambleAdviceNum	GambleAdviceType	practice.thisRepN	practice.thisTrialN	practice.thisN	practice.thisIndex	trials_2.thisRepN	trials_2.thisTrialN	trials_2.thisN	trials_2.thisIndex	trials.thisRepN	trials.thisTrialN	trials.thisN	trials.thisIndex	text.started	text.stopped	key_resp_4.keys	key_resp_4.rt	key_resp_4.started	key_resp_4.stopped	instructions.started	instructions.stopped	space.keys	space.rt	space.started	space.stopped	chooseInst.started	chooseInst.stopped	Ad1.started	Ad1.stopped	Ad2.started	Ad2.stopped	key_resp_3.keys	key_resp_3.rt	key_resp_3.started	key_resp_3.stopped	Ad1pic.started	Ad1pic.stopped	Ad2pic.started	Ad2pic.stopped	enter.keys	enter.rt	enter.started	enter.stopped	iSi.started	iSi.stopped	receiveMoneyPicture.started	receiveMoneyPicture.stopped	ISI2.started	ISI2.stopped	ChoicePic.started	ChoicePic.stopped	response.keys	response.rt	response.started	response.stopped	yesNo.started	yesNo.stopped	ask.started	ask.stopped	getAdv.started	getAdv.stopped	textForCode.started	textForCode.stopped	blank.started	blank.stopped	ChoicePic2.started	ChoicePic2.stopped	resp.keys	resp.rt	resp.started	resp.stopped	checkL1.started	checkL1.stopped	checkR1.started	checkR1.stopped	EndPrac.started	EndPrac.stopped	key_resp.keys	key_resp.rt	key_resp.started	key_resp.stopped	endText.started	endText.stopped	key_resp_2.keys	key_resp_2.rt	key_resp_2.started	key_resp_2.stopped	participant	session	age	gender (0=male	 1 = female	 2 = other)	date	expName	psychopyVersion	frameRate
																		226.5855277	None	space	427.6878855	226.5855277	None																																																																					118	1	18	1	2020_Feb_26_1258	Test	3.2.4	59.84194031		
																								654.2981439	None	space	18.50329071	654.2981439	None																																																															118	1	18	1	2020_Feb_26_1258	Test	3.2.4	59.84194031		
																														673.4153043	None	673.4153043	None	673.4153043	None	left	10.16209481	673.4153043	None																																																					118	1	18	1	2020_Feb_26_1258	Test	3.2.4	59.84194031		
																																								673.4153043	None	673.4153043	None	return	14.28197634	673.4153043	None																																													118	1	18	1	2020_Feb_26_1258	Test	3.2.4	59.84194031		
Pictures/IA50_G10.bmp	Pictures/IA50_G10.bmp	Pictures/IA50.bmp	"Go with the safe option here!"""""	0	safe	0	0	0	0																																							687.7531737	None	689.7751827	691.2791704	691.2624451	None	692.7998432	None	2	2.393431556	694.871994	None	694.871994	None	694.871994	None	None	None	None	None	697.5122897	None	697.5122897	None	left	0.649129026	697.5122897	None	698.1974339	699.5008838	None	None													118	1	18	1	2020_Feb_26_1258	Test	3.2.4	59.84194031		
Pictures/IA100_G20.bmp	Pictures/IA100_G20.bmp	Pictures/IA100.bmp	"Go ahead and gamble!"""""	1	risk	0	1	1	4																																							699.5175867	None	701.5730128	703.0769966	703.0602778	None	704.6143793	None	2	1.07186951	706.5695597	None	706.5695597	None	706.5695597	None	None	None	None	None	707.8228712	None	707.8228712	None	left	1.498542928	707.8228712	None	709.3602498	None	None	None													118	1	18	1	2020_Feb_26_1258	Test	3.2.4	59.84194031		
Pictures/IA100_G40.bmp	Pictures/IA100_G40.bmp	Pictures/IA100.bmp	"Try your luck and gamble!"""""	1	risk	0	2	2	5																																							709.8448746	None	711.866885	713.3875659	713.3708474	None	714.9249634	None	1	1.25655808	716.8968625	None	716.8968625	None	716.8968625	None	718.2671152	None	718.2671152	719.2697591	720.4061035	None	720.4061035	None	None		720.4061035	None	None	None	None	None													118	1	18	1	2020_Feb_26_1258	Test	3.2.4	59.84194031		
Pictures/IA50_G20.bmp	Pictures/IA50_G20.bmp	Pictures/IA50.bmp	"Let's venture and take a risk!"""""	1	risk	0	3	3	1																																							722.4113948	None	724.433407	725.954086	725.9373947	None	727.5081917	None	1	1.146055477	729.4633696	None	729.4633696	None	729.4633696	None	730.7166756	None	730.7166756	731.7193247	732.8222474	None	732.8222474	None	right	1.131159895	732.8222474	None	None	None	733.9919877	None													118	1	18	1	2020_Feb_26_1258	Test	3.2.4	59.84194031		
Pictures/IA50_G40.bmp	Pictures/IA50_G40.bmp	Pictures/IA50.bmp	"It would probably be best to play it safe."""""	0	safe	0	4	4	3																																							734.844236	None	736.8662482	738.3869285	738.3702321	None	739.9410355	None	2	1.001197795	741.8962196	None	741.8962196	None	741.8962196	None	None	None	None	None	743.0826693	None	743.0826693	None	None		743.0826693	None	None	None	None	None													118	1	18	1	2020_Feb_26_1258	Test	3.2.4	59.84194031		
Pictures/IA50_G30.bmp	Pictures/IA50_G30.bmp	Pictures/IA50.bmp	"I think you should gamble."""""	1	risk	0	5	5	2																																							745.0879612	None	747.1099706	748.6306558	748.6139585	None	750.1680516	None	1	1.389490534	752.1399293	None	752.1399293	None	752.1399293	None	753.6606353	None	753.6606353	754.6632783	755.7661916	None	755.7661916	None	right	0.907241401	755.7661916	None	None	None	756.7186992	757.7547568													118	1	18	1	2020_Feb_26_1258	Test	3.2.4	59.84194031		
																																																																																757.7714834	None	space	27.20592271	757.7714834	None							118	1	18	1	2020_Feb_26_1258	Test	3.2.4	59.84194031		
Pictures/IA25_G15.bmp	Pictures/IA25_G15.bmp	Pictures/IA25.bmp	"I think you should take a gamble."""""	1	risk					0	0	0	0	0	0	0	17													785.143791	None	785.143791	None	785.143791	None	left	7.849619886	785.143791	None	785.143791	None	785.143791	None	return	12.96150787	785.143791	None	798.1614961	None	800.1835161	801.7041961	801.6874791	None	803.2248829	None	2	0.917379583	805.1800382	None	805.1800382	None	805.1800382	None	None	None	None	None	806.2829508	None	806.2829508	None	None		806.2829508	None	None	None	None	None													118	1	18	1	2020_Feb_26_1258	Test	3.2.4	59.84194031		
Pictures/IA100_L60.bmp	Pictures/IA100_L60.bmp	Pictures/IA100.bmp	"You'd have a lot to lose"	0	safe					0	0	0	0	0	1	1	2																															808.2882428	None	810.3102536	811.8309403	811.8142409	None	813.3683362	None	1	1.589216303	815.3402085	None	815.3402085	None	815.3402085	None	817.0781435	None	817.0781435	818.0807876	819.2004182	None	819.2004182	None	left	1.416997246	819.2004182	None	820.6542553	None	None	None													118	1	18	1	2020_Feb_26_1258	Test	3.2.4	59.84194031		
Pictures/IA75_L60.bmp	Pictures/IA75_L60.bmp	Pictures/IA75.bmp	"Why not take the gamble?"""""	1	risk					0	0	0	0	0	2	2	1																															821.205703	None	823.2443841	824.7651002	824.7484067	None	826.2857984	None	2	1.087738999	828.2576784	None	828.2576784	None	828.2576784	None	None	None	None	None	829.5109752	None	829.5109752	None	left	0.610451744	829.5109752	None	830.1626965	831.4995565	None	None													118	1	18	1	2020_Feb_26_1258	Test	3.2.4	59.84194031		
Pictures/IA50_G10.bmp	Pictures/IA50_G10.bmp	Pictures/IA50.bmp	"Go with the safe option here!"""""	0	safe					0	0	0	0	0	3	3	19																															831.5162863	None	833.5382903	835.0589771	835.0422525	None	836.5462366	None	2	1.009193913	838.5682334	None	838.5682334	None	838.5682334	None	None	None	None	None	839.7379547	None	839.7379547	None	left	0.359452021	839.7379547	None	840.1390579	841.7265871	None	None													118	1	18	1	2020_Feb_26_1258	Test	3.2.4	59.84194031		
Pictures/IA25_L20.bmp	Pictures/IA25_L20.bmp	Pictures/IA25.bmp	"Don't be tempted to gamble."""""	0	safe					0	0	0	0	0	4	4	16																															841.7432887	None	843.7652934	845.285975	845.2692784	None	846.8233707	None	1	0.662174768	848.7952502	None	848.7952502	None	848.7952502	None	849.5639579	None	849.5639579	850.566599	851.6695314	None	851.6695314	None	right	0.891873556	851.6695314	None	None	None	852.6053078	853.6748127													118	1	18	1	2020_Feb_26_1258	Test	3.2.4	59.84194031		
Pictures/IA100_G60.bmp	Pictures/IA100_G60.bmp	Pictures/IA100.bmp	"Be cautious"	0	safe					0	0	0	0	0	5	5	7																															853.6915236	None	855.7135339	857.2342148	857.2174965	None	858.788328	None	1	0.585948966	860.7434765	None	860.7434765	None	860.7434765	None	861.4787683	None	861.4787683	862.4814069	863.5843264	None	863.5843264	None	None		863.5843264	None	None	None	None	None													118	1	18	1	2020_Feb_26_1258	Test	3.2.4	59.84194031		
Pictures/IA40_20_G95p.bmp	Pictures/IA40_20_G95p.bmp	Pictures/IA40.bmp	"Hold back"	0	safe					0	0	0	0	0	6	6	18																															865.5896189	None	867.6450522	869.149008	869.1323142	None	870.6697157	None	2	0.359835923	872.6415883	None	872.6415883	None	872.6415883	None	None	None	None	None	873.176316	None	873.176316	None	left	0.745099215	873.176316	None	873.961724	875.1648996	None	None													118	1	18	1	2020_Feb_26_1258	Test	3.2.4	59.84194031		
Pictures/IA25_G5.bmp	Pictures/IA25_G5.bmp	Pictures/IA25.bmp	"Let's stay with the certain option."""""	0	safe					0	0	0	0	0	7	7	9																															875.1816225	None	877.2036317	878.7243141	878.707596	None	880.2617093	None	2	0.575847075	882.2335886	None	882.2335886	None	882.2335886	None	None	None	None	None	882.9855818	None	882.9855818	None	left	0.471846295	882.9855818	None	883.5036046	884.9741565	None	None													118	1	18	1	2020_Feb_26_1258	Test	3.2.4	59.84194031		
Pictures/IA50_G40.bmp	Pictures/IA50_G40.bmp	Pictures/IA50.bmp	"It would probably be best to play it safe."""""	0	safe					0	0	0	0	0	8	8	4																															884.9908552	None	887.0128651	888.5335457	888.5168553	None	890.0208106	None	1	0.134602653	892.042831	None	892.042831	None	892.042831	None	892.3269227	None	892.3269227	893.3295627	894.4324784	None	894.4324784	None	right	0.952927474	894.4324784	None	None	None	895.435115	None													118	1	18	1	2020_Feb_26_1258	Test	3.2.4	59.84194031		
Pictures/IA80_40_G95p.bmp	Pictures/IA80_40_G95p.bmp	Pictures/IA80.bmp	"Think of the payoff"	1	risk					0	0	0	0	0	9	9	12																															896.4544825	None	898.4932036	900.013884	899.9971666	None	901.5345591	None	1	0.64697909	903.5064396	None	903.5064396	None	903.5064396	None	904.2583871	None	904.2583871	905.2610655	906.363984	None	906.363984	None	left	0.605431317	906.363984	None	907.0157016	908.3525688	None	None													118	1	18	1	2020_Feb_26_1258	Test	3.2.4	59.84194031		
Pictures/IA75_G45.bmp	Pictures/IA75_G45.bmp	Pictures/IA75.bmp	"Don't gamble for this one."""""	0	safe					0	0	0	0	0	10	10	10																															908.3692883	None	910.3913031	911.9119805	911.8952602	None	913.4493761	None	1	1.260177923	915.4212508	None	915.4212508	None	915.4212508	None	916.7915279	None	916.7915279	917.794176	918.8970895	None	918.8970895	None	right	1.104319402	918.8970895	None	None	None	920.0501338	None													118	1	18	1	2020_Feb_26_1258	Test	3.2.4	59.84194031		
Pictures/IA20_10_G95p.bmp	Pictures/IA20_10_G95p.bmp	Pictures/IA20.bmp	"Take a leap"	1	risk					0	0	0	0	0	11	11	3																															920.9191071	None	922.9745368	924.4784962	924.4618065	None	925.9991949	None	2	0.254373678	927.9710737	None	927.9710737	None	927.9710737	None	None	None	None	None	928.4724193	None	928.4724193	None	left	0.617010707	928.4724193	None	929.1241167	930.4609655	None	None													118	1	18	1	2020_Feb_26_1258	Test	3.2.4	59.84194031		
Pictures/IA110_55_L95p.bmp	Pictures/IA110_55_L95p.bmp	Pictures/IA110.bmp	"Trust me"	1	risk					0	0	0	0	0	12	12	0																															930.4776876	None	932.5331597	934.0370781	934.0203819	None	935.5744874	None	2	1.247780691	937.5296421	None	937.5296421	None	937.5296421	None	None	None	None	None	938.9834837	None	938.9834837	None	right	0.377936293	938.9834837	None	None	None	939.4012474	940.988774													118	1	18	1	2020_Feb_26_1258	Test	3.2.4	59.84194031		
Pictures/IA75_G30.bmp	Pictures/IA75_G30.bmp	Pictures/IA75.bmp	"Be bold"	1	risk					0	0	0	0	0	13	13	13																															941.0055024	None	943.06093	944.5648875	944.5481955	None	946.1023024	None	1	0.823986799	948.0574494	None	948.0574494	None	948.0574494	None	948.9765541	None	948.9765541	949.9792016	951.0821362	None	951.0821362	None	left	1.167274345	951.0821362	None	952.2852809	None	None	None													118	1	18	1	2020_Feb_26_1258	Test	3.2.4	59.84194031		
Pictures/IA75_L30.bmp	Pictures/IA75_L30.bmp	Pictures/IA75.bmp	"Hold back"	0	safe					0	0	0	0	0	14	14	8																															953.1041224	None	955.1261322	956.6468113	956.6300994	None	958.200923	None	1	0.333350572	960.1560755	None	960.1560755	None	960.1560755	None	960.6239896	None	960.6239896	961.6266328	962.7796844	None	962.7796844	None	right	1.189733185	962.7796844	None	None	None	964.0162928	None													118	1	18	1	2020_Feb_26_1258	Test	3.2.4	59.84194031		
Pictures/IA20_10_L95p.bmp	Pictures/IA20_10_L95p.bmp	Pictures/IA20.bmp	"Don't be tempted to gamble."""""	0	safe					0	0	0	0	0	15	15	11																															964.8016762	None	966.8403986	968.3443791	968.3276752	None	969.8817793	None	1	0.275770658	971.853655	None	971.853655	None	971.853655	None	972.2380022	None	972.2380022	973.2406446	974.3435666	None	974.3435666	None	right	0.353848869	974.3435666	None	None	None	974.7446072	976.3488534													118	1	18	1	2020_Feb_26_1258	Test	3.2.4	59.84194031		
Pictures/IA100_L40.bmp	Pictures/IA100_L40.bmp	Pictures/IA100.bmp	"Think of the payoff"	1	risk					0	0	0	0	0	16	16	5																															976.3655662	None	978.4210039	979.9249614	979.9082623	None	981.4623658	None	1	0.967900963	983.4175235	None	983.4175235	None	983.4175235	None	984.5037319	None	984.5037319	985.5063776	986.6092986	None	986.6092986	None	right	0.288118499	986.6092986	None	None	None	986.9434984	988.6145774													118	1	18	1	2020_Feb_26_1258	Test	3.2.4	59.84194031		
Pictures/IA80_40_L95p.bmp	Pictures/IA80_40_L95p.bmp	Pictures/IA80.bmp	"Let's stay with the certain option."""""	0	safe					0	0	0	0	0	17	17	14																															988.6313006	None	990.6700251	992.1739816	992.157285	None	993.7113759	None	2	1.102160923	995.6832572	None	995.6832572	None	995.6832572	None	None	None	None	None	996.9699989	None	996.9699989	None	right	0.303416223	996.9699989	None	None	None	997.3209203	998.9585662													118	1	18	1	2020_Feb_26_1258	Test	3.2.4	59.84194031		
Pictures/IA25_L15.bmp	Pictures/IA25_L15.bmp	Pictures/IA25.bmp	"There's not much on the line here"	1	risk					0	0	0	0	0	18	18	15																															998.9752911	None	1001.014011	1002.534694	1002.517976	None	1004.055365	None	1	0.126177677	1006.027247	None	1006.027247	None	1006.027247	None	1006.294627	None	1006.294627	1007.297272	1008.40019	None	1008.40019	None	left	1.121228387	1008.40019	None	1009.569934	None	None	None													118	1	18	1	2020_Feb_26_1258	Test	3.2.4	59.84194031		
Pictures/IA100_G40.bmp	Pictures/IA100_G40.bmp	Pictures/IA100.bmp	"Try your luck and gamble!"""""	1	risk					0	0	0	0	0	19	19	6																															1010.405471	None	1012.427482	1013.948133	1013.931468	None	1015.48556	None	1	0.447975576	1017.457446	None	1017.457446	None	1017.457446	None	1018.008892	None	1018.008892	1019.011536	1020.114421	None	1020.114421	None	left	1.438992478	1020.114421	None	1021.601712	None	None	None													118	1	18	1	2020_Feb_26_1258	Test	3.2.4	59.84194031		
										0	0	0	0																																																																									1022.353705	None	return	14.66370347	1022.353705	None	118	1	18	1	2020_Feb_26_1258	Test	3.2.4	59.84194031		
Pictures/IA20_10_L95p.bmp	Pictures/IA20_10_L95p.bmp	Pictures/IA20.bmp	"Don't be tempted to gamble."""""	0	safe					1	0	1	0	0	0	0	10													1037.209626	None	1037.209626	None	1037.209626	None	right	6.87978322	1037.209626	None	1037.209626	None	1037.209626	None	return	10.69556317	1037.209626	None	1047.954682	None	1049.976678	1051.49736	1051.480644	None	1053.051464	None	1	0.43550833	1054.989912	None	1054.989912	None	1054.989912	None	1055.558086	None	1055.558086	1056.560724	1057.66365	None	1057.66365	None	right	0.417746584	1057.66365	None	None	None	1058.114831	1059.652223													118	1	18	1	2020_Feb_26_1258	Test	3.2.4	59.84194031		
Pictures/IA50_L20.bmp	Pictures/IA50_L20.bmp	Pictures/IA50.bmp	"Certainty is boring"	1	risk					1	0	1	0	0	1	1	16																															1059.668948	None	1061.724372	1063.228338	1063.211641	None	1064.749048	None	2	0.544521939	1066.720911	None	1066.720911	None	1066.720911	None	None	None	None	None	1067.439477	None	1067.439477	None	right	0.569938198	1067.439477	None	None	None	1068.057766	1069.428057													118	1	18	1	2020_Feb_26_1258	Test	3.2.4	59.84194031		
Pictures/IA50_L40.bmp	Pictures/IA50_L40.bmp	Pictures/IA50.bmp	"That gamble doesn't sound too good"	0	safe					1	0	1	0	0	2	2	7																															1069.444759	None	1071.466771	1072.987448	1072.970757	None	1074.524849	None	1	0.480694981	1076.496722	None	1076.496722	None	1076.496722	None	1077.231999	None	1077.231999	1078.234641	1079.33756	None	1079.33756	None	left	0.343859081	1079.33756	None	1079.721907	1081.326157	None	None													118	1	18	1	2020_Feb_26_1258	Test	3.2.4	59.84194031		
Pictures/IA75_G45.bmp	Pictures/IA75_G45.bmp	Pictures/IA75.bmp	"Don't gamble for this one."""""	0	safe					1	0	1	0	0	3	3	9																															1081.342861	None	1083.364864	1084.885549	1084.868853	None	1086.422942	None	2	0.870603163	1088.394821	None	1088.394821	None	1088.394821	None	None	None	None	None	1089.430891	None	1089.430891	None	left	0.378532177	1089.430891	None	1089.84866	1091.419484	None	None													118	1	18	1	2020_Feb_26_1258	Test	3.2.4	59.84194031		
Pictures/IA75_L30.bmp	Pictures/IA75_L30.bmp	Pictures/IA75.bmp	"Hold back"	0	safe					1	0	1	0	0	4	4	19																															1091.436182	None	1093.458195	1094.978873	1094.962182	None	1096.466142	None	1	0.745260259	1098.488161	None	1098.488161	None	1098.488161	None	1099.373829	None	1099.373829	1100.376477	1101.479393	None	1101.479393	None	left	1.36202842	1101.479393	None	1102.883087	None	None	None													118	1	18	1	2020_Feb_26_1258	Test	3.2.4	59.84194031		
Pictures/IA75_L45.bmp	Pictures/IA75_L45.bmp	Pictures/IA75.bmp	"Don't gamble for this one"	0	safe					1	0	1	0	0	5	5	15																															1103.501408	None	1105.523413	1107.044092	1107.027371	None	1108.581489	None	2	0.512051123	1110.553366	None	1110.553366	None	1110.553366	None	None	None	None	None	1111.238506	None	1111.238506	None	None		1111.238506	None	None	None	None	None													118	1	18	1	2020_Feb_26_1258	Test	3.2.4	59.84194031		
Pictures/IA110_55_L95p.bmp	Pictures/IA110_55_L95p.bmp	Pictures/IA110.bmp	"Trust me"	1	risk					1	0	1	0	0	6	6	1																															1113.243806	None	1115.26581	1116.786495	1116.769773	None	1118.307181	None	1	0.225673375	1120.295753	None	1120.295753	None	1120.295753	None	1120.629983	None	1120.629983	1121.632623	1122.752255	None	1122.752255	None	right	0.441160947	1122.752255	None	None	None	1123.236866	1124.740831													118	1	18	1	2020_Feb_26_1258	Test	3.2.4	59.84194031		
Pictures/IA25_L10.bmp	Pictures/IA25_L10.bmp	Pictures/IA25.bmp	"Dont be afraid to take the risk!"""""	1	risk					1	0	1	0	0	7	7	18																															1124.757547	None	1126.779558	1128.30024	1128.283521	None	1129.837641	None	1	0.855904191	1131.809528	None	1131.809528	None	1131.809528	None	1132.795438	None	1132.795438	1133.798084	1134.901001	None	1134.901001	None	None		1134.901001	None	None	None	None	None													118	1	18	1	2020_Feb_26_1258	Test	3.2.4	59.84194031		
Pictures/IA25_G10.bmp	Pictures/IA25_G10.bmp	Pictures/IA25.bmp	"What's life without a little risk?"""""	1	risk					1	0	1	0	0	8	8	3																															1136.906296	None	1138.928307	1140.448986	1140.432297	None	1141.986384	None	2	0.875166394	1143.958262	None	1143.958262	None	1143.958262	None	None	None	None	None	1145.011043	None	1145.011043	None	left	0.838378663	1145.011043	None	1145.896711	1146.999633	None	None													118	1	18	1	2020_Feb_26_1258	Test	3.2.4	59.84194031		
Pictures/IA25_G15.bmp	Pictures/IA25_G15.bmp	Pictures/IA25.bmp	"I think you should take a gamble."""""	1	risk					1	0	1	0	0	9	9	0																															1147.016335	None	1149.038348	1150.559032	1150.542332	None	1152.113146	None	1	0.405115722	1154.06832	None	1154.06832	None	1154.06832	None	1154.603023	None	1154.603023	1155.605703	1156.708622	None	1156.708622	None	left	0.340791849	1156.708622	None	1157.092966	1158.697204	None	None													118	1	18	1	2020_Feb_26_1258	Test	3.2.4	59.84194031		
Pictures/IA80_40_L95p.bmp	Pictures/IA80_40_L95p.bmp	Pictures/IA80.bmp	"Let's stay with the certain option."""""	0	safe					1	0	1	0	0	10	10	17																															1158.713902	None	1160.735916	1162.256594	1162.239899	None	1163.743858	None	1	0.443544679	1165.765882	None	1165.765882	None	1165.765882	None	1166.350759	None	1166.350759	1167.35342	1168.456319	None	1168.456319	None	right	0.417087043	1168.456319	None	None	None	1168.907509	1170.4616													118	1	18	1	2020_Feb_26_1258	Test	3.2.4	59.84194031		
Pictures/IA50_G10.bmp	Pictures/IA50_G10.bmp	Pictures/IA50.bmp	"Go with the safe option here!"""""	0	safe					1	0	1	0	0	11	11	11																															1170.478324	None	1172.500336	1174.021017	1174.004301	None	1175.575125	None	2	0.639148084	1177.530279	None	1177.530279	None	1177.530279	None	None	None	None	None	1178.332399	None	1178.332399	None	left	0.333023578	1178.332399	None	1178.700044	1180.320979	None	None													118	1	18	1	2020_Feb_26_1258	Test	3.2.4	59.84194031		
Pictures/IA100_L60.bmp	Pictures/IA100_L60.bmp	Pictures/IA100.bmp	"You'd have a lot to lose"	0	safe					1	0	1	0	0	12	12	2																															1180.337704	None	1182.359713	1183.863678	1183.846981	None	1185.417791	None	1	0.987761181	1187.389668	None	1187.389668	None	1187.389668	None	1188.509284	None	1188.509284	1189.511925	1190.614844	None	1190.614844	None	left	0.602565461	1190.614844	None	1191.266565	1192.603426	None	None													118	1	18	1	2020_Feb_26_1258	Test	3.2.4	59.84194031		
Pictures/IA50_G20.bmp	Pictures/IA50_G20.bmp	Pictures/IA50.bmp	"Let's venture and take a risk!"""""	1	risk					1	0	1	0	0	13	13	5																															1192.620148	None	1194.642161	1196.162844	1196.146125	None	1197.716951	None	2	0.657334942	1199.672106	None	1199.672106	None	1199.672106	None	None	None	None	None	1200.507657	None	1200.507657	None	left	0.197757809	1200.507657	None	1200.741595	1202.512952	None	None													118	1	18	1	2020_Feb_26_1258	Test	3.2.4	59.84194031		
Pictures/IA100_G60.bmp	Pictures/IA100_G60.bmp	Pictures/IA100.bmp	"Be cautious"	0	safe					1	0	1	0	0	14	14	8																															1202.529711	None	1204.551659	1206.072342	1206.055649	None	1207.609738	None	1	0.58780923	1209.581617	None	1209.581617	None	1209.581617	None	1210.316901	None	1210.316901	1211.319546	1212.439178	None	1212.439178	None	right	0.898238315	1212.439178	None	None	None	1213.374965	1214.427752													118	1	18	1	2020_Feb_26_1258	Test	3.2.4	59.84194031		
Pictures/IA75_G60.bmp	Pictures/IA75_G60.bmp	Pictures/IA75.bmp	"Make it exciting"	1	risk					1	0	1	0	0	15	15	6																															1214.444469	None	1216.46648	1217.987167	1217.970444	None	1219.54127	None	2	1.041000237	1221.496427	None	1221.496427	None	1221.496427	None	None	None	None	None	1222.716315	None	1222.716315	None	right	0.261101606	1222.716315	None	None	None	1223.017118	1224.721608													118	1	18	1	2020_Feb_26_1258	Test	3.2.4	59.84194031		
Pictures/IA50_L10.bmp	Pictures/IA50_L10.bmp	Pictures/IA50.bmp	"Play it safe"	0	safe					1	0	1	0	0	16	16	14																															1224.738331	None	1226.760343	1228.281022	1228.264307	None	1229.818419	None	1	1.667127729	1231.790297	None	1231.790297	None	1231.790297	None	1233.578339	None	1233.578339	1234.580988	1235.683906	None	1235.683906	None	None		1235.683906	None	None	None	None	None													118	1	18	1	2020_Feb_26_1258	Test	3.2.4	59.84194031		
Pictures/IA25_G20.bmp	Pictures/IA25_G20.bmp	Pictures/IA25.bmp	"I wouldn't gamble for this one. """""	0	safe					1	0	1	0	0	17	17	12																															1237.706728	None	1239.727946	1241.248604	1241.231907	None	1242.785998	None	1	0.691555961	1244.757876	None	1244.757876	None	1244.757876	None	1245.576715	None	1245.576715	1246.579361	1247.698955	None	1247.698955	None	right	0.622461115	1247.698955	None	None	None	1248.367408	1249.704273													118	1	18	1	2020_Feb_26_1258	Test	3.2.4	59.84194031		
Pictures/IA110_55_G95p.bmp	Pictures/IA110_55_G95p.bmp	Pictures/IA110.bmp	"Take a chance!"""""	1	risk					1	0	1	0	0	18	18	13																															1249.720996	None	1251.743005	1253.263686	1253.246972	None	1254.817796	None	2	0.700465608	1256.77295	None	1256.77295	None	1256.77295	None	None	None	None	None	1257.625212	None	1257.625212	None	left	0.240203639	1257.625212	None	1257.909294	1259.613783	None	None													118	1	18	1	2020_Feb_26_1258	Test	3.2.4	59.84194031		
Pictures/IA75_L60.bmp	Pictures/IA75_L60.bmp	Pictures/IA75.bmp	"Why not take the gamble?"""""	1	risk					1	0	1	0	0	19	19	4																															1259.63051	None	1261.652518	1263.1732	1263.15648	None	1264.727307	None	2	0.774971296	1266.682463	None	1266.682463	None	1266.682463	None	None	None	None	None	1267.618263	None	1267.618263	None	left	0.11915659	1267.618263	None	1267.785383	1269.623565	None	None													118	1	18	1	2020_Feb_26_1258	Test	3.2.4	59.84194031		
										1	0	1	0																																																																									1269.790685	None	return	15.10671687	1269.790685	None	118	1	18	1	2020_Feb_26_1258	Test	3.2.4	59.84194031		
Pictures/IA75_L30.bmp	Pictures/IA75_L30.bmp	Pictures/IA75.bmp	"Hold back"	0	safe					2	0	2	0	0	0	0	17													1285.081082	None	1285.081082	None	1285.081082	None	left	2.160337829	1285.081082	None	1285.081082	None	1285.081082	None	return	3.568117385	1285.081082	None	1288.707313	None	1290.712625	1292.233306	1292.216587	None	1293.720557	None	1	0.827567468	1295.725858	None	1295.725858	None	1295.725858	None	1296.695101	None	1296.695101	1297.697742	1298.800661	None	1298.800661	None	right	1.256751672	1298.800661	None	None	None	1300.104096	None													118	1	18	1	2020_Feb_26_1258	Test	3.2.4	59.84194031		
Pictures/IA50_G10.bmp	Pictures/IA50_G10.bmp	Pictures/IA50.bmp	"Go with the safe option here!"""""	0	safe					2	0	2	0	0	1	1	18																															1300.822652	None	1302.844669	1304.365345	1304.348654	None	1305.85261	None	2	0.678786923	1307.874634	None	1307.874634	None	1307.874634	None	None	None	None	None	1308.710179	None	1308.710179	None	left	0.131237668	1308.710179	None	1308.877266	1310.715469	None	None													118	1	18	1	2020_Feb_26_1258	Test	3.2.4	59.84194031		
Pictures/IA75_G60.bmp	Pictures/IA75_G60.bmp	Pictures/IA75.bmp	"Make it exciting"	1	risk					2	0	2	0	0	2	2	19																															1310.732173	None	1312.754177	1314.274859	1314.258163	None	1315.762125	None	2	1.017282782	1317.784147	None	1317.784147	None	1317.784147	None	None	None	None	None	1318.970616	None	1318.970616	None	right	1.014797292	1318.970616	None	None	None	1320.023397	None													118	1	18	1	2020_Feb_26_1258	Test	3.2.4	59.84194031		
Pictures/IA50_L40.bmp	Pictures/IA50_L40.bmp	Pictures/IA50.bmp	"That gamble doesn't sound too good"	0	safe					2	0	2	0	0	3	3	1																															1320.992664	None	1323.014634	1324.535315	1324.518598	None	1326.022582	None	1	0.852849901	1328.044581	None	1328.044581	None	1328.044581	None	1329.063948	None	1329.063948	1330.066589	1331.202934	None	1331.202934	None	left	0.366477831	1331.202934	None	1331.603976	1333.208214	None	None													118	1	18	1	2020_Feb_26_1258	Test	3.2.4	59.84194031		
Pictures/IA50_G30.bmp	Pictures/IA50_G30.bmp	Pictures/IA50.bmp	"I think you should gamble."""""	1	risk					2	0	2	0	0	4	4	5																															1333.224937	None	1335.246954	1336.767629	1336.750912	None	1338.321739	None	1	1.004533924	1340.276893	None	1340.276893	None	1340.276893	None	1341.41323	None	1341.41323	1342.415886	1343.518792	None	1343.518792	None	left	0.394620155	1343.518792	None	1343.953286	1345.524086	None	None													118	1	18	1	2020_Feb_26_1258	Test	3.2.4	59.84194031		
Pictures/IA100_G60.bmp	Pictures/IA100_G60.bmp	Pictures/IA100.bmp	"Be cautious"	0	safe					2	0	2	0	0	5	5	6																															1345.540809	None	1347.562824	1349.083509	1349.066783	None	1350.570769	None	1	0.792660561	1352.592773	None	1352.592773	None	1352.592773	None	1353.511873	None	1353.511873	1354.514517	1355.617452	None	1355.617452	None	left	0.863932658	1355.617452	None	1356.519807	1357.622729	None	None													118	1	18	1	2020_Feb_26_1258	Test	3.2.4	59.84194031		
Pictures/IA80_40_L95p.bmp	Pictures/IA80_40_L95p.bmp	Pictures/IA80.bmp	"Let's stay with the certain option."""""	0	safe					2	0	2	0	0	6	6	11																															1357.639431	None	1359.661452	1361.182122	1361.165429	None	1362.686082	None	1	0.870032904	1364.691399	None	1364.691399	None	1364.691399	None	1365.694048	None	1365.694048	1366.696692	1367.799616	None	1367.799616	None	right	0.385810054	1367.799616	None	None	None	1368.234102	1369.804905													118	1	18	1	2020_Feb_26_1258	Test	3.2.4	59.84194031		
Pictures/IA50_G40.bmp	Pictures/IA50_G40.bmp	Pictures/IA50.bmp	"It would probably be best to play it safe."""""	0	safe					2	0	2	0	0	7	7	8																															1369.82163	None	1371.843645	1373.364323	1373.347603	None	1374.901725	None	2	0.999817538	1376.8736	None	1376.8736	None	1376.8736	None	None	None	None	None	1378.043343	None	1378.043343	None	right	0.262071466	1378.043343	None	None	None	1378.34415	1380.048637													118	1	18	1	2020_Feb_26_1258	Test	3.2.4	59.84194031		
Pictures/IA100_L60.bmp	Pictures/IA100_L60.bmp	Pictures/IA100.bmp	"You'd have a lot to lose"	0	safe					2	0	2	0	0	8	8	15																															1380.065363	None	1382.087373	1383.608055	1383.591336	None	1385.095322	None	1	0.476106482	1387.117318	None	1387.117318	None	1387.117318	None	1387.718909	None	1387.718909	1388.721553	1389.824473	None	1389.824473	None	left	0.44094204	1389.824473	None	1390.309084	1391.813068	None	None													118	1	18	1	2020_Feb_26_1258	Test	3.2.4	59.84194031		
Pictures/IA80_40_G95p.bmp	Pictures/IA80_40_G95p.bmp	Pictures/IA80.bmp	"Think of the payoff"	1	risk					2	0	2	0	0	9	9	10																															1391.829771	None	1393.851778	1395.372461	1395.355766	None	1396.909857	None	2	0.895693714	1398.881739	None	1398.881739	None	1398.881739	None	None	None	None	None	1399.967953	None	1399.967953	None	left	0.2814685	1399.967953	None	1400.285455	1401.956534	None	None													118	1	18	1	2020_Feb_26_1258	Test	3.2.4	59.84194031		
Pictures/IA75_L15.bmp	Pictures/IA75_L15.bmp	Pictures/IA75.bmp	"Trust me–gamble!"""""	1	risk					2	0	2	0	0	10	10	9																															1401.973234	None	1403.995245	1405.51593	1405.499235	None	1407.053334	None	1	0.48822102	1409.025204	None	1409.025204	None	1409.025204	None	1409.610103	None	1409.610103	1410.612741	1411.715662	None	1411.715662	None	right	0.837764883	1411.715662	None	None	None	1412.601332	1413.704233													118	1	18	1	2020_Feb_26_1258	Test	3.2.4	59.84194031		
Pictures/IA40_20_L95p.bmp	Pictures/IA40_20_L95p.bmp	Pictures/IA40.bmp	"Trust me"	1	risk					2	0	2	0	0	11	11	14																															1413.720956	None	1415.759679	1417.263638	1417.246943	None	1418.767615	None	1	0.37251672	1420.772914	None	1420.772914	None	1420.772914	None	1421.257527	None	1421.257527	1422.260174	1423.379805	None	1423.379805	None	right	0.421615075	1423.379805	None	None	None	1423.847714	1425.385109													118	1	18	1	2020_Feb_26_1258	Test	3.2.4	59.84194031		
Pictures/IA20_10_L95p.bmp	Pictures/IA20_10_L95p.bmp	Pictures/IA20.bmp	"Don't be tempted to gamble."""""	0	safe					2	0	2	0	0	12	12	12																															1425.401806	None	1427.423821	1428.944501	1428.927812	None	1430.465195	None	2	0.2196371	1432.453791	None	1432.453791	None	1432.453791	None	None	None	None	None	1432.838091	None	1432.838091	None	right	0.227314739	1432.838091	None	None	None	1433.10551	1434.843435													118	1	18	1	2020_Feb_26_1258	Test	3.2.4	59.84194031		
Pictures/IA75_L45.bmp	Pictures/IA75_L45.bmp	Pictures/IA75.bmp	"Don't gamble for this one"	0	safe					2	0	2	0	0	13	13	16																															1434.860136	None	1436.882147	1438.402828	1438.386137	None	1439.923515	None	1	0.689308184	1441.912119	None	1441.912119	None	1441.912119	None	1442.74765	None	1442.74765	1443.750291	1444.853211	None	1444.853211	None	left	0.292215915	1444.853211	None	1445.187434	1446.85852	None	None													118	1	18	1	2020_Feb_26_1258	Test	3.2.4	59.84194031		
Pictures/IA20_10_G95p.bmp	Pictures/IA20_10_G95p.bmp	Pictures/IA20.bmp	"Take a leap"	1	risk					2	0	2	0	0	14	14	2																															1446.875217	None	1448.897227	1450.401199	1450.384469	None	1451.955322	None	1	0.394224549	1453.9272	None	1453.9272	None	1453.9272	None	1454.461933	None	1454.461933	1455.464578	1456.567499	None	1456.567499	None	left	0.337916081	1456.567499	None	1456.951841	1458.556079	None	None													118	1	18	1	2020_Feb_26_1258	Test	3.2.4	59.84194031		
Pictures/IA100_L40.bmp	Pictures/IA100_L40.bmp	Pictures/IA100.bmp	"Think of the payoff"	1	risk					2	0	2	0	0	15	15	4																															1458.572805	None	1460.594815	1462.115499	1462.098781	None	1463.61948	None	2	0.992650839	1465.624775	None	1465.624775	None	1465.624775	None	None	None	None	None	1466.77781	None	1466.77781	None	left	0.191621666	1466.77781	None	1467.011775	1468.783105	None	None													118	1	18	1	2020_Feb_26_1258	Test	3.2.4	59.84194031		
Pictures/IA75_G15.bmp	Pictures/IA75_G15.bmp	Pictures/IA75.bmp	"Take a chance!"""""	1	risk					2	0	2	0	0	16	16	7																															1468.799829	None	1470.821843	1472.342541	1472.325807	None	1473.86321	None	1	1.101648562	1475.851788	None	1475.851788	None	1475.851788	None	1477.038269	None	1477.038269	1478.040913	1479.143833	None	1479.143833	None	left	0.273581798	1479.143833	None	1479.461337	1481.149116	None	None													118	1	18	1	2020_Feb_26_1258	Test	3.2.4	59.84194031		
Pictures/IA110_55_G95p.bmp	Pictures/IA110_55_G95p.bmp	Pictures/IA110.bmp	"Take a chance!"""""	1	risk					2	0	2	0	0	17	17	13																															1481.16584	None	1483.187851	1484.708534	1484.691814	None	1486.195803	None	2	0.94362757	1488.2178	None	1488.2178	None	1488.2178	None	None	None	None	None	1489.287291	None	1489.287291	None	left	0.57012922	1489.287291	None	1489.90559	1491.275887	None	None													118	1	18	1	2020_Feb_26_1258	Test	3.2.4	59.84194031		
Pictures/IA25_L10.bmp	Pictures/IA25_L10.bmp	Pictures/IA25.bmp	"Dont be afraid to take the risk!"""""	1	risk					2	0	2	0	0	18	18	0																															1491.292586	None	1493.3146	1494.835288	1494.818587	None	1496.355969	None	2	0.752853083	1498.344579	None	1498.344579	None	1498.344579	None	None	None	None	None	1499.263653	None	1499.263653	None	right	0.193763947	1499.263653	None	None	None	1499.497616	1501.26896													118	1	18	1	2020_Feb_26_1258	Test	3.2.4	59.84194031		
Pictures/IA25_L5.bmp	Pictures/IA25_L5.bmp	Pictures/IA25.bmp	"It would be smarter to choose the safe option."""""	0	safe					2	0	2	0	0	19	19	3																															1501.285661	None	1503.307638	1504.828355	1504.811662	None	1506.365754	None	2	0.303794058	1508.337633	None	1508.337633	None	1508.337633	None	None	None	None	None	1508.822247	None	1508.822247	None	right	0.299167631	1508.822247	None	None	None	1509.156472	1510.827545													118	1	18	1	2020_Feb_26_1258	Test	3.2.4	59.84194031		
										2	0	2	0																																																																									1510.994666	None	return	12.67874567	1510.994666	None	118	1	18	1	2020_Feb_26_1258	Test	3.2.4	59.84194031		
Pictures/IA25_L10.bmp	Pictures/IA25_L10.bmp	Pictures/IA25.bmp	"Dont be afraid to take the risk!"""""	1	risk					3	0	3	0	0	0	0	5													1523.828574	None	1523.828574	None	1523.828574	None	left	5.732835036	1523.828574	None	1523.828574	None	1523.828574	None	return	8.3407188	1523.828574	None	1532.217371	None	1534.239411	1535.760096	1535.743404	None	1537.247371	None	2	0.476759221	1539.252673	None	1539.252673	None	1539.252673	None	None	None	None	None	1539.937822	None	1539.937822	None	right	0.391592519	1539.937822	None	None	None	1540.372286	1541.943111													118	1	18	1	2020_Feb_26_1258	Test	3.2.4	59.84194031		
Pictures/IA75_L15.bmp	Pictures/IA75_L15.bmp	Pictures/IA75.bmp	"Trust me–gamble!"""""	1	risk					3	0	3	0	0	1	1	18																															1541.95981	None	1543.981821	1545.503651	1545.485841	None	1547.039932	None	1	0.317607661	1549.011805	None	1549.011805	None	1549.011805	None	1549.429567	None	1549.429567	1550.432241	1551.585282	None	1551.585282	None	right	0.808124885	1551.585282	None	None	None	1552.4375	1553.573866													118	1	18	1	2020_Feb_26_1258	Test	3.2.4	59.84194031		
Pictures/IA25_G15.bmp	Pictures/IA25_G15.bmp	Pictures/IA25.bmp	"I think you should take a gamble."""""	1	risk					3	0	3	0	0	2	2	9																															1553.590559	None	1555.612563	1557.133244	1557.11655	None	1558.653935	None	2	0.526894612	1560.642532	None	1560.642532	None	1560.642532	None	None	None	None	None	1561.377795	None	1561.377795	None	left	0.191623231	1561.377795	None	1561.611755	1563.383107	None	None													118	1	18	1	2020_Feb_26_1258	Test	3.2.4	59.84194031		
Pictures/IA75_G45.bmp	Pictures/IA75_G45.bmp	Pictures/IA75.bmp	"Don't gamble for this one."""""	0	safe					3	0	3	0	0	3	3	6																															1563.399801	None	1565.421814	1566.942497	1566.925803	None	1568.446476	None	2	0.605653919	1570.451775	None	1570.451775	None	1570.451775	None	None	None	None	None	1571.220472	None	1571.220472	None	left	0.220950341	1571.220472	None	1571.487879	1573.225782	None	None													118	1	18	1	2020_Feb_26_1258	Test	3.2.4	59.84194031		
Pictures/IA25_L15.bmp	Pictures/IA25_L15.bmp	Pictures/IA25.bmp	"There's not much on the line here"	1	risk					3	0	3	0	0	4	4	13																															1573.242478	None	1575.264493	1576.785174	1576.768479	None	1578.289153	None	2	0.682972499	1580.294451	None	1580.294451	None	1580.294451	None	None	None	None	None	1581.163415	None	1581.163415	None	left	0.182017914	1581.163415	None	1581.380652	1583.152012	None	None													118	1	18	1	2020_Feb_26_1258	Test	3.2.4	59.84194031		
Pictures/IA50_L30.bmp	Pictures/IA50_L30.bmp	Pictures/IA50.bmp	"Take a leap"	1	risk					3	0	3	0	0	5	5	19																															1583.16871	None	1585.190724	1586.711407	1586.694715	None	1588.248775	None	2	0.500741857	1590.220684	None	1590.220684	None	1590.220684	None	None	None	None	None	1590.889126	None	1590.889126	None	left	0.080302013	1590.889126	None	1591.006101	1592.877715	None	None													118	1	18	1	2020_Feb_26_1258	Test	3.2.4	59.84194031		
Pictures/IA25_G5.bmp	Pictures/IA25_G5.bmp	Pictures/IA25.bmp	"Let's stay with the certain option."""""	0	safe					3	0	3	0	0	6	6	2																															1592.894415	None	1594.916428	1596.420409	1596.403689	None	1597.974505	None	1	0.375039192	1599.946386	None	1599.946386	None	1599.946386	None	1600.447714	None	1600.447714	1601.450353	1602.569984	None	1602.569984	None	left	0.383428039	1602.569984	None	1602.987752	1604.558581	None	None													118	1	18	1	2020_Feb_26_1258	Test	3.2.4	59.84194031		
Pictures/IA50_G40.bmp	Pictures/IA50_G40.bmp	Pictures/IA50.bmp	"It would probably be best to play it safe."""""	0	safe					3	0	3	0	0	7	7	3																															1604.575279	None	1606.597291	1608.117974	1608.101279	None	1609.605243	None	2	0.470158394	1611.627264	None	1611.627264	None	1611.627264	None	None	None	None	None	1612.278988	None	1612.278988	None	right	0.186427609	1612.278988	None	None	None	1612.512923	1614.284283													118	1	18	1	2020_Feb_26_1258	Test	3.2.4	59.84194031		
Pictures/IA50_L10.bmp	Pictures/IA50_L10.bmp	Pictures/IA50.bmp	"Play it safe"	0	safe					3	0	3	0	0	8	8	11																															1614.300981	None	1616.322996	1617.843678	1617.826982	None	1619.347664	None	2	0.624469598	1621.352956	None	1621.352956	None	1621.352956	None	None	None	None	None	1622.138376	None	1622.138376	None	right	0.039047291	1622.138376	None	None	None	1622.221925	1624.143673													118	1	18	1	2020_Feb_26_1258	Test	3.2.4	59.84194031		
Pictures/IA100_G60.bmp	Pictures/IA100_G60.bmp	Pictures/IA100.bmp	"Be cautious"	0	safe					3	0	3	0	0	9	9	0																															1624.16037	None	1626.182404	1627.703066	1627.686371	None	1629.223757	None	2	0.52507277	1631.212356	None	1631.212356	None	1631.212356	None	None	None	None	None	1631.914199	None	1631.914199	None	left	0.175227567	1631.914199	None	1632.131438	1633.902794	None	None													118	1	18	1	2020_Feb_26_1258	Test	3.2.4	59.84194031		
Pictures/IA110_55_L95p.bmp	Pictures/IA110_55_L95p.bmp	Pictures/IA110.bmp	"Trust me"	1	risk					3	0	3	0	0	10	10	15																															1633.919493	None	1635.941507	1637.462191	1637.445495	None	1638.982876	None	2	0.453952843	1640.971479	None	1640.971479	None	1640.971479	None	None	None	None	None	1641.589765	None	1641.589765	None	right	0.043661474	1641.589765	None	None	None	1641.67333	1643.578364													118	1	18	1	2020_Feb_26_1258	Test	3.2.4	59.84194031		
Pictures/IA100_G20.bmp	Pictures/IA100_G20.bmp	Pictures/IA100.bmp	"Go ahead and gamble!"""""	1	risk					3	0	3	0	0	11	11	1																															1643.595064	None	1645.633785	1647.137769	1647.12105	None	1648.67517	None	2	0.25837826	1650.647046	None	1650.647046	None	1650.647046	None	None	None	None	None	1651.064808	None	1651.064808	None	left	1.144608896	1651.064808	None	1652.251272	None	None	None													118	1	18	1	2020_Feb_26_1258	Test	3.2.4	59.84194031		
Pictures/IA75_G30.bmp	Pictures/IA75_G30.bmp	Pictures/IA75.bmp	"Be bold"	1	risk					3	0	3	0	0	12	12	14																															1653.070112	None	1655.092124	1656.612809	1656.59609	None	1658.133498	None	2	0.375354484	1660.122075	None	1660.122075	None	1660.122075	None	None	None	None	None	1660.656831	None	1660.656831	None	left	1.328577045	1660.656831	None	1661.358687	1662.66213	None	None													118	1	18	1	2020_Feb_26_1258	Test	3.2.4	59.84194031		
Pictures/IA20_10_L95p.bmp	Pictures/IA20_10_L95p.bmp	Pictures/IA20.bmp	"Don't be tempted to gamble."""""	0	safe					3	0	3	0	0	13	13	8																															1662.678842	None	1664.700853	1666.221534	1666.204817	None	1667.742222	None	2	0.270628399	1669.7308	None	1669.7308	None	1669.7308	None	None	None	None	None	1670.181995	None	1670.181995	None	right	0.651419532	1670.181995	None	None	None	1670.867132	1672.170587													118	1	18	1	2020_Feb_26_1258	Test	3.2.4	59.84194031		
Pictures/IA100_L60.bmp	Pictures/IA100_L60.bmp	Pictures/IA100.bmp	"You'd have a lot to lose"	0	safe					3	0	3	0	0	14	14	7																															1672.187288	None	1674.209299	1675.729984	1675.713289	None	1677.250673	None	2	0.698152402	1679.239272	None	1679.239272	None	1679.239272	None	None	None	None	None	1680.108185	None	1680.108185	None	left	0.061231272	1680.108185	None	1680.208496	1682.113518	None	None													118	1	18	1	2020_Feb_26_1258	Test	3.2.4	59.84194031		
Pictures/IA75_L30.bmp	Pictures/IA75_L30.bmp	Pictures/IA75.bmp	"Hold back"	0	safe					3	0	3	0	0	15	15	10																															1682.130241	None	1684.152256	1685.672941	1685.656256	None	1687.176913	None	2	1.03521724	1689.182214	None	1689.182214	None	1689.182214	None	None	None	None	None	1690.38538	None	1690.38538	None	right	0.224036094	1690.38538	None	None	None	1690.652763	1692.390688													118	1	18	1	2020_Feb_26_1258	Test	3.2.4	59.84194031		
Pictures/IA75_L60.bmp	Pictures/IA75_L60.bmp	Pictures/IA75.bmp	"Why not take the gamble?"""""	1	risk					3	0	3	0	0	16	16	17																															1692.407386	None	1694.429398	1695.950082	1695.933388	None	1697.47077	None	2	0.750044748	1699.459372	None	1699.459372	None	1699.459372	None	None	None	None	None	1700.378467	None	1700.378467	None	left	0.126948711	1700.378467	None	1700.54556	1702.383762	None	None													118	1	18	1	2020_Feb_26_1258	Test	3.2.4	59.84194031		
Pictures/IA110_55_G95p.bmp	Pictures/IA110_55_G95p.bmp	Pictures/IA110.bmp	"Take a chance!"""""	1	risk					3	0	3	0	0	17	17	16																															1702.400461	None	1704.422473	1705.943155	1705.926462	None	1707.463842	None	2	0.532969167	1709.452454	None	1709.452454	None	1709.452454	None	None	None	None	None	1710.154292	None	1710.154292	None	left	0.111112189	1710.154292	None	1710.304681	1712.142887	None	None													118	1	18	1	2020_Feb_26_1258	Test	3.2.4	59.84194031		
Pictures/IA50_L40.bmp	Pictures/IA50_L40.bmp	Pictures/IA50.bmp	"That gamble doesn't sound too good"	0	safe					3	0	3	0	0	18	18	12																															1712.159582	None	1714.198305	1715.718995	1715.702292	None	1717.2564	None	2	0.533865525	1719.211556	None	1719.211556	None	1719.211556	None	None	None	None	None	1719.930134	None	1719.930134	None	left	0.607282228	1719.930134	None	1720.581852	1721.918718	None	None													118	1	18	1	2020_Feb_26_1258	Test	3.2.4	59.84194031		
Pictures/IA75_G60.bmp	Pictures/IA75_G60.bmp	Pictures/IA75.bmp	"Make it exciting"	1	risk					3	0	3	0	0	19	19	4																															1721.935417	None	1723.990849	1725.494834	1725.478115	None	1727.015533	None	2	0.766029689	1728.987388	None	1728.987388	None	1728.987388	None	None	None	None	None	1729.956633	None	1729.956633	None	right	0.100782097	1729.956633	None	None	None	1730.107372	1731.9452													118	1	18	1	2020_Feb_26_1258	Test	3.2.4	59.84194031		
										3	0	3	0																																																																									1732.112324	None	return	6.457083262	1732.112324	None	118	1	18	1	2020_Feb_26_1258	Test	3.2.4	59.84194031		
Pictures/IA50_L30.bmp	Pictures/IA50_L30.bmp	Pictures/IA50.bmp	"Take a leap"	1	risk					4	0	4	0	0	0	0	8													1738.746525	None	1738.746525	None	1738.746525	None	left	1.862894473	1738.746525	None	1738.746525	None	1738.746525	None	return	4.622684487	1738.746525	None	1743.425551	None	1745.430837	1746.951519	1746.934826	None	1748.455508	None	2	0.805342135	1750.444086	None	1750.444086	None	1750.444086	None	None	None	None	None	1751.430024	None	1751.430024	None	left	0.131381533	1751.430024	None	1751.597142	1753.435319	None	None													118	1	18	1	2020_Feb_26_1258	Test	3.2.4	59.84194031		
Pictures/IA25_L15.bmp	Pictures/IA25_L15.bmp	Pictures/IA25.bmp	"There's not much on the line here"	1	risk					4	0	4	0	0	1	1	2																															1753.452044	None	1755.507481	1757.011435	1756.994742	None	1758.515426	None	1	0.441428653	1760.503996	None	1760.503996	None	1760.503996	None	1761.088879	None	1761.088879	1762.091523	1763.227866	None	1763.227866	None	left	0.845558133	1763.227866	None	1764.113536	1765.216463	None	None													118	1	18	1	2020_Feb_26_1258	Test	3.2.4	59.84194031		
Pictures/IA100_L40.bmp	Pictures/IA100_L40.bmp	Pictures/IA100.bmp	"Think of the payoff"	1	risk					4	0	4	0	0	2	2	0																															1765.23316	None	1767.288594	1768.792577	1768.775857	None	1770.329967	None	2	0.492293559	1772.285143	None	1772.285143	None	1772.285143	None	None	None	None	None	1773.037116	None	1773.037116	None	right	0.252300587	1773.037116	None	None	None	1773.337925	1775.04241													118	1	18	1	2020_Feb_26_1258	Test	3.2.4	59.84194031		
Pictures/IA50_G20.bmp	Pictures/IA50_G20.bmp	Pictures/IA50.bmp	"Let's venture and take a risk!"""""	1	risk					4	0	4	0	0	3	3	16																															1775.059135	None	1777.081147	1778.60183	1778.585111	None	1780.139227	None	2	0.258322458	1782.111107	None	1782.111107	None	1782.111107	None	None	None	None	None	1782.528867	None	1782.528867	None	left	0.208549834	1782.528867	None	1782.779523	1784.517448	None	None													118	1	18	1	2020_Feb_26_1258	Test	3.2.4	59.84194031		
Pictures/IA50_G40.bmp	Pictures/IA50_G40.bmp	Pictures/IA50.bmp	"It would probably be best to play it safe."""""	0	safe					4	0	4	0	0	4	4	1																															1784.534174	None	1786.556183	1788.076866	1788.060152	None	1789.614262	None	2	0.863275601	1791.586141	None	1791.586141	None	1791.586141	None	None	None	None	None	1792.638912	None	1792.638912	None	right	0.122503335	1792.638912	None	None	None	1792.806028	1794.644205													118	1	18	1	2020_Feb_26_1258	Test	3.2.4	59.84194031		
Pictures/IA100_G20.bmp	Pictures/IA100_G20.bmp	Pictures/IA100.bmp	"Go ahead and gamble!"""""	1	risk					4	0	4	0	0	5	5	14																															1794.660944	None	1796.682943	1798.203627	1798.186905	None	1799.757731	None	2	0.392537051	1801.712888	None	1801.712888	None	1801.712888	None	None	None	None	None	1802.264357	None	1802.264357	None	left	0.23305535	1802.264357	None	1802.531781	1804.269639	None	None													118	1	18	1	2020_Feb_26_1258	Test	3.2.4	59.84194031		
Pictures/IA75_L60.bmp	Pictures/IA75_L60.bmp	Pictures/IA75.bmp	"Why not take the gamble?"""""	1	risk					4	0	4	0	0	6	6	18																															1804.286366	None	1806.308375	1807.829058	1807.812342	None	1809.33303	None	2	0.751089899	1811.338333	None	1811.338333	None	1811.338333	None	None	None	None	None	1812.240716	None	1812.240716	None	left	0.240696094	1812.240716	None	1812.524796	1814.229318	None	None													118	1	18	1	2020_Feb_26_1258	Test	3.2.4	59.84194031		
Pictures/IA50_L20.bmp	Pictures/IA50_L20.bmp	Pictures/IA50.bmp	"Certainty is boring"	1	risk					4	0	4	0	0	7	7	10																															1814.246012	None	1816.268022	1817.788706	1817.771984	None	1819.342813	None	2	0.575458234	1821.297966	None	1821.297966	None	1821.297966	None	None	None	None	None	1822.033241	None	1822.033241	None	right	0.104176057	1822.033241	None	None	None	1822.183637	1824.021842													118	1	18	1	2020_Feb_26_1258	Test	3.2.4	59.84194031		
Pictures/IA40_20_G95p.bmp	Pictures/IA40_20_G95p.bmp	Pictures/IA40.bmp	"Hold back"	0	safe					4	0	4	0	0	8	8	15																															1824.038537	None	1826.09397	1827.597955	1827.581236	None	1829.118629	None	2	0.246931775	1831.090508	None	1831.090508	None	1831.090508	None	None	None	None	None	1831.508277	None	1831.508277	None	left	0.589139768	1831.508277	None	1832.143295	1833.513573	None	None													118	1	18	1	2020_Feb_26_1258	Test	3.2.4	59.84194031		
Pictures/IA40_20_L95p.bmp	Pictures/IA40_20_L95p.bmp	Pictures/IA40.bmp	"Trust me"	1	risk					4	0	4	0	0	9	9	17																															1833.530297	None	1835.552302	1837.056264	1837.039568	None	1838.610385	None	2	0.259164215	1840.582262	None	1840.582262	None	1840.582262	None	None	None	None	None	1841.016729	None	1841.016729	None	right	0.016708492	1841.016729	None	None	None	1841.066861	1843.005314													118	1	18	1	2020_Feb_26_1258	Test	3.2.4	59.84194031		
Pictures/IA100_G80.bmp	Pictures/IA100_G80.bmp	Pictures/IA100.bmp	"Why not gamble?"""""	1	risk					4	0	4	0	0	10	10	3																															1843.022037	None	1845.044051	1846.56473	1846.548012	None	1848.155692	None	1	0.439422579	1850.074004	None	1850.074004	None	1850.074004	None	1850.60875	None	1850.60875	1851.611395	1852.747736	None	1852.747736	None	right	1.277678691	1852.747736	None	None	None	1854.067886	None													118	1	18	1	2020_Feb_26_1258	Test	3.2.4	59.84194031		
Pictures/IA25_L5.bmp	Pictures/IA25_L5.bmp	Pictures/IA25.bmp	"It would be smarter to choose the safe option."""""	0	safe					4	0	4	0	0	11	11	4																															1854.75298	None	1856.775028	1858.295708	1858.279018	None	1859.833106	None	1	0.740475196	1861.804986	None	1861.804986	None	1861.804986	None	1862.690661	None	1862.690661	1863.693307	1864.829655	None	1864.829655	None	right	0.283761924	1864.829655	None	None	None	1865.147143	1866.818224													118	1	18	1	2020_Feb_26_1258	Test	3.2.4	59.84194031		
Pictures/IA50_G30.bmp	Pictures/IA50_G30.bmp	Pictures/IA50.bmp	"I think you should gamble."""""	1	risk					4	0	4	0	0	12	12	7																															1866.834949	None	1868.85696	1870.377638	1870.360921	None	1871.915039	None	2	0.642492246	1873.886929	None	1873.886929	None	1873.886929	None	None	None	None	None	1874.705744	None	1874.705744	None	left	0.047666073	1874.705744	None	1874.789296	1876.694316	None	None													118	1	18	1	2020_Feb_26_1258	Test	3.2.4	59.84194031		
Pictures/IA75_L15.bmp	Pictures/IA75_L15.bmp	Pictures/IA75.bmp	"Trust me–gamble!"""""	1	risk					4	0	4	0	0	13	13	11																															1876.711041	None	1878.733052	1880.253729	1880.237015	None	1881.791126	None	2	0.846414714	1883.763003	None	1883.763003	None	1883.763003	None	None	None	None	None	1884.765652	None	1884.765652	None	right	0.235766068	1884.765652	None	None	None	1885.049734	1886.754228													118	1	18	1	2020_Feb_26_1258	Test	3.2.4	59.84194031		
Pictures/IA100_L60.bmp	Pictures/IA100_L60.bmp	Pictures/IA100.bmp	"You'd have a lot to lose"	0	safe					4	0	4	0	0	14	14	13																															1886.77095	None	1888.792951	1890.313637	1890.296918	None	1891.867743	None	1	0.746523238	1893.822902	None	1893.822902	None	1893.822902	None	1894.70857	None	1894.70857	1895.711216	1896.814137	None	1896.814137	None	left	0.387277225	1896.814137	None	1897.248623	1898.819426	None	None													118	1	18	1	2020_Feb_26_1258	Test	3.2.4	59.84194031		
Pictures/IA80_40_G95p.bmp	Pictures/IA80_40_G95p.bmp	Pictures/IA80.bmp	"Think of the payoff"	1	risk					4	0	4	0	0	15	15	6																															1898.836155	None	1900.89158	1902.395542	1902.378845	None	1903.916238	None	2	0.393324667	1905.888116	None	1905.888116	None	1905.888116	None	None	None	None	None	1906.45627	None	1906.45627	None	left	0.217147252	1906.45627	None	1906.706929	1908.444851	None	None													118	1	18	1	2020_Feb_26_1258	Test	3.2.4	59.84194031		
Pictures/IA80_40_L95p.bmp	Pictures/IA80_40_L95p.bmp	Pictures/IA80.bmp	"Let's stay with the certain option."""""	0	safe					4	0	4	0	0	16	16	9																															1908.461574	None	1910.483584	1912.004266	1911.987552	None	1913.541663	None	1	0.22386453	1915.513562	None	1915.513562	None	1915.513562	None	1915.881166	None	1915.881166	1916.883811	1917.986726	None	1917.986726	None	right	0.366688475	1917.986726	None	None	None	1918.387798	1919.992032													118	1	18	1	2020_Feb_26_1258	Test	3.2.4	59.84194031		
Pictures/IA100_L20.bmp	Pictures/IA100_L20.bmp	Pictures/IA100.bmp	"Try to win as much money as you can"	1	risk					4	0	4	0	0	17	17	12																															1920.008731	None	1922.03074	1923.551422	1923.534727	None	1925.088817	None	1	0.348724485	1927.060699	None	1927.060699	None	1927.060699	None	1927.545309	None	1927.545309	1928.54795	1929.684293	None	1929.684293	None	right	0.365117207	1929.684293	None	None	None	1930.085367	1931.689598													118	1	18	1	2020_Feb_26_1258	Test	3.2.4	59.84194031		
Pictures/IA25_G20.bmp	Pictures/IA25_G20.bmp	Pictures/IA25.bmp	"I wouldn't gamble for this one. """""	0	safe					4	0	4	0	0	18	18	19																															1931.706295	None	1933.728301	1935.248985	1935.232289	None	1936.786381	None	2	0.427157967	1938.758266	None	1938.758266	None	1938.758266	None	None	None	None	None	1939.359856	None	1939.359856	None	right	0.185544495	1939.359856	None	None	None	1939.593798	1941.365142													118	1	18	1	2020_Feb_26_1258	Test	3.2.4	59.84194031		
Pictures/IA110_55_L95p.bmp	Pictures/IA110_55_L95p.bmp	Pictures/IA110.bmp	"Trust me"	1	risk					4	0	4	0	0	19	19	5																															1941.381863	None	1943.403871	1944.924552	1944.907839	None	1946.461948	None	1	0.279590412	1948.433826	None	1948.433826	None	1948.433826	None	1948.801426	None	1948.801426	1949.804105	1950.907024	None	1950.907024	None	right	0.414388293	1950.907024	None	None	None	1951.358213	1952.912305													118	1	18	1	2020_Feb_26_1258	Test	3.2.4	59.84194031		
										4	0	4	0																																																																									1953.079429	None	return	3.44998133	1953.079429	None	118	1	18	1	2020_Feb_26_1258	Test	3.2.4	59.84194031		
Pictures/IA20_10_L95p.bmp	Pictures/IA20_10_L95p.bmp	Pictures/IA20.bmp	"Don't be tempted to gamble."""""	0	safe					5	0	5	0	0	0	0	0													1956.68896	None	1956.68896	None	1956.68896	None	left	1.432447838	1956.68896	None	1956.68896	None	1956.68896	None	return	4.440262947	1956.68896	None	1961.18415	None	1963.206139	1964.726852	1964.710134	None	1966.230828	None	None		1968.202707	None	1968.202707	None	1968.202707	None	None	None	None	None	1971.310899	None	1971.310899	None	right	0.898515474	1971.310899	None	None	None	1972.246716	1973.316204													118	1	18	1	2020_Feb_26_1258	Test	3.2.4	59.84194031		
Pictures/IA50_G20.bmp	Pictures/IA50_G20.bmp	Pictures/IA50.bmp	"Let's venture and take a risk!"""""	1	risk					5	0	5	0	0	1	1	1																															1973.332902	None	1975.35491	1976.875591	1976.858899	None	1978.362855	None	2	1.944556504	1980.384877	None	1980.384877	None	1980.384877	None	None	None	None	None	1982.507149	None	1982.507149	None	left	0.230254497	1982.507149	None	1982.774503	1984.512425	None	None													118	1	18	1	2020_Feb_26_1258	Test	3.2.4	59.84194031		
Pictures/IA100_L40.bmp	Pictures/IA100_L40.bmp	Pictures/IA100.bmp	"Think of the payoff"	1	risk					5	0	5	0	0	2	2	7																															1984.529149	None	1986.551156	1988.071837	1988.055118	None	1989.559103	None	1	0.22832872	1991.581095	None	1991.581095	None	1991.581095	None	1991.932033	None	1991.932033	1992.934677	1994.054306	None	1994.054306	None	right	0.819098964	1994.054306	None	None	None	1994.923253	1996.059586													118	1	18	1	2020_Feb_26_1258	Test	3.2.4	59.84194031		
Pictures/IA75_L15.bmp	Pictures/IA75_L15.bmp	Pictures/IA75.bmp	"Trust me–gamble!"""""	1	risk					5	0	5	0	0	3	3	6																															1996.076307	None	1998.09884	1999.618996	1999.602277	None	2001.139682	None	2	0.585168289	2003.128254	None	2003.128254	None	2003.128254	None	None	None	None	None	2003.896969	None	2003.896969	None	right	0.20845602	2003.896969	None	None	None	2004.14763	2005.885544													118	1	18	1	2020_Feb_26_1258	Test	3.2.4	59.84194031		
Pictures/IA100_L20.bmp	Pictures/IA100_L20.bmp	Pictures/IA100.bmp	"Try to win as much money as you can"	1	risk					5	0	5	0	0	4	4	8																															2005.902243	None	2007.92425	2009.444931	2009.428234	None	2010.965613	None	2	0.2952147	2012.954216	None	2012.954216	None	2012.954216	None	None	None	None	None	2013.422105	None	2013.422105	None	right	0.723313191	2013.422105	None	None	None	2014.190806	2015.427393													118	1	18	1	2020_Feb_26_1258	Test	3.2.4	59.84194031		
Pictures/IA75_L30.bmp	Pictures/IA75_L30.bmp	Pictures/IA75.bmp	"Hold back"	0	safe					5	0	5	0	0	5	5	2																															2015.444117	None	2017.466124	2018.986804	2018.970085	None	2020.540915	None	1	0.28937037	2022.496061	None	2022.496061	None	2022.496061	None	2022.930555	None	2022.930555	2023.933198	2025.036117	None	2025.036117	None	left	0.221295112	2025.036117	None	2025.303471	2027.041395	None	None													118	1	18	1	2020_Feb_26_1258	Test	3.2.4	59.84194031		
Pictures/IA75_G30.bmp	Pictures/IA75_G30.bmp	Pictures/IA75.bmp	"Be bold"	1	risk					5	0	5	0	0	6	6	12																															2027.058118	None	2029.080128	2030.600806	2030.584088	None	2032.154908	None	1	0.675375319	2034.110061	None	2034.110061	None	2034.110061	None	2034.878757	None	2034.878757	2035.881401	2037.017742	None	2037.017742	None	left	0.47166956	2037.017742	None	2037.535774	2039.023041	None	None													118	1	18	1	2020_Feb_26_1258	Test	3.2.4	59.84194031		
Pictures/IA50_G10.bmp	Pictures/IA50_G10.bmp	Pictures/IA50.bmp	"Go with the safe option here!"""""	0	safe					5	0	5	0	0	7	7	17																															2039.03974	None	2041.061748	2042.582435	2042.565765	None	2044.119822	None	2	0.23773359	2046.091696	None	2046.091696	None	2046.091696	None	None	None	None	None	2046.526177	None	2046.526177	None	left	0.211229768	2046.526177	None	2046.776837	2048.514755	None	None													118	1	18	1	2020_Feb_26_1258	Test	3.2.4	59.84194031		
Pictures/IA40_20_L95p.bmp	Pictures/IA40_20_L95p.bmp	Pictures/IA40.bmp	"Trust me"	1	risk					5	0	5	0	0	8	8	15																															2048.531479	None	2050.553496	2052.074171	2052.057448	None	2053.578143	None	2	0.585989222	2055.583438	None	2055.583438	None	2055.583438	None	None	None	None	None	2056.335414	None	2056.335414	None	right	0.154004189	2056.335414	None	None	None	2056.53595	2058.340712													118	1	18	1	2020_Feb_26_1258	Test	3.2.4	59.84194031		
Pictures/IA25_G5.bmp	Pictures/IA25_G5.bmp	Pictures/IA25.bmp	"Let's stay with the certain option."""""	0	safe					5	0	5	0	0	9	9	10																															2058.357408	None	2060.379414	2061.900096	2061.883415	None	2063.437491	None	2	0.440066515	2065.409364	None	2065.409364	None	2065.409364	None	None	None	None	None	2066.027665	None	2066.027665	None	left	0.229742019	2066.027665	None	2066.295045	2068.03297	None	None													118	1	18	1	2020_Feb_26_1258	Test	3.2.4	59.84194031		
Pictures/IA50_L30.bmp	Pictures/IA50_L30.bmp	Pictures/IA50.bmp	"Take a leap"	1	risk					5	0	5	0	0	10	10	14																															2068.049666	None	2070.071674	2071.592348	2071.575666	None	2073.096326	None	2	0.747798952	2075.101618	None	2075.101618	None	2075.101618	None	None	None	None	None	2076.020711	None	2076.020711	None	left	1.14869472	2076.020711	None	2077.207172	None	None	None													118	1	18	1	2020_Feb_26_1258	Test	3.2.4	59.84194031		
Pictures/IA50_L40.bmp	Pictures/IA50_L40.bmp	Pictures/IA50.bmp	"That gamble doesn't sound too good"	0	safe					5	0	5	0	0	11	11	13																															2078.026014	None	2080.04802	2081.551979	2081.535281	None	2083.089385	None	1	0.251482963	2085.077953	None	2085.077953	None	2085.077953	None	2085.47899	None	2085.47899	2086.481669	2087.584589	None	2087.584589	None	left	0.72882706	2087.584589	None	2088.353268	2089.589875	None	None													118	1	18	1	2020_Feb_26_1258	Test	3.2.4	59.84194031		
Pictures/IA50_L20.bmp	Pictures/IA50_L20.bmp	Pictures/IA50.bmp	"Certainty is boring"	1	risk					5	0	5	0	0	12	12	19																															2089.606578	None	2091.628578	2093.149258	2093.132564	None	2094.63652	None	2	0.262868168	2096.658554	None	2096.658554	None	2096.658554	None	None	None	None	None	2097.093004	None	2097.093004	None	right	0.21240263	2097.093004	None	None	None	2097.343666	2099.081584													118	1	18	1	2020_Feb_26_1258	Test	3.2.4	59.84194031		
Pictures/IA110_55_G95p.bmp	Pictures/IA110_55_G95p.bmp	Pictures/IA110.bmp	"Take a chance!"""""	1	risk					5	0	5	0	0	13	13	11																															2099.098307	None	2101.120315	2102.624288	2102.607531	None	2104.144958	None	2	0.323189596	2106.150247	None	2106.150247	None	2106.150247	None	None	None	None	None	2106.634871	None	2106.634871	None	left	0.214555071	2106.634871	None	2106.88553	2108.623449	None	None													118	1	18	1	2020_Feb_26_1258	Test	3.2.4	59.84194031		
Pictures/IA110_55_L95p.bmp	Pictures/IA110_55_L95p.bmp	Pictures/IA110.bmp	"Trust me"	1	risk					5	0	5	0	0	14	14	5																															2108.640148	None	2110.662162	2112.182835	2112.16614	None	2113.670103	None	2	0.493314515	2115.692117	None	2115.692117	None	2115.692117	None	None	None	None	None	2116.343821	None	2116.343821	None	right	0.169594679	2116.343821	None	None	None	2116.561056	2118.332412													118	1	18	1	2020_Feb_26_1258	Test	3.2.4	59.84194031		
Pictures/IA100_G80.bmp	Pictures/IA100_G80.bmp	Pictures/IA100.bmp	"Why not gamble?"""""	1	risk					5	0	5	0	0	15	15	4																															2118.349109	None	2120.371119	2121.891794	2121.875099	None	2123.379055	None	2	0.424353052	2125.401072	None	2125.401072	None	2125.401072	None	None	None	None	None	2125.985938	None	2125.985938	None	left	0.175479984	2125.985938	None	2126.203174	2127.974526	None	None													118	1	18	1	2020_Feb_26_1258	Test	3.2.4	59.84194031		
Pictures/IA25_G10.bmp	Pictures/IA25_G10.bmp	Pictures/IA25.bmp	"What's life without a little risk?"""""	1	risk					5	0	5	0	0	16	16	3																															2127.99123	None	2130.013232	2131.533914	2131.517218	None	2133.071305	None	2	0.230247985	2135.043176	None	2135.043176	None	2135.043176	None	None	None	None	None	2135.444246	None	2135.444246	None	left	0.149160167	2135.444246	None	2135.628064	2137.432823	None	None													118	1	18	1	2020_Feb_26_1258	Test	3.2.4	59.84194031		
Pictures/IA80_40_L95p.bmp	Pictures/IA80_40_L95p.bmp	Pictures/IA80.bmp	"Let's stay with the certain option."""""	0	safe					5	0	5	0	0	17	17	9																															2137.449524	None	2139.471529	2140.992208	2140.975512	None	2142.479469	None	2	0.29994054	2144.501486	None	2144.501486	None	2144.501486	None	None	None	None	None	2144.969375	None	2144.969375	None	right	0.032046549	2144.969375	None	None	None	2145.03623	2146.974675													118	1	18	1	2020_Feb_26_1258	Test	3.2.4	59.84194031		
Pictures/IA25_L20.bmp	Pictures/IA25_L20.bmp	Pictures/IA25.bmp	"Don't be tempted to gamble."""""	0	safe					5	0	5	0	0	18	18	18																															2146.99138	None	2149.013382	2150.534056	2150.517365	None	2152.071455	None	1	0.366092216	2154.043324	None	2154.043324	None	2154.043324	None	2154.511236	None	2154.511236	2155.513877	2156.616794	None	2156.616794	None	left	0.384620556	2156.616794	None	2157.051261	2158.622081	None	None													118	1	18	1	2020_Feb_26_1258	Test	3.2.4	59.84194031		
Pictures/IA50_G40.bmp	Pictures/IA50_G40.bmp	Pictures/IA50.bmp	"It would probably be best to play it safe."""""	0	safe					5	0	5	0	0	19	19	16																															2158.638779	None	2160.660798	2162.181464	2162.164771	None	2163.718856	None	1	0.942699108	2165.690728	None	2165.690728	None	2165.690728	None	2166.776925	None	2166.776925	2167.779572	2168.899196	None	2168.899196	None	left	0.454220953	2168.899196	None	2169.400528	2170.887775	None	None													118	1	18	1	2020_Feb_26_1258	Test	3.2.4	59.84194031		
										5	0	5	0																																																																									2171.054903	None	return	3.986499732	2171.054903	None	118	1	18	1	2020_Feb_26_1258	Test	3.2.4	59.84194031		
Pictures/IA100_G80.bmp	Pictures/IA100_G80.bmp	Pictures/IA100.bmp	"Why not gamble?"""""	1	risk					6	0	6	0	0	0	0	6													2175.19917	None	2175.19917	None	2175.19917	None	left	6.202267607	2175.19917	None	2175.19917	None	2175.19917	None	return	8.098117245	2175.19917	None	2183.354022	None	2185.35932	2186.879979	2186.86328	None	2188.383959	None	1	0.772903038	2190.372528	None	2190.372528	None	2190.372528	None	2191.258199	None	2191.258199	2192.260841	2193.363755	None	2193.363755	None	left	1.54965835	2193.363755	None	2194.951274	None	None	None													118	1	18	1	2020_Feb_26_1258	Test	3.2.4	59.84194031		
Pictures/IA75_L60.bmp	Pictures/IA75_L60.bmp	Pictures/IA75.bmp	"Why not take the gamble?"""""	1	risk					6	0	6	0	0	1	1	0																															2195.369059	None	2197.39106	2198.911738	2198.895018	None	2200.46584	None	1	0.268439112	2202.420988	None	2202.420988	None	2202.420988	None	2202.805337	None	2202.805337	2203.807977	2204.944312	None	2204.944312	None	None		2204.944312	None	None	None	None	None													118	1	18	1	2020_Feb_26_1258	Test	3.2.4	59.84194031		
Pictures/IA20_10_L95p.bmp	Pictures/IA20_10_L95p.bmp	Pictures/IA20.bmp	"Don't be tempted to gamble."""""	0	safe					6	0	6	0	0	2	2	3																															2206.949601	None	2208.988317	2210.508995	2210.492305	None	2211.996266	None	2	0.415871973	2214.001559	None	2214.001559	None	2214.001559	None	None	None	None	None	2214.569691	None	2214.569691	None	right	0.111716702	2214.569691	None	None	None	2214.720122	2216.558289													118	1	18	1	2020_Feb_26_1258	Test	3.2.4	59.84194031		
Pictures/IA75_L45.bmp	Pictures/IA75_L45.bmp	Pictures/IA75.bmp	"Don't gamble for this one"	0	safe					6	0	6	0	0	3	3	2																															2216.575011	None	2218.597021	2220.117696	2220.100948	None	2221.655091	None	2	0.710469791	2223.626961	None	2223.626961	None	2223.626961	None	None	None	None	None	2224.51263	None	2224.51263	None	left	0.648778745	2224.51263	None	2225.197766	2226.501196	None	None													118	1	18	1	2020_Feb_26_1258	Test	3.2.4	59.84194031		
Pictures/IA50_L10.bmp	Pictures/IA50_L10.bmp	Pictures/IA50.bmp	"Play it safe"	0	safe					6	0	6	0	0	4	4	17																															2226.517916	None	2228.539918	2230.060595	2230.043879	None	2231.614699	None	2	0.263568446	2233.56985	None	2233.56985	None	2233.56985	None	None	None	None	None	2233.987629	None	2233.987629	None	right	0.245785832	2233.987629	None	None	None	2234.271706	2235.976192													118	1	18	1	2020_Feb_26_1258	Test	3.2.4	59.84194031		
Pictures/IA25_L5.bmp	Pictures/IA25_L5.bmp	Pictures/IA25.bmp	"It would be smarter to choose the safe option."""""	0	safe					6	0	6	0	0	5	5	19																															2235.992916	None	2238.014921	2239.535598	2239.518881	None	2241.056279	None	2	1.132570181	2243.044854	None	2243.044854	None	2243.044854	None	None	None	None	None	2244.348299	None	2244.348299	None	right	0.285117445	2244.348299	None	None	None	2244.682513	2246.353574													118	1	18	1	2020_Feb_26_1258	Test	3.2.4	59.84194031		
Pictures/IA25_G15.bmp	Pictures/IA25_G15.bmp	Pictures/IA25.bmp	"I think you should take a gamble."""""	1	risk					6	0	6	0	0	6	6	5																															2246.370295	None	2248.392303	2249.912978	2249.896258	None	2251.467078	None	2	0.803198563	2253.422228	None	2253.422228	None	2253.422228	None	None	None	None	None	2254.408165	None	2254.408165	None	left	0.193249239	2254.408165	None	2254.642122	2256.413447	None	None													118	1	18	1	2020_Feb_26_1258	Test	3.2.4	59.84194031		
Pictures/IA40_20_G95p.bmp	Pictures/IA40_20_G95p.bmp	Pictures/IA40.bmp	"Hold back"	0	safe					6	0	6	0	0	7	7	10																															2256.430174	None	2258.452177	2259.972851	2259.956134	None	2261.476824	None	1	0.447301123	2263.482116	None	2263.482116	None	2263.482116	None	2264.066989	None	2264.066989	2265.069634	2266.172548	None	2266.172548	None	left	0.140865184	2266.172548	None	2266.356363	2268.161124	None	None													118	1	18	1	2020_Feb_26_1258	Test	3.2.4	59.84194031		
Pictures/IA75_G60.bmp	Pictures/IA75_G60.bmp	Pictures/IA75.bmp	"Make it exciting"	1	risk					6	0	6	0	0	8	8	4																															2268.177824	None	2270.199825	2271.720504	2271.703806	None	2273.274608	None	2	0.723649664	2275.229776	None	2275.229776	None	2275.229776	None	None	None	None	None	2276.132145	None	2276.132145	None	left	0.789272216	2276.132145	None	2276.967691	2278.137444	None	None													118	1	18	1	2020_Feb_26_1258	Test	3.2.4	59.84194031		
Pictures/IA100_G40.bmp	Pictures/IA100_G40.bmp	Pictures/IA100.bmp	"Try your luck and gamble!"""""	1	risk					6	0	6	0	0	9	9	14																															2278.154156	None	2280.176158	2281.696833	2281.68012	None	2283.234225	None	2	0.867319774	2285.206096	None	2285.206096	None	2285.206096	None	None	None	None	None	2286.225437	None	2286.225437	None	left	0.527976486	2286.225437	None	2286.793648	2288.230727	None	None													118	1	18	1	2020_Feb_26_1258	Test	3.2.4	59.84194031		
Pictures/IA80_40_L95p.bmp	Pictures/IA80_40_L95p.bmp	Pictures/IA80.bmp	"Let's stay with the certain option."""""	0	safe					6	0	6	0	0	10	10	12																															2288.24745	None	2290.269452	2291.790156	2291.773411	None	2293.294104	None	2	0.32604409	2295.299387	None	2295.299387	None	2295.299387	None	None	None	None	None	2295.800714	None	2295.800714	None	right	0.192691661	2295.800714	None	None	None	2296.034661	2297.805985													118	1	18	1	2020_Feb_26_1258	Test	3.2.4	59.84194031		
Pictures/IA100_L40.bmp	Pictures/IA100_L40.bmp	Pictures/IA100.bmp	"Think of the payoff"	1	risk					6	0	6	0	0	11	11	18																															2297.822711	None	2299.844714	2301.365391	2301.348671	None	2302.886069	None	2	0.614784973	2304.87464	None	2304.87464	None	2304.87464	None	None	None	None	None	2305.660053	None	2305.660053	None	right	0.205355404	2305.660053	None	None	None	2305.910701	2307.64862													118	1	18	1	2020_Feb_26_1258	Test	3.2.4	59.84194031		
Pictures/IA25_G10.bmp	Pictures/IA25_G10.bmp	Pictures/IA25.bmp	"What's life without a little risk?"""""	1	risk					6	0	6	0	0	12	12	15																															2307.665353	None	2309.687344	2311.208023	2311.191304	None	2312.695283	None	2	0.644151424	2314.717273	None	2314.717273	None	2314.717273	None	None	None	None	None	2315.536099	None	2315.536099	None	left	0.273315145	2315.536099	None	2315.853599	2317.524673	None	None													118	1	18	1	2020_Feb_26_1258	Test	3.2.4	59.84194031		
Pictures/IA50_L40.bmp	Pictures/IA50_L40.bmp	Pictures/IA50.bmp	"That gamble doesn't sound too good"	0	safe					6	0	6	0	0	13	13	9																															2317.541397	None	2319.563398	2321.084078	2321.067357	None	2322.588046	None	2	0.488090552	2324.593337	None	2324.593337	None	2324.593337	None	None	None	None	None	2325.278464	None	2325.278464	None	right	0.210951168	2325.278464	None	None	None	2325.529122	2327.267041													118	1	18	1	2020_Feb_26_1258	Test	3.2.4	59.84194031		
Pictures/IA25_G5.bmp	Pictures/IA25_G5.bmp	Pictures/IA25.bmp	"Let's stay with the certain option."""""	0	safe					6	0	6	0	0	14	14	7																															2327.283765	None	2329.305766	2330.826441	2330.809724	None	2332.313702	None	1	0.249733409	2334.33569	None	2334.33569	None	2334.33569	None	2334.720037	None	2334.720037	2335.72268	2336.825596	None	2336.825596	None	left	0.119819627	2336.825596	None	2336.992708	2338.830879	None	None													118	1	18	1	2020_Feb_26_1258	Test	3.2.4	59.84194031		
Pictures/IA75_L30.bmp	Pictures/IA75_L30.bmp	Pictures/IA75.bmp	"Hold back"	0	safe					6	0	6	0	0	15	15	13																															2338.847601	None	2340.869608	2342.390285	2342.373562	None	2343.894252	None	2	0.485874593	2345.899542	None	2345.899542	None	2345.899542	None	None	None	None	None	2346.567971	None	2346.567971	None	right	0.081456111	2346.567971	None	None	None	2346.684942	2348.556532													118	1	18	1	2020_Feb_26_1258	Test	3.2.4	59.84194031		
Pictures/IA40_20_L95p.bmp	Pictures/IA40_20_L95p.bmp	Pictures/IA40.bmp	"Trust me"	1	risk					6	0	6	0	0	16	16	8																															2348.57326	None	2350.595256	2352.115935	2352.099214	None	2353.619905	None	1	0.224247259	2355.625194	None	2355.625194	None	2355.625194	None	2355.942651	None	2355.942651	2356.945327	2358.048241	None	2358.048241	None	right	0.273182399	2358.048241	None	None	None	2358.365742	2360.036815													118	1	18	1	2020_Feb_26_1258	Test	3.2.4	59.84194031		
Pictures/IA75_G45.bmp	Pictures/IA75_G45.bmp	Pictures/IA75.bmp	"Don't gamble for this one."""""	0	safe					6	0	6	0	0	17	17	16																															2360.053542	None	2362.075544	2363.59622	2363.579499	None	2365.13361	None	2	0.503930899	2367.10549	None	2367.10549	None	2367.10549	None	None	None	None	None	2367.790617	None	2367.790617	None	left	0.410792961	2367.790617	None	2368.241804	2369.779195	None	None													118	1	18	1	2020_Feb_26_1258	Test	3.2.4	59.84194031		
Pictures/IA100_L80.bmp	Pictures/IA100_L80.bmp	Pictures/IA100.bmp	"Go all in!"""""	1	risk					6	0	6	0	0	18	18	1																															2369.795891	None	2371.817893	2373.321869	2373.305152	None	2374.89267	None	2	0.553589224	2376.847841	None	2376.847841	None	2376.847841	None	None	None	None	None	2377.583113	None	2377.583113	None	left	0.786304327	2377.583113	None	2378.418636	2379.588397	None	None													118	1	18	1	2020_Feb_26_1258	Test	3.2.4	59.84194031		
Pictures/IA75_G15.bmp	Pictures/IA75_G15.bmp	Pictures/IA75.bmp	"Take a chance!"""""	1	risk					6	0	6	0	0	19	19	11																															2379.605096	None	2381.627102	2383.147776	2383.131085	None	2384.701875	None	2	0.920373117	2386.65706	None	2386.65706	None	2386.65706	None	None	None	None	None	2387.743241	None	2387.743241	None	left	0.042171859	2387.743241	None	2387.826785	2389.73182	None	None													118	1	18	1	2020_Feb_26_1258	Test	3.2.4	59.84194031		
										6	0	6	0																																																																									2389.898923	None	return	5.502481325	2389.898923	None	118	1	18	1	2020_Feb_26_1258	Test	3.2.4	59.84194031		
Pictures/IA40_20_G95p.bmp	Pictures/IA40_20_G95p.bmp	Pictures/IA40.bmp	"Hold back"	0	safe					7	0	7	0	0	0	0	6													2395.563872	None	2395.563872	None	2395.563872	None	left	4.021540821	2395.563872	None	2395.563872	None	2395.563872	None	return	5.453426773	2395.563872	None	2401.078416	None	2403.083696	2404.60437	2404.587675	None	2406.074931	None	2	0.58450964	2408.096917	None	2408.096917	None	2408.096917	None	None	None	None	None	2408.882324	None	2408.882324	None	left	0.295085818	2408.882324	None	2409.216546	2410.87091	None	None													118	1	18	1	2020_Feb_26_1258	Test	3.2.4	59.84194031		
Pictures/IA25_L5.bmp	Pictures/IA25_L5.bmp	Pictures/IA25.bmp	"It would be smarter to choose the safe option."""""	0	safe					7	0	7	0	0	1	1	4																															2410.887605	None	2412.909611	2414.430285	2414.413594	None	2415.917546	None	2	0.845852504	2417.939571	None	2417.939571	None	2417.939571	None	None	None	None	None	2418.958915	None	2418.958915	None	right	0.066492701	2418.958915	None	None	None	2419.059162	2420.964185													118	1	18	1	2020_Feb_26_1258	Test	3.2.4	59.84194031		
Pictures/IA100_G60.bmp	Pictures/IA100_G60.bmp	Pictures/IA100.bmp	"Be cautious"	0	safe					7	0	7	0	0	2	2	5																															2420.980908	None	2423.002912	2424.523587	2424.506867	None	2426.077687	None	2	0.664593927	2428.032832	None	2428.032832	None	2428.032832	None	None	None	None	None	2428.86838	None	2428.86838	None	left	0.205038393	2428.86838	None	2429.119043	2430.856953	None	None													118	1	18	1	2020_Feb_26_1258	Test	3.2.4	59.84194031		
Pictures/IA75_G15.bmp	Pictures/IA75_G15.bmp	Pictures/IA75.bmp	"Take a chance!"""""	1	risk					7	0	7	0	0	3	3	17																															2430.873668	None	2432.89567	2434.416349	2434.399628	None	2435.903604	None	2	0.251828223	2437.925601	None	2437.925601	None	2437.925601	None	None	None	None	None	2438.343374	None	2438.343374	None	left	0.178042585	2438.343374	None	2438.56061	2440.331936	None	None													118	1	18	1	2020_Feb_26_1258	Test	3.2.4	59.84194031		
Pictures/IA25_L15.bmp	Pictures/IA25_L15.bmp	Pictures/IA25.bmp	"There's not much on the line here"	1	risk					7	0	7	0	0	4	4	9																															2440.348657	None	2442.370659	2443.891337	2443.874616	None	2445.445435	None	2	0.608844904	2447.400581	None	2447.400581	None	2447.400581	None	None	None	None	None	2448.219409	None	2448.219409	None	left	0.190004422	2448.219409	None	2448.453365	2450.224696	None	None													118	1	18	1	2020_Feb_26_1258	Test	3.2.4	59.84194031		
Pictures/IA75_L60.bmp	Pictures/IA75_L60.bmp	Pictures/IA75.bmp	"Why not take the gamble?"""""	1	risk					7	0	7	0	0	5	5	15																															2450.241415	None	2452.263415	2453.784091	2453.767373	None	2455.304771	None	1	1.20408463	2457.293344	None	2457.293344	None	2457.293344	None	2458.613491	None	2458.613491	2459.616128	2460.719039	None	2460.719039	None	left	0.242373895	2460.719039	None	2461.003119	2462.707628	None	None													118	1	18	1	2020_Feb_26_1258	Test	3.2.4	59.84194031		
Pictures/IA80_40_G95p.bmp	Pictures/IA80_40_G95p.bmp	Pictures/IA80.bmp	"Think of the payoff"	1	risk					7	0	7	0	0	6	6	11																															2462.724323	None	2464.746323	2466.267001	2466.250309	None	2467.787679	None	2	2.51315605	2469.776272	None	2469.776272	None	2469.776272	None	None	None	None	None	2472.483408	None	2472.483408	None	left	0.286010657	2472.483408	None	2472.817611	2474.488683	None	None													118	1	18	1	2020_Feb_26_1258	Test	3.2.4	59.84194031		
Pictures/IA75_L45.bmp	Pictures/IA75_L45.bmp	Pictures/IA75.bmp	"Don't gamble for this one"	0	safe					7	0	7	0	0	7	7	19																															2474.505404	None	2476.527406	2478.031359	2478.014666	None	2479.535341	None	2	0.220093724	2481.55733	None	2481.55733	None	2481.55733	None	None	None	None	None	2481.97511	None	2481.97511	None	right	0.234303218	2481.97511	None	None	None	2482.259194	2483.963668													118	1	18	1	2020_Feb_26_1258	Test	3.2.4	59.84194031		
Pictures/IA50_L20.bmp	Pictures/IA50_L20.bmp	Pictures/IA50.bmp	"Certainty is boring"	1	risk					7	0	7	0	0	8	8	3																															2483.980393	None	2486.002393	2487.523067	2487.50635	None	2489.060427	None	2	0.265106839	2491.032328	None	2491.032328	None	2491.032328	None	None	None	None	None	2491.466797	None	2491.466797	None	right	0.246615193	2491.466797	None	None	None	2491.750872	2493.472079													118	1	18	1	2020_Feb_26_1258	Test	3.2.4	59.84194031		
Pictures/IA100_L60.bmp	Pictures/IA100_L60.bmp	Pictures/IA100.bmp	"You'd have a lot to lose"	0	safe					7	0	7	0	0	9	9	1																															2493.488808	None	2495.510802	2497.031477	2497.01476	None	2498.585582	None	2	0.276702945	2500.540723	None	2500.540723	None	2500.540723	None	None	None	None	None	2500.991913	None	2500.991913	None	right	0.209512258	2500.991913	None	None	None	2501.242571	2502.980486													118	1	18	1	2020_Feb_26_1258	Test	3.2.4	59.84194031		
Pictures/IA25_G5.bmp	Pictures/IA25_G5.bmp	Pictures/IA25.bmp	"Let's stay with the certain option."""""	0	safe					7	0	7	0	0	10	10	7																															2502.997209	None	2505.01921	2506.539886	2506.523168	None	2508.060569	None	2	0.488297261	2510.04914	None	2510.04914	None	2510.04914	None	None	None	None	None	2510.717572	None	2510.717572	None	left	0.107849226	2510.717572	None	2510.867965	2512.706135	None	None													118	1	18	1	2020_Feb_26_1258	Test	3.2.4	59.84194031		
Pictures/IA50_G30.bmp	Pictures/IA50_G30.bmp	Pictures/IA50.bmp	"I think you should gamble."""""	1	risk					7	0	7	0	0	11	11	10																															2512.722857	None	2514.744855	2516.265534	2516.248813	None	2517.802923	None	2	0.594635729	2519.77479	None	2519.77479	None	2519.77479	None	None	None	None	None	2520.543472	None	2520.543472	None	left	0.321943088	2520.543472	None	2520.911116	2522.548794	None	None													118	1	18	1	2020_Feb_26_1258	Test	3.2.4	59.84194031		
Pictures/IA100_G20.bmp	Pictures/IA100_G20.bmp	Pictures/IA100.bmp	"Go ahead and gamble!"""""	1	risk					7	0	7	0	0	12	12	8																															2522.565481	None	2524.587475	2526.108153	2526.091436	None	2527.645544	None	1	0.287983205	2529.617426	None	2529.617426	None	2529.617426	None	2530.001747	None	2530.001747	2531.004387	2532.107301	None	2532.107301	None	left	0.134112527	2532.107301	None	2532.291115	2534.095871	None	None													118	1	18	1	2020_Feb_26_1258	Test	3.2.4	59.84194031		
Pictures/IA75_L15.bmp	Pictures/IA75_L15.bmp	Pictures/IA75.bmp	"Trust me–gamble!"""""	1	risk					7	0	7	0	0	13	13	16																															2534.112593	None	2536.134595	2537.63855	2537.621852	None	2539.192663	None	2	0.284903162	2541.164528	None	2541.164528	None	2541.164528	None	None	None	None	None	2541.615708	None	2541.615708	None	right	0.193708026	2541.615708	None	None	None	2541.849665	2543.620989													118	1	18	1	2020_Feb_26_1258	Test	3.2.4	59.84194031		
Pictures/IA25_G10.bmp	Pictures/IA25_G10.bmp	Pictures/IA25.bmp	"What's life without a little risk?"""""	1	risk					7	0	7	0	0	14	14	13																															2543.637714	None	2545.659721	2547.180387	2547.163668	None	2548.701065	None	2	0.247779231	2550.689637	None	2550.689637	None	2550.689637	None	None	None	None	None	2551.09069	None	2551.09069	None	left	0.678720879	2551.09069	None	2551.809246	2553.07926	None	None													118	1	18	1	2020_Feb_26_1258	Test	3.2.4	59.84194031		
Pictures/IA50_G20.bmp	Pictures/IA50_G20.bmp	Pictures/IA50.bmp	"Let's venture and take a risk!"""""	1	risk					7	0	7	0	0	15	15	0																															2553.095989	None	2555.117985	2556.638658	2556.621945	None	2558.192761	None	2	0.229517883	2560.147906	None	2560.147906	None	2560.147906	None	None	None	None	None	2560.532265	None	2560.532265	None	left	0.197148071	2560.532265	None	2560.766199	2562.537546	None	None													118	1	18	1	2020_Feb_26_1258	Test	3.2.4	59.84194031		
Pictures/IA110_55_L95p.bmp	Pictures/IA110_55_L95p.bmp	Pictures/IA110.bmp	"Trust me"	1	risk					7	0	7	0	0	16	16	14																															2562.554254	None	2564.609668	2566.113645	2566.096924	None	2567.667739	None	2	0.267240496	2569.606177	None	2569.606177	None	2569.606177	None	None	None	None	None	2570.023957	None	2570.023957	None	right	0.169459496	2570.023957	None	None	None	2570.241193	2572.012518													118	1	18	1	2020_Feb_26_1258	Test	3.2.4	59.84194031		
Pictures/IA25_G15.bmp	Pictures/IA25_G15.bmp	Pictures/IA25.bmp	"I think you should take a gamble."""""	1	risk					7	0	7	0	0	17	17	18																															2572.029245	None	2574.051242	2575.571917	2575.555199	None	2577.092596	None	1	0.576275634	2579.081161	None	2579.081161	None	2579.081161	None	2579.783011	None	2579.783011	2580.785653	2581.888567	None	2581.888567	None	left	1.33683367	2581.888567	None	2583.258856	None	None	None													118	1	18	1	2020_Feb_26_1258	Test	3.2.4	59.84194031		
Pictures/IA100_G80.bmp	Pictures/IA100_G80.bmp	Pictures/IA100.bmp	"Why not gamble?"""""	1	risk					7	0	7	0	0	18	18	2																															2583.91057	None	2585.932571	2587.453275	2587.436546	None	2588.95725	None	2	0.422869603	2590.962561	None	2590.962561	None	2590.962561	None	None	None	None	None	2591.580876	None	2591.580876	None	left	0.052538635	2591.580876	None	2591.681065	2593.569366	None	None													118	1	18	1	2020_Feb_26_1258	Test	3.2.4	59.84194031		
Pictures/IA75_G30.bmp	Pictures/IA75_G30.bmp	Pictures/IA75.bmp	"Be bold"	1	risk					7	0	7	0	0	19	19	12																															2593.586123	None	2595.6081	2597.128756	2597.112037	None	2598.649454	None	2	0.459422058	2600.638014	None	2600.638014	None	2600.638014	None	None	None	None	None	2601.2563	None	2601.2563	None	left	0.217114073	2601.2563	None	2601.506956	2603.244869	None	None													118	1	18	1	2020_Feb_26_1258	Test	3.2.4	59.84194031		
										7	0	7	0																																																																									2603.412003	None	return	2.453402772	2603.412003	None	118	1	18	1	2020_Feb_26_1258	Test	3.2.4	59.84194031		
Pictures/IA25_L15.bmp	Pictures/IA25_L15.bmp	Pictures/IA25.bmp	"There's not much on the line here"	1	risk					8	0	8	0	0	0	0	0													2606.018867	None	2606.018867	None	2606.018867	None	left	0.510557801	2606.018867	None	2606.018867	None	2606.018867	None	return	1.678329097	2606.018867	None	2607.740068	None	2609.762072	2611.282745	2611.266025	None	2612.753277	None	2	0.634134049	2614.77529	None	2614.77529	None	2614.77529	None	None	None	None	None	2615.577394	None	2615.577394	None	left	0.464014557	2615.577394	None	2616.078722	2617.582675	None	None													118	1	18	1	2020_Feb_26_1258	Test	3.2.4	59.84194031		
Pictures/IA80_40_G95p.bmp	Pictures/IA80_40_G95p.bmp	Pictures/IA80.bmp	"Think of the payoff"	1	risk					8	0	8	0	0	1	1	7																															2617.599393	None	2619.6214	2621.142074	2621.125354	None	2622.62933	None	2	0.238108563	2624.651319	None	2624.651319	None	2624.651319	None	None	None	None	None	2625.052375	None	2625.052375	None	left	0.173036287	2625.052375	None	2625.269613	2627.040966	None	None													118	1	18	1	2020_Feb_26_1258	Test	3.2.4	59.84194031		
Pictures/IA100_G60.bmp	Pictures/IA100_G60.bmp	Pictures/IA100.bmp	"Be cautious"	0	safe					8	0	8	0	0	2	2	9																															2627.057658	None	2629.079671	2630.583638	2630.566915	None	2632.087595	None	2	0.299828183	2634.109602	None	2634.109602	None	2634.109602	None	None	None	None	None	2634.577488	None	2634.577488	None	left	0.263763884	2634.577488	None	2634.878292	2636.582772	None	None													118	1	18	1	2020_Feb_26_1258	Test	3.2.4	59.84194031		
Pictures/IA50_G20.bmp	Pictures/IA50_G20.bmp	Pictures/IA50.bmp	"Let's venture and take a risk!"""""	1	risk					8	0	8	0	0	3	3	17																															2636.599495	None	2638.621497	2640.142168	2640.125454	None	2641.629428	None	2	0.270010642	2643.651414	None	2643.651414	None	2643.651414	None	None	None	None	None	2644.08589	None	2644.08589	None	left	0.275521842	2644.08589	None	2644.403393	2646.074463	None	None													118	1	18	1	2020_Feb_26_1258	Test	3.2.4	59.84194031		
Pictures/IA75_L30.bmp	Pictures/IA75_L30.bmp	Pictures/IA75.bmp	"Hold back"	0	safe					8	0	8	0	0	4	4	1																															2646.091188	None	2648.113189	2649.633862	2649.617143	None	2651.15454	None	2	0.362320275	2653.143105	None	2653.143105	None	2653.143105	None	None	None	None	None	2653.67786	None	2653.67786	None	right	0.275555246	2653.67786	None	None	None	2653.995361	2655.683143													118	1	18	1	2020_Feb_26_1258	Test	3.2.4	59.84194031		
Pictures/IA25_G10.bmp	Pictures/IA25_G10.bmp	Pictures/IA25.bmp	"What's life without a little risk?"""""	1	risk					8	0	8	0	0	5	5	8																															2655.699856	None	2657.721863	2659.242518	2659.225827	None	2660.763197	None	1	0.33764298	2662.751785	None	2662.751785	None	2662.751785	None	2663.219686	None	2663.219686	2664.222324	2665.358657	None	2665.358657	None	left	0.298756536	2665.358657	None	2665.692857	2667.363928	None	None													118	1	18	1	2020_Feb_26_1258	Test	3.2.4	59.84194031		
Pictures/IA100_L80.bmp	Pictures/IA100_L80.bmp	Pictures/IA100.bmp	"Go all in!"""""	1	risk					8	0	8	0	0	6	6	4																															2667.380653	None	2669.402652	2670.923323	2670.906607	None	2672.444007	None	2	0.880863145	2674.432569	None	2674.432569	None	2674.432569	None	None	None	None	None	2675.485344	None	2675.485344	None	left	0.100071776	2675.485344	None	2675.619039	2677.490639	None	None													118	1	18	1	2020_Feb_26_1258	Test	3.2.4	59.84194031		
Pictures/IA75_L60.bmp	Pictures/IA75_L60.bmp	Pictures/IA75.bmp	"Why not take the gamble?"""""	1	risk					8	0	8	0	0	7	7	18																															2677.507338	None	2679.529339	2681.033312	2681.016595	None	2682.570692	None	2	0.94615617	2684.559279	None	2684.559279	None	2684.559279	None	None	None	None	None	2685.712325	None	2685.712325	None	left	0.209083648	2685.712325	None	2685.962979	2687.700895	None	None													118	1	18	1	2020_Feb_26_1258	Test	3.2.4	59.84194031		
Pictures/IA100_G40.bmp	Pictures/IA100_G40.bmp	Pictures/IA100.bmp	"Try your luck and gamble!"""""	1	risk					8	0	8	0	0	8	8	15																															2687.717591	None	2689.739594	2691.260265	2691.243574	None	2692.76423	None	2	0.319896022	2694.769525	None	2694.769525	None	2694.769525	None	None	None	None	None	2695.254143	None	2695.254143	None	left	0.251278782	2695.254143	None	2695.554924	2697.259425	None	None													118	1	18	1	2020_Feb_26_1258	Test	3.2.4	59.84194031		
Pictures/IA50_G10.bmp	Pictures/IA50_G10.bmp	Pictures/IA50.bmp	"Go with the safe option here!"""""	0	safe					8	0	8	0	0	9	9	11																															2697.276125	None	2699.298125	2700.818801	2700.802105	None	2702.356151	None	2	0.345364206	2704.328062	None	2704.328062	None	2704.328062	None	None	None	None	None	2704.929642	None	2704.929642	None	left	0.44777661	2704.929642	None	2705.414248	2706.918222	None	None													118	1	18	1	2020_Feb_26_1258	Test	3.2.4	59.84194031		
Pictures/IA20_10_G95p.bmp	Pictures/IA20_10_G95p.bmp	Pictures/IA20.bmp	"Take a leap"	1	risk					8	0	8	0	0	10	10	13																															2706.934945	None	2708.990345	2710.494319	2710.4776	None	2712.031694	None	2	0.910562231	2713.986863	None	2713.986863	None	2713.986863	None	None	None	None	None	2715.073061	None	2715.073061	None	left	0.144345939	2715.073061	None	2715.256876	2717.061632	None	None													118	1	18	1	2020_Feb_26_1258	Test	3.2.4	59.84194031		
Pictures/IA40_20_L95p.bmp	Pictures/IA40_20_L95p.bmp	Pictures/IA40.bmp	"Trust me"	1	risk					8	0	8	0	0	11	11	6																															2717.07833	None	2719.100329	2720.621004	2720.604312	None	2722.141682	None	2	0.271153709	2724.130273	None	2724.130273	None	2724.130273	None	None	None	None	None	2724.564759	None	2724.564759	None	right	0.180652475	2724.564759	None	None	None	2724.781987	2726.553312													118	1	18	1	2020_Feb_26_1258	Test	3.2.4	59.84194031		
Pictures/IA100_G20.bmp	Pictures/IA100_G20.bmp	Pictures/IA100.bmp	"Go ahead and gamble!"""""	1	risk					8	0	8	0	0	12	12	14																															2726.570034	None	2728.592033	2730.112677	2730.095949	None	2731.599962	None	2	0.267460899	2733.621953	None	2733.621953	None	2733.621953	None	None	None	None	None	2734.039718	None	2734.039718	None	left	0.065718892	2734.039718	None	2734.139992	2736.045	None	None													118	1	18	1	2020_Feb_26_1258	Test	3.2.4	59.84194031		
Pictures/IA75_G15.bmp	Pictures/IA75_G15.bmp	Pictures/IA75.bmp	"Take a chance!"""""	1	risk					8	0	8	0	0	13	13	3																															2736.061723	None	2738.083712	2739.587674	2739.570979	None	2741.125074	None	2	0.927787	2743.113643	None	2743.113643	None	2743.113643	None	None	None	None	None	2744.199849	None	2744.199849	None	left	0.209561559	2744.199849	None	2744.450507	2746.188436	None	None													118	1	18	1	2020_Feb_26_1258	Test	3.2.4	59.84194031		
Pictures/IA50_G40.bmp	Pictures/IA50_G40.bmp	Pictures/IA50.bmp	"It would probably be best to play it safe."""""	0	safe					8	0	8	0	0	14	14	10																															2746.205118	None	2748.227119	2749.747797	2749.731098	None	2751.301907	None	1	0.488362299	2753.257064	None	2753.257064	None	2753.257064	None	2753.892057	None	2753.892057	2754.894693	2756.031028	None	2756.031028	None	right	0.794391179	2756.031028	None	None	None	2756.866586	2758.036349													118	1	18	1	2020_Feb_26_1258	Test	3.2.4	59.84194031		
Pictures/IA40_20_G95p.bmp	Pictures/IA40_20_G95p.bmp	Pictures/IA40.bmp	"Hold back"	0	safe					8	0	8	0	0	15	15	5																															2758.053062	None	2760.108457	2761.612403	2761.578981	None	2763.133078	None	1	0.536455527	2765.104961	None	2765.104961	None	2765.104961	None	2765.773371	None	2765.773371	2766.776033	2767.89591	None	2767.89591	None	left	0.201548718	2767.89591	None	2768.146301	2769.884203	None	None													118	1	18	1	2020_Feb_26_1258	Test	3.2.4	59.84194031		
Pictures/IA25_L10.bmp	Pictures/IA25_L10.bmp	Pictures/IA25.bmp	"Dont be afraid to take the risk!"""""	1	risk					8	0	8	0	0	16	16	19																															2769.900939	None	2771.939627	2773.4436	2773.42688	None	2774.997698	None	2	0.320581802	2776.952846	None	2776.952846	None	2776.952846	None	None	None	None	None	2777.454168	None	2777.454168	None	left	0.203265321	2777.454168	None	2777.704823	2779.442735	None	None													118	1	18	1	2020_Feb_26_1258	Test	3.2.4	59.84194031		
Pictures/IA75_G45.bmp	Pictures/IA75_G45.bmp	Pictures/IA75.bmp	"Don't gamble for this one."""""	0	safe					8	0	8	0	0	17	17	16																															2779.45946	None	2781.514895	2783.018833	2782.985453	None	2784.539505	None	2	0.354054997	2786.511366	None	2786.511366	None	2786.511366	None	None	None	None	None	2787.046129	None	2787.046129	None	left	0.091290959	2787.046129	None	2787.179799	2789.034686	None	None													118	1	18	1	2020_Feb_26_1258	Test	3.2.4	59.84194031		
Pictures/IA100_L20.bmp	Pictures/IA100_L20.bmp	Pictures/IA100.bmp	"Try to win as much money as you can"	1	risk					8	0	8	0	0	18	18	12																															2789.05141	None	2791.106843	2792.610793	2792.577331	None	2794.114765	None	2	0.626084885	2796.103343	None	2796.103343	None	2796.103343	None	None	None	None	None	2796.905459	None	2796.905459	None	right	0.087957834	2796.905459	None	None	None	2797.039122	2798.894001													118	1	18	1	2020_Feb_26_1258	Test	3.2.4	59.84194031		
Pictures/IA50_L20.bmp	Pictures/IA50_L20.bmp	Pictures/IA50.bmp	"Certainty is boring"	1	risk					8	0	8	0	0	19	19	2																															2798.910739	None	2800.966145	2802.470111	2802.453412	None	2803.990807	None	2	0.398752337	2805.962671	None	2805.962671	None	2805.962671	None	None	None	None	None	2806.514113	None	2806.514113	None	left	0.255303434	2806.514113	None	2806.814912	2808.519392	None	None													118	1	18	1	2020_Feb_26_1258	Test	3.2.4	59.84194031		
										8	0	8	0																																																																									2808.686518	None	return	5.290876038	2808.686518	None	118	1	18	1	2020_Feb_26_1258	Test	3.2.4	59.84194031		
Pictures/IA80_40_L95p.bmp	Pictures/IA80_40_L95p.bmp	Pictures/IA80.bmp	"Let's stay with the certain option."""""	0	safe					9	0	9	0	0	0	0	2													2814.150926	None	2814.150926	None	2814.150926	None	left	1.098489712	2814.150926	None	2814.150926	None	2814.150926	None	return	3.962359452	2814.150926	None	2818.161459	None	2820.216902	2821.737605	2821.720876	None	2823.224838	None	2	0.996715882	2825.196708	None	2825.196708	None	2825.196708	None	None	None	None	None	2826.366443	None	2826.366443	None	right	0.290969557	2826.366443	None	None	None	2826.700669	2828.371736													118	1	18	1	2020_Feb_26_1258	Test	3.2.4	59.84194031		
Pictures/IA25_G15.bmp	Pictures/IA25_G15.bmp	Pictures/IA25.bmp	"I think you should take a gamble."""""	1	risk					9	0	9	0	0	1	1	16																															2828.388437	None	2830.410439	2831.931114	2831.914417	None	2833.451788	None	2	0.265047443	2835.440377	None	2835.440377	None	2835.440377	None	None	None	None	None	2835.874842	None	2835.874842	None	left	0.206568828	2835.874842	None	2836.125499	2837.863414	None	None													118	1	18	1	2020_Feb_26_1258	Test	3.2.4	59.84194031		
Pictures/IA100_G40.bmp	Pictures/IA100_G40.bmp	Pictures/IA100.bmp	"Try your luck and gamble!"""""	1	risk					9	0	9	0	0	2	2	12																															2837.880136	None	2839.902135	2841.422809	2841.40609	None	2842.976907	None	2	0.325371831	2844.932052	None	2844.932052	None	2844.932052	None	None	None	None	None	2845.416673	None	2845.416673	None	left	0.200726216	2845.416673	None	2845.667334	2847.405246	None	None													118	1	18	1	2020_Feb_26_1258	Test	3.2.4	59.84194031		
Pictures/IA20_10_L95p.bmp	Pictures/IA20_10_L95p.bmp	Pictures/IA20.bmp	"Don't be tempted to gamble."""""	0	safe					9	0	9	0	0	3	3	18																															2847.421944	None	2849.477366	2850.981339	2850.96462	None	2852.518738	None	1	0.367542216	2854.473885	None	2854.473885	None	2854.473885	None	2854.958482	None	2854.958482	2855.961121	2857.064034	None	2857.064034	None	right	0.481374135	2857.064034	None	None	None	2857.582061	2859.052603													118	1	18	1	2020_Feb_26_1258	Test	3.2.4	59.84194031		
Pictures/IA50_G40.bmp	Pictures/IA50_G40.bmp	Pictures/IA50.bmp	"It would probably be best to play it safe."""""	0	safe					9	0	9	0	0	4	4	11																															2859.069331	None	2861.091326	2862.612003	2862.595286	None	2864.099263	None	2	0.456194677	2866.121246	None	2866.121246	None	2866.121246	None	None	None	None	None	2866.772973	None	2866.772973	None	right	0.556442886	2866.772973	None	None	None	2867.374542	2868.778246													118	1	18	1	2020_Feb_26_1258	Test	3.2.4	59.84194031		
Pictures/IA100_G20.bmp	Pictures/IA100_G20.bmp	Pictures/IA100.bmp	"Go ahead and gamble!"""""	1	risk					9	0	9	0	0	5	5	4																															2868.794969	None	2870.816963	2872.337641	2872.320919	None	2873.891741	None	2	0.362543504	2875.84688	None	2875.84688	None	2875.84688	None	None	None	None	None	2876.364923	None	2876.364923	None	left	0.212490931	2876.364923	None	2876.615581	2878.353501	None	None													118	1	18	1	2020_Feb_26_1258	Test	3.2.4	59.84194031		
Pictures/IA75_G45.bmp	Pictures/IA75_G45.bmp	Pictures/IA75.bmp	"Don't gamble for this one."""""	0	safe					9	0	9	0	0	6	6	19																															2878.370193	None	2880.392195	2881.912868	2881.896172	None	2883.400124	None	2	0.379283794	2885.422133	None	2885.422133	None	2885.422133	None	None	None	None	None	2885.973587	None	2885.973587	None	left	0.659826709	2885.973587	None	2886.675423	2887.978871	None	None													118	1	18	1	2020_Feb_26_1258	Test	3.2.4	59.84194031		
Pictures/IA75_G60.bmp	Pictures/IA75_G60.bmp	Pictures/IA75.bmp	"Make it exciting"	1	risk					9	0	9	0	0	7	7	17																															2887.995568	None	2890.017563	2891.538242	2891.521547	None	2893.075627	None	2	0.705935601	2895.047495	None	2895.047495	None	2895.047495	None	None	None	None	None	2895.933161	None	2895.933161	None	left	0.084260822	2895.933161	None	2896.066924	2897.938458	None	None													118	1	18	1	2020_Feb_26_1258	Test	3.2.4	59.84194031		
Pictures/IA75_L60.bmp	Pictures/IA75_L60.bmp	Pictures/IA75.bmp	"