Choice,Choice2,Amount,AdviceVar1,GambleAdviceNum,GambleAdviceType,practice.thisRepN,practice.thisTrialN,practice.thisN,practice.thisIndex,trials_2.thisRepN,trials_2.thisTrialN,trials_2.thisN,trials_2.thisIndex,trials.thisRepN,trials.thisTrialN,trials.thisN,trials.thisIndex,text.started,text.stopped,key_resp_4.keys,key_resp_4.rt,key_resp_4.started,key_resp_4.stopped,instructions.started,instructions.stopped,space.keys,space.rt,space.started,space.stopped,chooseInst.started,chooseInst.stopped,Ad1.started,Ad1.stopped,Ad2.started,Ad2.stopped,key_resp_3.keys,key_resp_3.rt,key_resp_3.started,key_resp_3.stopped,Ad1pic.started,Ad1pic.stopped,Ad2pic.started,Ad2pic.stopped,enter.keys,enter.rt,enter.started,enter.stopped,iSi.started,iSi.stopped,receiveMoneyPicture.started,receiveMoneyPicture.stopped,ISI2.started,ISI2.stopped,ChoicePic.started,ChoicePic.stopped,response.keys,response.rt,response.started,response.stopped,yesNo.started,yesNo.stopped,ask.started,ask.stopped,getAdv.started,getAdv.stopped,textForCode.started,textForCode.stopped,blank.started,blank.stopped,ChoicePic2.started,ChoicePic2.stopped,resp.keys,resp.rt,resp.started,resp.stopped,checkL1.started,checkL1.stopped,checkR1.started,checkR1.stopped,EndPrac.started,EndPrac.stopped,key_resp.keys,key_resp.rt,key_resp.started,key_resp.stopped,endText.started,endText.stopped,key_resp_2.keys,key_resp_2.rt,key_resp_2.started,key_resp_2.stopped,participant,session,age,gender (0=male, 1 = female, 2 = other),date,expName,psychopyVersion,frameRate,
,,,,,,,,,,,,,,,,,,226.58552773098927,None,space,427.6878854680108,226.58552773098927,None,,,,,,,,,,,,,,,,,,,,,,,,,,,,,,,,,,,,,,,,,,,,,,,,,,,,,,,,,,,,,,,,,,,,,118,001,18,1,2020_Feb_26_1258,Test,3.2.4,59.84194030677391,
,,,,,,,,,,,,,,,,,,,,,,,,654.2981439250289,None,space,18.50329070701264,654.2981439250289,None,,,,,,,,,,,,,,,,,,,,,,,,,,,,,,,,,,,,,,,,,,,,,,,,,,,,,,,,,,,,,,,118,001,18,1,2020_Feb_26_1258,Test,3.2.4,59.84194030677391,
,,,,,,,,,,,,,,,,,,,,,,,,,,,,,,673.4153042520629,None,673.4153042520629,None,673.4153042520629,None,left,10.162094812025316,673.4153042520629,None,,,,,,,,,,,,,,,,,,,,,,,,,,,,,,,,,,,,,,,,,,,,,,,,,,,,,118,001,18,1,2020_Feb_26_1258,Test,3.2.4,59.84194030677391,
,,,,,,,,,,,,,,,,,,,,,,,,,,,,,,,,,,,,,,,,673.4153042520629,None,673.4153042520629,None,return,14.281976340920664,673.4153042520629,None,,,,,,,,,,,,,,,,,,,,,,,,,,,,,,,,,,,,,,,,,,,,,118,001,18,1,2020_Feb_26_1258,Test,3.2.4,59.84194030677391,
Pictures/IA50_G10.bmp,Pictures/IA50_G10.bmp,Pictures/IA50.bmp,"

"Go with the safe option here!"",0,safe,0,0,0,0,,,,,,,,,,,,,,,,,,,,,,,,,,,,,,,,,,,,,,,687.7531736739911,None,689.77518272202,691.2791704470292,691.262445062981,None,692.7998432080494,None,2,2.3934315559454262,694.8719940150622,None,694.8719940150622,None,694.8719940150622,None,None,None,None,None,697.5122896659886,None,697.5122896659886,None,left,0.6491290259873495,697.5122896659886,None,698.1974338750588,699.5008837949717,None,None,,,,,,,,,,,,,118,001,18,1,2020_Feb_26_1258,Test,3.2.4,59.84194030677391,
Pictures/IA100_G20.bmp,Pictures/IA100_G20.bmp,Pictures/IA100.bmp,"

"Go ahead and gamble!"",1,risk,0,1,1,4,,,,,,,,,,,,,,,,,,,,,,,,,,,,,,,,,,,,,,,699.517586670001,None,701.5730127870338,703.0769965620711,703.0602777539752,None,704.6143792880466,None,2,1.071869509993121,706.5695597120794,None,706.5695597120794,None,706.5695597120794,None,None,None,None,None,707.82287115301,None,707.82287115301,None,left,1.4985429280204698,707.82287115301,None,709.3602498499677,None,None,None,,,,,,,,,,,,,118,001,18,1,2020_Feb_26_1258,Test,3.2.4,59.84194030677391,
Pictures/IA100_G40.bmp,Pictures/IA100_G40.bmp,Pictures/IA100.bmp,"

"Try your luck and gamble!"",1,risk,0,2,2,5,,,,,,,,,,,,,,,,,,,,,,,,,,,,,,,,,,,,,,,709.8448745990172,None,711.8668849660316,713.3875659119803,713.3708473730367,None,714.9249633890577,None,1,1.2565580799710006,716.896862484049,None,716.896862484049,None,716.896862484049,None,718.2671152440598,None,718.2671152440598,719.26975914801,720.4061035340419,None,720.4061035340419,None,None,,720.4061035340419,None,None,None,None,None,,,,,,,,,,,,,118,001,18,1,2020_Feb_26_1258,Test,3.2.4,59.84194030677391,
Pictures/IA50_G20.bmp,Pictures/IA50_G20.bmp,Pictures/IA50.bmp,"

"Let's venture and take a risk!"",1,risk,0,3,3,1,,,,,,,,,,,,,,,,,,,,,,,,,,,,,,,,,,,,,,,722.4113947850419,None,724.4334069819888,725.9540859980043,725.9373946940759,None,727.5081917110365,None,1,1.1460554769728333,729.4633695760276,None,729.4633695760276,None,729.4633695760276,None,730.7166756159859,None,730.7166756159859,731.7193246670067,732.8222474330105,None,732.8222474330105,None,right,1.1311598949832842,732.8222474330105,None,None,None,733.9919877180364,None,,,,,,,,,,,,,118,001,18,1,2020_Feb_26_1258,Test,3.2.4,59.84194030677391,
Pictures/IA50_G40.bmp,Pictures/IA50_G40.bmp,Pictures/IA50.bmp,"

"It would probably be best to play it safe."",0,safe,0,4,4,3,,,,,,,,,,,,,,,,,,,,,,,,,,,,,,,,,,,,,,,734.8442360360641,None,736.8662481630454,738.3869284800021,738.3702321230667,None,739.9410354749998,None,2,1.001197794917971,741.8962196019711,None,741.8962196019711,None,741.8962196019711,None,None,None,None,None,743.0826693300623,None,743.0826693300623,None,None,,743.0826693300623,None,None,None,None,None,,,,,,,,,,,,,118,001,18,1,2020_Feb_26_1258,Test,3.2.4,59.84194030677391,
Pictures/IA50_G30.bmp,Pictures/IA50_G30.bmp,Pictures/IA50.bmp,"

"I think you should gamble."",1,risk,0,5,5,2,,,,,,,,,,,,,,,,,,,,,,,,,,,,,,,,,,,,,,,745.0879612100543,None,747.1099705729866,748.6306558320066,748.6139585199999,None,750.1680516430642,None,1,1.389490533969365,752.1399293399882,None,752.1399293399882,None,752.1399293399882,None,753.6606352609815,None,753.6606352609815,754.6632782770321,755.7661916259676,None,755.7661916259676,None,right,0.9072414010297507,755.7661916259676,None,None,None,756.7186991680646,757.7547568050213,,,,,,,,,,,,,118,001,18,1,2020_Feb_26_1258,Test,3.2.4,59.84194030677391,
,,,,,,,,,,,,,,,,,,,,,,,,,,,,,,,,,,,,,,,,,,,,,,,,,,,,,,,,,,,,,,,,,,,,,,,,,,,,,,,,757.7714834350627,None,space,27.20592271105852,757.7714834350627,None,,,,,,,118,001,18,1,2020_Feb_26_1258,Test,3.2.4,59.84194030677391,
Pictures/IA25_G15.bmp,Pictures/IA25_G15.bmp,Pictures/IA25.bmp,"

"I think you should take a gamble."",1,risk,,,,,0,0,0,0,0,0,0,17,,,,,,,,,,,,,785.1437909840606,None,785.1437909840606,None,785.1437909840606,None,left,7.849619886022992,785.1437909840606,None,785.1437909840606,None,785.1437909840606,None,return,12.961507870000787,785.1437909840606,None,798.1614961409941,None,800.1835161270574,801.7041961200302,801.6874791079899,None,803.2248828529846,None,2,0.9173795829992741,805.1800382230431,None,805.1800382230431,None,805.1800382230431,None,None,None,None,None,806.2829508470604,None,806.2829508470604,None,None,,806.2829508470604,None,None,None,None,None,,,,,,,,,,,,,118,001,18,1,2020_Feb_26_1258,Test,3.2.4,59.84194030677391,
Pictures/IA100_L60.bmp,Pictures/IA100_L60.bmp,Pictures/IA100.bmp,"

"You'd have a lot to lose, don't gamble."",0,safe,,,,,0,0,0,0,0,1,1,2,,,,,,,,,,,,,,,,,,,,,,,,,,,,,,,808.2882428229786,None,810.310253586038,811.8309403350577,811.814240923035,None,813.3683362120064,None,1,1.5892163030803204,815.3402084619738,None,815.3402084619738,None,815.3402084619738,None,817.0781435370445,None,817.0781435370445,818.0807875560131,819.200418218039,None,819.200418218039,None,left,1.416997245978564,819.200418218039,None,820.654255332076,None,None,None,,,,,,,,,,,,,118,001,18,1,2020_Feb_26_1258,Test,3.2.4,59.84194030677391,
Pictures/IA75_L60.bmp,Pictures/IA75_L60.bmp,Pictures/IA75.bmp,"

"Why not take the gamble?"",1,risk,,,,,0,0,0,0,0,2,2,1,,,,,,,,,,,,,,,,,,,,,,,,,,,,,,,821.2057030070573,None,823.2443841360509,824.7651002000785,824.7484067389742,None,826.2857983959839,None,2,1.0877389990491793,828.2576783989789,None,828.2576783989789,None,828.2576783989789,None,None,None,None,None,829.5109752099961,None,829.5109752099961,None,left,0.6104517440544441,829.5109752099961,None,830.1626965029864,831.4995565119898,None,None,,,,,,,,,,,,,118,001,18,1,2020_Feb_26_1258,Test,3.2.4,59.84194030677391,
Pictures/IA50_G10.bmp,Pictures/IA50_G10.bmp,Pictures/IA50.bmp,"

"Go with the safe option here!"",0,safe,,,,,0,0,0,0,0,3,3,19,,,,,,,,,,,,,,,,,,,,,,,,,,,,,,,831.5162862719735,None,833.5382903050631,835.05897714803,835.04225249507,None,836.5462365760468,None,2,1.009193912963383,838.5682334000012,None,838.5682334000012,None,838.5682334000012,None,None,None,None,None,839.7379547330784,None,839.7379547330784,None,left,0.35945202107541263,839.7379547330784,None,840.1390579340514,841.7265871440759,None,None,,,,,,,,,,,,,118,001,18,1,2020_Feb_26_1258,Test,3.2.4,59.84194030677391,
Pictures/IA25_L20.bmp,Pictures/IA25_L20.bmp,Pictures/IA25.bmp,"

"Don't be tempted to gamble."",0,safe,,,,,0,0,0,0,0,4,4,16,,,,,,,,,,,,,,,,,,,,,,,,,,,,,,,841.7432887459872,None,843.7652934100479,845.2859749620548,845.2692784180399,None,846.8233707170002,None,1,0.662174767930992,848.7952502360567,None,848.7952502360567,None,848.7952502360567,None,849.5639578889823,None,849.5639578889823,850.5665989610134,851.66953142907,None,851.66953142907,None,right,0.8918735560728237,851.66953142907,None,None,None,852.6053078280529,853.674812664045,,,,,,,,,,,,,118,001,18,1,2020_Feb_26_1258,Test,3.2.4,59.84194030677391,
Pictures/IA100_G60.bmp,Pictures/IA100_G60.bmp,Pictures/IA100.bmp,"

"Be cautious, don't gamble for this one."",0,safe,,,,,0,0,0,0,0,5,5,7,,,,,,,,,,,,,,,,,,,,,,,,,,,,,,,853.6915235830238,None,855.7135339080123,857.2342148299795,857.2174964559963,None,858.7883280459791,None,1,0.5859489659778774,860.7434764860664,None,860.7434764860664,None,860.7434764860664,None,861.4787682649912,None,861.4787682649912,862.4814068870619,863.584326428012,None,863.584326428012,None,None,,863.584326428012,None,None,None,None,None,,,,,,,,,,,,,118,001,18,1,2020_Feb_26_1258,Test,3.2.4,59.84194030677391,
Pictures/IA40_20_G95p.bmp,Pictures/IA40_20_G95p.bmp,Pictures/IA40.bmp,"

"Hold back, stay with the safe choice."",0,safe,,,,,0,0,0,0,0,6,6,18,,,,,,,,,,,,,,,,,,,,,,,,,,,,,,,865.5896188850747,None,867.645052206004,869.1490079710493,869.1323141950415,None,870.6697156630689,None,2,0.35983592295087874,872.6415883239824,None,872.6415883239824,None,872.6415883239824,None,None,None,None,None,873.1763159900438,None,873.1763159900438,None,left,0.7450992149533704,873.1763159900438,None,873.9617239739746,875.1648995650467,None,None,,,,,,,,,,,,,118,001,18,1,2020_Feb_26_1258,Test,3.2.4,59.84194030677391,
Pictures/IA25_G5.bmp,Pictures/IA25_G5.bmp,Pictures/IA25.bmp,"

"Let's stay with the certain option."",0,safe,,,,,0,0,0,0,0,7,7,9,,,,,,,,,,,,,,,,,,,,,,,,,,,,,,,875.1816225179937,None,877.2036316930316,878.7243141140789,878.7075960329967,None,880.261709311977,None,2,0.5758470750879496,882.2335885710781,None,882.2335885710781,None,882.2335885710781,None,None,None,None,None,882.9855817880016,None,882.9855817880016,None,left,0.47184629493858665,882.9855817880016,None,883.5036045690067,884.9741564770229,None,None,,,,,,,,,,,,,118,001,18,1,2020_Feb_26_1258,Test,3.2.4,59.84194030677391,
Pictures/IA50_G40.bmp,Pictures/IA50_G40.bmp,Pictures/IA50.bmp,"

"It would probably be best to play it safe."",0,safe,,,,,0,0,0,0,0,8,8,4,,,,,,,,,,,,,,,,,,,,,,,,,,,,,,,884.9908551870612,None,887.0128650959814,888.533545655082,888.5168552540708,None,890.0208106420469,None,1,0.13460265297908336,892.0428309789859,None,892.0428309789859,None,892.0428309789859,None,892.3269227080746,None,892.3269227080746,893.3295627339976,894.4324783760821,None,894.4324783760821,None,right,0.9529274739325047,894.4324783760821,None,None,None,895.4351149629802,None,,,,,,,,,,,,,118,001,18,1,2020_Feb_26_1258,Test,3.2.4,59.84194030677391,
Pictures/IA80_40_G95p.bmp,Pictures/IA80_40_G95p.bmp,Pictures/IA80.bmp,"

"Think of the payoff, gamble!"",1,risk,,,,,0,0,0,0,0,9,9,12,,,,,,,,,,,,,,,,,,,,,,,,,,,,,,,896.4544825110352,None,898.4932036440587,900.0138840270229,899.9971665740013,None,901.5345590739744,None,1,0.6469790899427608,903.5064395939698,None,903.5064395939698,None,903.5064395939698,None,904.2583870789967,None,904.2583870789967,905.2610655250028,906.3639840020332,None,906.3639840020332,None,left,0.6054313170025125,906.3639840020332,None,907.0157015949953,908.352568824077,None,None,,,,,,,,,,,,,118,001,18,1,2020_Feb_26_1258,Test,3.2.4,59.84194030677391,
Pictures/IA75_G45.bmp,Pictures/IA75_G45.bmp,Pictures/IA75.bmp,"

"Don't gamble for this one."",0,safe,,,,,0,0,0,0,0,10,10,10,,,,,,,,,,,,,,,,,,,,,,,,,,,,,,,908.3692883449839,None,910.3913031390402,911.9119804659858,911.8952601640485,None,913.4493761070771,None,1,1.2601779229007661,915.4212508259807,None,915.4212508259807,None,915.4212508259807,None,916.7915278560249,None,916.7915278560249,917.7941760360263,918.8970895269886,None,918.8970895269886,None,right,1.1043194020166993,918.8970895269886,None,None,None,920.0501338100294,None,,,,,,,,,,,,,118,001,18,1,2020_Feb_26_1258,Test,3.2.4,59.84194030677391,
Pictures/IA20_10_G95p.bmp,Pictures/IA20_10_G95p.bmp,Pictures/IA20.bmp,"

"Take a leap, I think you should gamble."",1,risk,,,,,0,0,0,0,0,11,11,3,,,,,,,,,,,,,,,,,,,,,,,,,,,,,,,920.9191071359674,None,922.9745368009899,924.4784961930709,924.4618065339746,None,925.9991948510287,None,2,0.2543736780062318,927.9710737239802,None,927.9710737239802,None,927.9710737239802,None,None,None,None,None,928.4724193320144,None,928.4724193320144,None,left,0.6170107070356607,928.4724193320144,None,929.1241166690597,930.460965508013,None,None,,,,,,,,,,,,,118,001,18,1,2020_Feb_26_1258,Test,3.2.4,59.84194030677391,
Pictures/IA110_55_L95p.bmp,Pictures/IA110_55_L95p.bmp,Pictures/IA110.bmp,"

"Trust me, gamble!"",1,risk,,,,,0,0,0,0,0,12,12,0,,,,,,,,,,,,,,,,,,,,,,,,,,,,,,,930.4776875920361,None,932.533159713028,934.0370780890808,934.0203818919836,None,935.5744873950025,None,2,1.2477806909009814,937.5296421269886,None,937.5296421269886,None,937.5296421269886,None,None,None,None,None,938.983483734075,None,938.983483734075,None,right,0.3779362930217758,938.983483734075,None,None,None,939.4012473550392,940.988774019992,,,,,,,,,,,,,118,001,18,1,2020_Feb_26_1258,Test,3.2.4,59.84194030677391,
Pictures/IA75_G30.bmp,Pictures/IA75_G30.bmp,Pictures/IA75.bmp,"

"Be bold, gamble!"",1,risk,,,,,0,0,0,0,0,13,13,13,,,,,,,,,,,,,,,,,,,,,,,,,,,,,,,941.0055023940513,None,943.060930035077,944.564887488028,944.5481954520801,None,946.1023024020251,None,1,0.8239867989905179,948.0574494330212,None,948.0574494330212,None,948.0574494330212,None,948.9765540930675,None,948.9765540930675,949.9792016489664,951.0821362449788,None,951.0821362449788,None,left,1.1672743449453264,951.0821362449788,None,952.2852808759781,None,None,None,,,,,,,,,,,,,118,001,18,1,2020_Feb_26_1258,Test,3.2.4,59.84194030677391,
Pictures/IA75_L30.bmp,Pictures/IA75_L30.bmp,Pictures/IA75.bmp,"

"Hold back, stay with the safe choice."",0,safe,,,,,0,0,0,0,0,14,14,8,,,,,,,,,,,,,,,,,,,,,,,,,,,,,,,953.104122400051,None,955.1261322280625,956.6468112909934,956.6300993870245,None,958.2009229509858,None,1,0.33335057192016393,960.1560754700331,None,960.1560754700331,None,960.1560754700331,None,960.6239896330517,None,960.6239896330517,961.6266328369966,962.7796843809774,None,962.7796843809774,None,right,1.189733184990473,962.7796843809774,None,None,None,964.0162928260397,None,,,,,,,,,,,,,118,001,18,1,2020_Feb_26_1258,Test,3.2.4,59.84194030677391,
Pictures/IA20_10_L95p.bmp,Pictures/IA20_10_L95p.bmp,Pictures/IA20.bmp,"

"Don't be tempted to gamble."",0,safe,,,,,0,0,0,0,0,15,15,11,,,,,,,,,,,,,,,,,,,,,,,,,,,,,,,964.8016761810286,None,966.8403986330377,968.3443791060708,968.3276751560625,None,969.8817793140188,None,1,0.27577065804507583,971.8536550160497,None,971.8536550160497,None,971.8536550160497,None,972.2380021560239,None,972.2380021560239,973.2406446390087,974.3435665899888,None,974.3435665899888,None,right,0.3538488690974191,974.3435665899888,None,None,None,974.7446072440362,976.3488534099888,,,,,,,,,,,,,118,001,18,1,2020_Feb_26_1258,Test,3.2.4,59.84194030677391,
Pictures/IA100_L40.bmp,Pictures/IA100_L40.bmp,Pictures/IA100.bmp,"

"Think of the payoff, gamble!"",1,risk,,,,,0,0,0,0,0,16,16,5,,,,,,,,,,,,,,,,,,,,,,,,,,,,,,,976.3655662010424,None,978.4210039150203,979.9249613940483,979.9082622600254,None,981.4623658009805,None,1,0.9679009630344808,983.4175235250732,None,983.4175235250732,None,983.4175235250732,None,984.5037319359835,None,984.5037319359835,985.5063776180614,986.6092986330623,None,986.6092986330623,None,right,0.2881184989819303,986.6092986330623,None,None,None,986.943498402019,988.614577380009,,,,,,,,,,,,,118,001,18,1,2020_Feb_26_1258,Test,3.2.4,59.84194030677391,
Pictures/IA80_40_L95p.bmp,Pictures/IA80_40_L95p.bmp,Pictures/IA80.bmp,"

"Let's stay with the certain option."",0,safe,,,,,0,0,0,0,0,17,17,14,,,,,,,,,,,,,,,,,,,,,,,,,,,,,,,988.6313006259734,None,990.6700251169968,992.1739816350164,992.1572850079974,None,993.7113759430358,None,2,1.1021609229501337,995.6832572059939,None,995.6832572059939,None,995.6832572059939,None,None,None,None,None,996.9699988600332,None,996.9699988600332,None,right,0.3034162229159847,996.9699988600332,None,None,None,997.3209203010192,998.9585661530728,,,,,,,,,,,,,118,001,18,1,2020_Feb_26_1258,Test,3.2.4,59.84194030677391,
Pictures/IA25_L15.bmp,Pictures/IA25_L15.bmp,Pictures/IA25.bmp,"

"There's not much on the line here, gamble!"",1,risk,,,,,0,0,0,0,0,18,18,15,,,,,,,,,,,,,,,,,,,,,,,,,,,,,,,998.9752911180258,None,1001.0140107430052,1002.5346935020061,1002.517976475996,None,1004.0553654649993,None,1,0.12617767706979066,1006.0272474320373,None,1006.0272474320373,None,1006.0272474320373,None,1006.2946268169908,None,1006.2946268169908,1007.2972720720572,1008.4001901780721,None,1008.4001901780721,None,left,1.1212283869972453,1008.4001901780721,None,1009.5699338880368,None,None,None,,,,,,,,,,,,,118,001,18,1,2020_Feb_26_1258,Test,3.2.4,59.84194030677391,
Pictures/IA100_G40.bmp,Pictures/IA100_G40.bmp,Pictures/IA100.bmp,"

"Try your luck and gamble!"",1,risk,,,,,0,0,0,0,0,19,19,6,,,,,,,,,,,,,,,,,,,,,,,,,,,,,,,1010.4054708860349,None,1012.427482202067,1013.9481325410306,1013.9314682800323,None,1015.4855597880669,None,1,0.4479755759239197,1017.4574457230046,None,1017.4574457230046,None,1017.4574457230046,None,1018.0088921890128,None,1018.0088921890128,1019.0115359850461,1020.1144213189837,None,1020.1144213189837,None,left,1.4389924780698493,1020.1144213189837,None,1021.6017119820463,None,None,None,,,,,,,,,,,,,118,001,18,1,2020_Feb_26_1258,Test,3.2.4,59.84194030677391,
,,,,,,,,,,0,0,0,0,,,,,,,,,,,,,,,,,,,,,,,,,,,,,,,,,,,,,,,,,,,,,,,,,,,,,,,,,,,,,,,,,,,,,,,,,1022.3537051050225,None,return,14.663703468977474,1022.3537051050225,None,118,001,18,1,2020_Feb_26_1258,Test,3.2.4,59.84194030677391,
Pictures/IA20_10_L95p.bmp,Pictures/IA20_10_L95p.bmp,Pictures/IA20.bmp,"

"Don't be tempted to gamble."",0,safe,,,,,1,0,1,0,0,0,0,10,,,,,,,,,,,,,1037.209626330994,None,1037.209626330994,None,1037.209626330994,None,right,6.879783220007084,1037.209626330994,None,1037.209626330994,None,1037.209626330994,None,return,10.695563167100772,1037.209626330994,None,1047.954682281008,None,1049.976677941042,1051.4973602800164,1051.4806438620435,None,1053.0514636950102,None,1,0.4355083300033584,1054.9899120649789,None,1054.9899120649789,None,1054.9899120649789,None,1055.5580860570772,None,1055.5580860570772,1056.5607240890386,1057.663650355069,None,1057.663650355069,None,right,0.41774658393114805,1057.663650355069,None,None,None,1058.1148311709985,1059.6522230270784,,,,,,,,,,,,,118,001,18,1,2020_Feb_26_1258,Test,3.2.4,59.84194030677391,
Pictures/IA50_L20.bmp,Pictures/IA50_L20.bmp,Pictures/IA50.bmp,"

"Certainty is boring, take a risk!"",1,risk,,,,,1,0,1,0,0,1,1,16,,,,,,,,,,,,,,,,,,,,,,,,,,,,,,,1059.66894796805,None,1061.7243720990373,1063.2283378189895,1063.2116409220034,None,1064.749048377038,None,2,0.544521939009428,1066.720910532982,None,1066.720910532982,None,1066.720910532982,None,None,None,None,None,1067.4394766039914,None,1067.4394766039914,None,right,0.5699381979648024,1067.4394766039914,None,None,None,1068.0577657970134,1069.4280572440475,,,,,,,,,,,,,118,001,18,1,2020_Feb_26_1258,Test,3.2.4,59.84194030677391,
Pictures/IA50_L40.bmp,Pictures/IA50_L40.bmp,Pictures/IA50.bmp,"

"That gamble doesn't sound too good, play it safe."",0,safe,,,,,1,0,1,0,0,2,2,7,,,,,,,,,,,,,,,,,,,,,,,,,,,,,,,1069.4447586920578,None,1071.4667705360334,1072.9874475849792,1072.97075712902,None,1074.524849264999,None,1,0.4806949810590595,1076.4967221750412,None,1076.4967221750412,None,1076.4967221750412,None,1077.2319993010024,None,1077.2319993010024,1078.2346406050492,1079.3375604930334,None,1079.3375604930334,None,left,0.3438590810401365,1079.3375604930334,None,1079.721906564082,1081.3261572530027,None,None,,,,,,,,,,,,,118,001,18,1,2020_Feb_26_1258,Test,3.2.4,59.84194030677391,
Pictures/IA75_G45.bmp,Pictures/IA75_G45.bmp,Pictures/IA75.bmp,"

"Don't gamble for this one."",0,safe,,,,,1,0,1,0,0,3,3,9,,,,,,,,,,,,,,,,,,,,,,,,,,,,,,,1081.3428610879928,None,1083.364864215022,1084.8855494509917,1084.8688527849736,None,1086.4229417759925,None,2,0.8706031630281359,1088.3948207870126,None,1088.3948207870126,None,1088.3948207870126,None,None,None,None,None,1089.4308906700462,None,1089.4308906700462,None,left,0.3785321769537404,1089.4308906700462,None,1089.8486599699827,1091.4194840469863,None,None,,,,,,,,,,,,,118,001,18,1,2020_Feb_26_1258,Test,3.2.4,59.84194030677391,
Pictures/IA75_L30.bmp,Pictures/IA75_L30.bmp,Pictures/IA75.bmp,"

"Hold back, stay with the safe choice."",0,safe,,,,,1,0,1,0,0,4,4,19,,,,,,,,,,,,,,,,,,,,,,,,,,,,,,,1091.436182063073,None,1093.4581950790016,1094.9788733749883,1094.9621824719943,None,1096.4661420000484,None,1,0.7452602590201423,1098.4881610269658,None,1098.4881610269658,None,1098.4881610269658,None,1099.3738285580184,None,1099.3738285580184,1100.3764768480323,1101.479393446003,None,1101.479393446003,None,left,1.362028419971466,1101.479393446003,None,1102.8830866080243,None,None,None,,,,,,,,,,,,,118,001,18,1,2020_Feb_26_1258,Test,3.2.4,59.84194030677391,
Pictures/IA75_L45.bmp,Pictures/IA75_L45.bmp,Pictures/IA75.bmp,"

"Don't gamble for this one, play it safe."",0,safe,,,,,1,0,1,0,0,5,5,15,,,,,,,,,,,,,,,,,,,,,,,,,,,,,,,1103.5014084680006,None,1105.5234125970164,1107.0440918600652,1107.0273706490407,None,1108.5814891210757,None,2,0.5120511229615659,1110.5533658060012,None,1110.5533658060012,None,1110.5533658060012,None,None,None,None,None,1111.2385056240018,None,1111.2385056240018,None,None,,1111.2385056240018,None,None,None,None,None,,,,,,,,,,,,,118,001,18,1,2020_Feb_26_1258,Test,3.2.4,59.84194030677391,
Pictures/IA110_55_L95p.bmp,Pictures/IA110_55_L95p.bmp,Pictures/IA110.bmp,"

"Trust me, gamble!"",1,risk,,,,,1,0,1,0,0,6,6,1,,,,,,,,,,,,,,,,,,,,,,,,,,,,,,,1113.2438057850813,None,1115.2658100770786,1116.7864951820811,1116.7697729860665,None,1118.3071807050146,None,1,0.22567337506916374,1120.295753390994,None,1120.295753390994,None,1120.295753390994,None,1120.6299825520255,None,1120.6299825520255,1121.6326226580422,1122.7522550240392,None,1122.7522550240392,None,right,0.44116094696801156,1122.7522550240392,None,None,None,1123.2368664389942,1124.7408308850136,,,,,,,,,,,,,118,001,18,1,2020_Feb_26_1258,Test,3.2.4,59.84194030677391,
Pictures/IA25_L10.bmp,Pictures/IA25_L10.bmp,Pictures/IA25.bmp,"

"Dont be afraid to take the risk!"",1,risk,,,,,1,0,1,0,0,7,7,18,,,,,,,,,,,,,,,,,,,,,,,,,,,,,,,1124.7575473350007,None,1126.7795575630153,1128.3002402230632,1128.283521192032,None,1129.8376413040096,None,1,0.8559041909174994,1131.809528050013,None,1131.809528050013,None,1131.809528050013,None,1132.795438308036,None,1132.795438308036,1133.7980836110655,1134.9010007410543,None,1134.9010007410543,None,None,,1134.9010007410543,None,None,None,None,None,,,,,,,,,,,,,118,001,18,1,2020_Feb_26_1258,Test,3.2.4,59.84194030677391,
Pictures/IA25_G10.bmp,Pictures/IA25_G10.bmp,Pictures/IA25.bmp,"

"What's life without a little risk?"",1,risk,,,,,1,0,1,0,0,8,8,3,,,,,,,,,,,,,,,,,,,,,,,,,,,,,,,1136.9062957509886,None,1138.9283070469974,1140.4489864220377,1140.432296892046,None,1141.9863840329926,None,2,0.8751663939328864,1143.9582617540145,None,1143.9582617540145,None,1143.9582617540145,None,None,None,None,None,1145.0110429750057,None,1145.0110429750057,None,left,0.8383786630583927,1145.0110429750057,None,1145.8967107799836,1146.9996328999987,None,None,,,,,,,,,,,,,118,001,18,1,2020_Feb_26_1258,Test,3.2.4,59.84194030677391,
Pictures/IA25_G15.bmp,Pictures/IA25_G15.bmp,Pictures/IA25.bmp,"

"I think you should take a gamble."",1,risk,,,,,1,0,1,0,0,9,9,0,,,,,,,,,,,,,,,,,,,,,,,,,,,,,,,1147.0163348950446,None,1149.0383478190051,1150.559031693032,1150.5423315990483,None,1152.1131457770243,None,1,0.4051157219801098,1154.0683195319725,None,1154.0683195319725,None,1154.0683195319725,None,1154.6030231220648,None,1154.6030231220648,1155.6057031570235,1156.7086221600184,None,1156.7086221600184,None,left,0.34079184907022864,1156.7086221600184,None,1157.0929658929817,1158.697204036056,None,None,,,,,,,,,,,,,118,001,18,1,2020_Feb_26_1258,Test,3.2.4,59.84194030677391,
Pictures/IA80_40_L95p.bmp,Pictures/IA80_40_L95p.bmp,Pictures/IA80.bmp,"

"Let's stay with the certain option."",0,safe,,,,,1,0,1,0,0,10,10,17,,,,,,,,,,,,,,,,,,,,,,,,,,,,,,,1158.7139022890478,None,1160.7359162389766,1162.25659413205,1162.2398987379856,None,1163.7438580379821,None,1,0.443544679088518,1165.7658816110343,None,1165.7658816110343,None,1165.7658816110343,None,1166.3507587820059,None,1166.3507587820059,1167.35342047608,1168.4563190770568,None,1168.4563190770568,None,right,0.41708704293705523,1168.4563190770568,None,None,None,1168.9075087619713,1170.4616002360126,,,,,,,,,,,,,118,001,18,1,2020_Feb_26_1258,Test,3.2.4,59.84194030677391,
Pictures/IA50_G10.bmp,Pictures/IA50_G10.bmp,Pictures/IA50.bmp,"

"Go with the safe option here!"",0,safe,,,,,1,0,1,0,0,11,11,11,,,,,,,,,,,,,,,,,,,,,,,,,,,,,,,1170.4783236250514,None,1172.5003362729913,1174.0210168709746,1174.0043005059706,None,1175.5751253430499,None,2,0.6391480840975419,1177.5302790009882,None,1177.5302790009882,None,1177.5302790009882,None,None,None,None,None,1178.3323990190402,None,1178.3323990190402,None,left,0.3330235780449584,1178.3323990190402,None,1178.7000441750279,1180.320978890988,None,None,,,,,,,,,,,,,118,001,18,1,2020_Feb_26_1258,Test,3.2.4,59.84194030677391,
Pictures/IA100_L60.bmp,Pictures/IA100_L60.bmp,Pictures/IA100.bmp,"

"You'd have a lot to lose, don't gamble."",0,safe,,,,,1,0,1,0,0,12,12,2,,,,,,,,,,,,,,,,,,,,,,,,,,,,,,,1180.3377038830658,None,1182.3597129590344,1183.8636782120448,1183.8469809520757,None,1185.4177914219908,None,1,0.9877611809642985,1187.3896683120402,None,1187.3896683120402,None,1187.3896683120402,None,1188.509283959982,None,1188.509283959982,1189.5119248330593,1190.6148442740086,None,1190.6148442740086,None,left,0.6025654610712081,1190.6148442740086,None,1191.2665654519806,1192.6034257670399,None,None,,,,,,,,,,,,,118,001,18,1,2020_Feb_26_1258,Test,3.2.4,59.84194030677391,
Pictures/IA50_G20.bmp,Pictures/IA50_G20.bmp,Pictures/IA50.bmp,"

"Let's venture and take a risk!"",1,risk,,,,,1,0,1,0,0,13,13,5,,,,,,,,,,,,,,,,,,,,,,,,,,,,,,,1192.620148482034,None,1194.6421614970313,1196.162843639031,1196.1461246659746,None,1197.7169509259984,None,2,0.6573349420214072,1199.6721055180533,None,1199.6721055180533,None,1199.6721055180533,None,None,None,None,None,1200.507656516973,None,1200.507656516973,None,left,0.19775780907366425,1200.507656516973,None,1200.741594720981,1202.5129520939663,None,None,,,,,,,,,,,,,118,001,18,1,2020_Feb_26_1258,Test,3.2.4,59.84194030677391,
Pictures/IA100_G60.bmp,Pictures/IA100_G60.bmp,Pictures/IA100.bmp,"

"Be cautious, don't gamble for this one."",0,safe,,,,,1,0,1,0,0,14,14,8,,,,,,,,,,,,,,,,,,,,,,,,,,,,,,,1202.5297113009728,None,1204.5516594450455,1206.0723418700509,1206.055648506037,None,1207.6097384219756,None,1,0.587809230084531,1209.5816172939958,None,1209.5816172939958,None,1209.5816172939958,None,1210.3169009180274,None,1210.3169009180274,1211.3195464160526,1212.439177511027,None,1212.439177511027,None,right,0.8982383150141686,1212.439177511027,None,None,None,1213.3749646709766,1214.427751782001,,,,,,,,,,,,,118,001,18,1,2020_Feb_26_1258,Test,3.2.4,59.84194030677391,
Pictures/IA75_G60.bmp,Pictures/IA75_G60.bmp,Pictures/IA75.bmp,"

"Make it exciting, take a chance!"",1,risk,,,,,1,0,1,0,0,15,15,6,,,,,,,,,,,,,,,,,,,,,,,,,,,,,,,1214.4444690590026,None,1216.4664797279984,1217.987167248968,1217.9704440480564,None,1219.5412695580162,None,2,1.0410002369899303,1221.496426986996,None,1221.496426986996,None,1221.496426986996,None,None,None,None,None,1222.716314763995,None,1222.716314763995,None,right,0.26110160595271736,1222.716314763995,None,None,None,1223.0171176360454,1224.721608136082,,,,,,,,,,,,,118,001,18,1,2020_Feb_26_1258,Test,3.2.4,59.84194030677391,
Pictures/IA50_L10.bmp,Pictures/IA50_L10.bmp,Pictures/IA50.bmp,"

"Play it safe, don’t gamble!"",0,safe,,,,,1,0,1,0,0,16,16,14,,,,,,,,,,,,,,,,,,,,,,,,,,,,,,,1224.7383305290714,None,1226.760342637077,1228.2810216690414,1228.2643074169755,None,1229.8184194460046,None,1,1.6671277290442958,1231.7902970190626,None,1231.7902970190626,None,1231.7902970190626,None,1233.5783392729936,None,1233.5783392729936,1234.5809879100416,1235.6839062629733,None,1235.6839062629733,None,None,,1235.6839062629733,None,None,None,None,None,,,,,,,,,,,,,118,001,18,1,2020_Feb_26_1258,Test,3.2.4,59.84194030677391,
Pictures/IA25_G20.bmp,Pictures/IA25_G20.bmp,Pictures/IA25.bmp,"

"I wouldn't gamble for this one. "",0,safe,,,,,1,0,1,0,0,17,17,12,,,,,,,,,,,,,,,,,,,,,,,,,,,,,,,1237.7067282759817,None,1239.7279457839904,1241.2486038539791,1241.2319068380166,None,1242.785998127074,None,1,0.691555961035192,1244.7578758470481,None,1244.7578758470481,None,1244.7578758470481,None,1245.5767153850757,None,1245.5767153850757,1246.5793612600537,1247.6989548710408,None,1247.6989548710408,None,right,0.6224611150100827,1247.6989548710408,None,None,None,1248.3674076220486,1249.7042732710252,,,,,,,,,,,,,118,001,18,1,2020_Feb_26_1258,Test,3.2.4,59.84194030677391,
Pictures/IA110_55_G95p.bmp,Pictures/IA110_55_G95p.bmp,Pictures/IA110.bmp,"

"Take a chance!"",1,risk,,,,,1,0,1,0,0,18,18,13,,,,,,,,,,,,,,,,,,,,,,,,,,,,,,,1249.7209959400352,None,1251.743005087017,1253.2636860869825,1253.2469715770567,None,1254.8177956769941,None,2,0.7004656080389395,1256.7729502550792,None,1256.7729502550792,None,1256.7729502550792,None,None,None,None,None,1257.6252121190773,None,1257.6252121190773,None,left,0.24020363902673125,1257.6252121190773,None,1257.9092944670701,1259.613783264067,None,None,,,,,,,,,,,,,118,001,18,1,2020_Feb_26_1258,Test,3.2.4,59.84194030677391,
Pictures/IA75_L60.bmp,Pictures/IA75_L60.bmp,Pictures/IA75.bmp,"

"Why not take the gamble?"",1,risk,,,,,1,0,1,0,0,19,19,4,,,,,,,,,,,,,,,,,,,,,,,,,,,,,,,1259.6305098980665,None,1261.652517859009,1263.1731995850569,1263.156479554018,None,1264.7273066780763,None,2,0.7749712960794568,1266.68246309401,None,1266.68246309401,None,1266.68246309401,None,None,None,None,None,1267.6182628490496,None,1267.6182628490496,None,left,0.1191565899644047,1267.6182628490496,None,1267.7853834109847,1269.623565359041,None,None,,,,,,,,,,,,,118,001,18,1,2020_Feb_26_1258,Test,3.2.4,59.84194030677391,
,,,,,,,,,,1,0,1,0,,,,,,,,,,,,,,,,,,,,,,,,,,,,,,,,,,,,,,,,,,,,,,,,,,,,,,,,,,,,,,,,,,,,,,,,,1269.7906849089777,None,return,15.106716871960089,1269.7906849089777,None,118,001,18,1,2020_Feb_26_1258,Test,3.2.4,59.84194030677391,
Pictures/IA75_L30.bmp,Pictures/IA75_L30.bmp,Pictures/IA75.bmp,"

"Hold back, stay with the safe choice."",0,safe,,,,,2,0,2,0,0,0,0,17,,,,,,,,,,,,,1285.081082227989,None,1285.081082227989,None,1285.081082227989,None,left,2.16033782903105,1285.081082227989,None,1285.081082227989,None,1285.081082227989,None,return,3.56811738491524,1285.081082227989,None,1288.707313211984,None,1290.7126247470733,1292.2333059479715,1292.2165871160105,None,1293.720557293971,None,1,0.827567467931658,1295.7258575119777,None,1295.7258575119777,None,1295.7258575119777,None,1296.695101413061,None,1296.695101413061,1297.6977418620372,1298.800660956069,None,1298.800660956069,None,right,1.2567516720155254,1298.800660956069,None,None,None,1300.1040960280225,None,,,,,,,,,,,,,118,001,18,1,2020_Feb_26_1258,Test,3.2.4,59.84194030677391,
Pictures/IA50_G10.bmp,Pictures/IA50_G10.bmp,Pictures/IA50.bmp,"

"Go with the safe option here!"",0,safe,,,,,2,0,2,0,0,1,1,18,,,,,,,,,,,,,,,,,,,,,,,,,,,,,,,1300.8226523550693,None,1302.844668625039,1304.3653454590822,1304.34865421406,None,1305.852609960013,None,2,0.6787869229447097,1307.8746339409845,None,1307.8746339409845,None,1307.8746339409845,None,None,None,None,None,1308.7101787580177,None,1308.7101787580177,None,left,0.1312376681016758,1308.7101787580177,None,1308.8772663710406,1310.7154686120339,None,None,,,,,,,,,,,,,118,001,18,1,2020_Feb_26_1258,Test,3.2.4,59.84194030677391,
Pictures/IA75_G60.bmp,Pictures/IA75_G60.bmp,Pictures/IA75.bmp,"

"Make it exciting, take a chance!"",1,risk,,,,,2,0,2,0,0,2,2,19,,,,,,,,,,,,,,,,,,,,,,,,,,,,,,,1310.7321730459807,None,1312.7541774900164,1314.2748594770674,1314.2581634930102,None,1315.7621248050127,None,2,1.0172827820060775,1317.7841473909793,None,1317.7841473909793,None,1317.7841473909793,None,None,None,None,None,1318.970615542028,None,1318.970615542028,None,right,1.014797291951254,1318.970615542028,None,None,None,1320.0233971669804,None,,,,,,,,,,,,,118,001,18,1,2020_Feb_26_1258,Test,3.2.4,59.84194030677391,
Pictures/IA50_L40.bmp,Pictures/IA50_L40.bmp,Pictures/IA50.bmp,"

"That gamble doesn't sound too good, play it safe."",0,safe,,,,,2,0,2,0,0,3,3,1,,,,,,,,,,,,,,,,,,,,,,,,,,,,,,,1320.9926642680075,None,1323.014634046005,1324.5353153289761,1324.518597851973,None,1326.0225822150242,None,1,0.8528499010717496,1328.0445810189703,None,1328.0445810189703,None,1328.0445810189703,None,1329.0639478049707,None,1329.0639478049707,1330.0665894630365,1331.2029335660627,None,1331.2029335660627,None,left,0.36647783091757447,1331.2029335660627,None,1331.6039760920685,1333.208213709062,None,None,,,,,,,,,,,,,118,001,18,1,2020_Feb_26_1258,Test,3.2.4,59.84194030677391,
Pictures/IA50_G30.bmp,Pictures/IA50_G30.bmp,Pictures/IA50.bmp,"

"I think you should gamble."",1,risk,,,,,2,0,2,0,0,4,4,5,,,,,,,,,,,,,,,,,,,,,,,,,,,,,,,1333.2249367330223,None,1335.2469538489822,1336.7676288830116,1336.7509119770257,None,1338.3217394120293,None,1,1.0045339239295572,1340.2768931729952,None,1340.2768931729952,None,1340.2768931729952,None,1341.413230185979,None,1341.413230185979,1342.415885752067,1343.5187923200428,None,1343.5187923200428,None,left,0.39462015498429537,1343.5187923200428,None,1343.953285634052,1345.5240861490602,None,None,,,,,,,,,,,,,118,001,18,1,2020_Feb_26_1258,Test,3.2.4,59.84194030677391,
Pictures/IA100_G60.bmp,Pictures/IA100_G60.bmp,Pictures/IA100.bmp,"

"Be cautious, don't gamble for this one."",0,safe,,,,,2,0,2,0,0,5,5,6,,,,,,,,,,,,,,,,,,,,,,,,,,,,,,,1345.5408086440293,None,1347.5628235010663,1349.0835091680055,1349.0667827730067,None,1350.5707687850809,None,1,0.7926605609245598,1352.5927730440162,None,1352.5927730440162,None,1352.5927730440162,None,1353.5118730179965,None,1353.5118730179965,1354.5145171510521,1355.6174524200615,None,1355.6174524200615,None,left,0.8639326579868793,1355.6174524200615,None,1356.5198066820158,1357.6227293059928,None,None,,,,,,,,,,,,,118,001,18,1,2020_Feb_26_1258,Test,3.2.4,59.84194030677391,
Pictures/IA80_40_L95p.bmp,Pictures/IA80_40_L95p.bmp,Pictures/IA80.bmp,"

"Let's stay with the certain option."",0,safe,,,,,2,0,2,0,0,6,6,11,,,,,,,,,,,,,,,,,,,,,,,,,,,,,,,1357.6394309960306,None,1359.6614517190028,1361.1821224510204,1361.1654290310107,None,1362.68608236406,None,1,0.8700329039711505,1364.6913994620554,None,1364.6913994620554,None,1364.6913994620554,None,1365.6940482669743,None,1365.6940482669743,1366.6966915719677,1367.7996159259928,None,1367.7996159259928,None,right,0.3858100540237501,1367.7996159259928,None,None,None,1368.2341017629951,1369.804904562072,,,,,,,,,,,,,118,001,18,1,2020_Feb_26_1258,Test,3.2.4,59.84194030677391,
Pictures/IA50_G40.bmp,Pictures/IA50_G40.bmp,Pictures/IA50.bmp,"

"It would probably be best to play it safe."",0,safe,,,,,2,0,2,0,0,7,7,8,,,,,,,,,,,,,,,,,,,,,,,,,,,,,,,1369.8216304200469,None,1371.8436454470502,1373.3643229079898,1373.347603489994,None,1374.9017251740443,None,2,0.9998175380751491,1376.8735995850293,None,1376.8735995850293,None,1376.8735995850293,None,None,None,None,None,1378.04334284598,None,1378.04334284598,None,right,0.2620714660733938,1378.04334284598,None,None,None,1378.344150407007,1380.0486367840786,,,,,,,,,,,,,118,001,18,1,2020_Feb_26_1258,Test,3.2.4,59.84194030677391,
Pictures/IA100_L60.bmp,Pictures/IA100_L60.bmp,Pictures/IA100.bmp,"

"You'd have a lot to lose, don't gamble."",0,safe,,,,,2,0,2,0,0,8,8,15,,,,,,,,,,,,,,,,,,,,,,,,,,,,,,,1380.0653626209823,None,1382.0873733820627,1383.6080553249922,1383.5913360390114,None,1385.0953220870579,None,1,0.4761064819758758,1387.1173184689833,None,1387.1173184689833,None,1387.1173184689833,None,1387.718908543,None,1387.718908543,1388.7215531959664,1389.8244725039694,None,1389.8244725039694,None,left,0.44094203994609416,1389.8244725039694,None,1390.3090835760813,1391.8130679930327,None,None,,,,,,,,,,,,,118,001,18,1,2020_Feb_26_1258,Test,3.2.4,59.84194030677391,
Pictures/IA80_40_G95p.bmp,Pictures/IA80_40_G95p.bmp,Pictures/IA80.bmp,"

"Think of the payoff, gamble!"",1,risk,,,,,2,0,2,0,0,9,9,10,,,,,,,,,,,,,,,,,,,,,,,,,,,,,,,1391.8297707070597,None,1393.8517775940709,1395.3724606300239,1395.3557661169907,None,1396.909857409075,None,2,0.8956937140319496,1398.881738770986,None,1398.881738770986,None,1398.881738770986,None,None,None,None,None,1399.9679526980035,None,1399.9679526980035,None,left,0.2814685000339523,1399.9679526980035,None,1400.2854551459895,1401.956534364028,None,None,,,,,,,,,,,,,118,001,18,1,2020_Feb_26_1258,Test,3.2.4,59.84194030677391,
Pictures/IA75_L15.bmp,Pictures/IA75_L15.bmp,Pictures/IA75.bmp,"

"Trust me–gamble!"",1,risk,,,,,2,0,2,0,0,10,10,9,,,,,,,,,,,,,,,,,,,,,,,,,,,,,,,1401.973233856028,None,1403.9952449779958,1405.515930233989,1405.4992350480752,None,1407.053333599004,None,1,0.4882210200885311,1409.0252044750378,None,1409.0252044750378,None,1409.0252044750378,None,1409.6101025940152,None,1409.6101025940152,1410.6127413370414,1411.715661643073,None,1411.715661643073,None,right,0.8377648829482496,1411.715661643073,None,None,None,1412.601331681013,1413.704232878983,,,,,,,,,,,,,118,001,18,1,2020_Feb_26_1258,Test,3.2.4,59.84194030677391,
Pictures/IA40_20_L95p.bmp,Pictures/IA40_20_L95p.bmp,Pictures/IA40.bmp,"

"Trust me, gamble!"",1,risk,,,,,2,0,2,0,0,11,11,14,,,,,,,,,,,,,,,,,,,,,,,,,,,,,,,1413.720956030069,None,1415.7596785300411,1417.2636375130387,1417.2469430150231,None,1418.7676148250466,None,1,0.3725167199736461,1420.7729140960146,None,1420.7729140960146,None,1420.7729140960146,None,1421.2575269960798,None,1421.2575269960798,1422.2601741980761,1423.3798047620803,None,1423.3798047620803,None,right,0.42161507497075945,1423.3798047620803,None,None,None,1423.847713957075,1425.385109076975,,,,,,,,,,,,,118,001,18,1,2020_Feb_26_1258,Test,3.2.4,59.84194030677391,
Pictures/IA20_10_L95p.bmp,Pictures/IA20_10_L95p.bmp,Pictures/IA20.bmp,"

"Don't be tempted to gamble."",0,safe,,,,,2,0,2,0,0,12,12,12,,,,,,,,,,,,,,,,,,,,,,,,,,,,,,,1425.4018059460213,None,1427.423821095028,1428.94450053107,1428.92781169503,None,1430.4651949650142,None,2,0.2196371000027284,1432.453790980042,None,1432.453790980042,None,1432.453790980042,None,None,None,None,None,1432.8380908890394,None,1432.8380908890394,None,right,0.22731473902240396,1432.8380908890394,None,None,None,1433.1055101080565,1434.8434348630253,,,,,,,,,,,,,118,001,18,1,2020_Feb_26_1258,Test,3.2.4,59.84194030677391,
Pictures/IA75_L45.bmp,Pictures/IA75_L45.bmp,Pictures/IA75.bmp,"

"Don't gamble for this one, play it safe."",0,safe,,,,,2,0,2,0,0,13,13,16,,,,,,,,,,,,,,,,,,,,,,,,,,,,,,,1434.860136260977,None,1436.8821466970257,1438.4028280019993,1438.3861370800296,None,1439.9235152120236,None,1,0.6893081839662045,1441.9121193210594,None,1441.9121193210594,None,1441.9121193210594,None,1442.7476500610355,None,1442.7476500610355,1443.750290711061,1444.853210602072,None,1444.853210602072,None,left,0.2922159150475636,1444.853210602072,None,1445.1874342910014,1446.8585197339999,None,None,,,,,,,,,,,,,118,001,18,1,2020_Feb_26_1258,Test,3.2.4,59.84194030677391,
Pictures/IA20_10_G95p.bmp,Pictures/IA20_10_G95p.bmp,Pictures/IA20.bmp,"

"Take a leap, I think you should gamble."",1,risk,,,,,2,0,2,0,0,14,14,2,,,,,,,,,,,,,,,,,,,,,,,,,,,,,,,1446.8752173549728,None,1448.8972269310616,1450.401198860025,1450.3844690719852,None,1451.955322365975,None,1,0.39422454906161875,1453.927199902013,None,1453.927199902013,None,1453.927199902013,None,1454.4619330180576,None,1454.4619330180576,1455.4645780510036,1456.5674994119909,None,1456.5674994119909,None,left,0.3379160809563473,1456.5674994119909,None,1456.9518413200276,1458.5560792220058,None,None,,,,,,,,,,,,,118,001,18,1,2020_Feb_26_1258,Test,3.2.4,59.84194030677391,
Pictures/IA100_L40.bmp,Pictures/IA100_L40.bmp,Pictures/IA100.bmp,"

"Think of the payoff, gamble!"",1,risk,,,,,2,0,2,0,0,15,15,4,,,,,,,,,,,,,,,,,,,,,,,,,,,,,,,1458.5728045650758,None,1460.5948149120668,1462.1154992190422,1462.0987806579797,None,1463.6194803350372,None,2,0.9926508390344679,1465.6247752690688,None,1465.6247752690688,None,1465.6247752690688,None,None,None,None,None,1466.7778098940616,None,1466.7778098940616,None,left,0.19162166595924646,1466.7778098940616,None,1467.011775002,1468.7831053260015,None,None,,,,,,,,,,,,,118,001,18,1,2020_Feb_26_1258,Test,3.2.4,59.84194030677391,
Pictures/IA75_G15.bmp,Pictures/IA75_G15.bmp,Pictures/IA75.bmp,"

"Take a chance!"",1,risk,,,,,2,0,2,0,0,16,16,7,,,,,,,,,,,,,,,,,,,,,,,,,,,,,,,1468.7998290190008,None,1470.8218430100242,1472.3425414960366,1472.325807137997,None,1473.8632096790243,None,1,1.101648562005721,1475.8517875630641,None,1475.8517875630641,None,1475.8517875630641,None,1477.038268523058,None,1477.038268523058,1478.0409128260799,1479.1438329570228,None,1479.1438329570228,None,left,0.2735817979555577,1479.1438329570228,None,1479.4613371450687,1481.1491164070321,None,None,,,,,,,,,,,,,118,001,18,1,2020_Feb_26_1258,Test,3.2.4,59.84194030677391,
Pictures/IA110_55_G95p.bmp,Pictures/IA110_55_G95p.bmp,Pictures/IA110.bmp,"

"Take a chance!"",1,risk,,,,,2,0,2,0,0,17,17,13,,,,,,,,,,,,,,,,,,,,,,,,,,,,,,,1481.1658397109713,None,1483.187851033057,1484.7085344470106,1484.6918144220253,None,1486.1958028919762,None,2,0.9436275699408725,1488.2177995190723,None,1488.2177995190723,None,1488.2177995190723,None,None,None,None,None,1489.2872907790588,None,1489.2872907790588,None,left,0.5701292199082673,1489.2872907790588,None,1489.9055902289692,1491.2758868039818,None,None,,,,,,,,,,,,,118,001,18,1,2020_Feb_26_1258,Test,3.2.4,59.84194030677391,
Pictures/IA25_L10.bmp,Pictures/IA25_L10.bmp,Pictures/IA25.bmp,"

"Dont be afraid to take the risk!"",1,risk,,,,,2,0,2,0,0,18,18,0,,,,,,,,,,,,,,,,,,,,,,,,,,,,,,,1491.292586449068,None,1493.3146000650013,1494.835288243019,1494.8185867910506,None,1496.3559691800037,None,2,0.7528530830750242,1498.3445786139928,None,1498.3445786139928,None,1498.3445786139928,None,None,None,None,None,1499.2636529690353,None,1499.2636529690353,None,right,0.1937639469979331,1499.2636529690353,None,None,None,1499.4976162370294,1501.2689600880258,,,,,,,,,,,,,118,001,18,1,2020_Feb_26_1258,Test,3.2.4,59.84194030677391,
Pictures/IA25_L5.bmp,Pictures/IA25_L5.bmp,Pictures/IA25.bmp,"

"It would be smarter to choose the safe option."",0,safe,,,,,2,0,2,0,0,19,19,3,,,,,,,,,,,,,,,,,,,,,,,,,,,,,,,1501.2856611299794,None,1503.3076380440034,1504.828355123056,1504.81166223099,None,1506.3657537620747,None,2,0.3037940579233691,1508.3376330320025,None,1508.3376330320025,None,1508.3376330320025,None,None,None,None,None,1508.8222466639709,None,1508.8222466639709,None,right,0.29916763107758015,1508.8222466639709,None,None,None,1509.156472029048,1510.8275452030357,,,,,,,,,,,,,118,001,18,1,2020_Feb_26_1258,Test,3.2.4,59.84194030677391,
,,,,,,,,,,2,0,2,0,,,,,,,,,,,,,,,,,,,,,,,,,,,,,,,,,,,,,,,,,,,,,,,,,,,,,,,,,,,,,,,,,,,,,,,,,1510.9946658060653,None,return,12.678745670011267,1510.9946658060653,None,118,001,18,1,2020_Feb_26_1258,Test,3.2.4,59.84194030677391,
Pictures/IA25_L10.bmp,Pictures/IA25_L10.bmp,Pictures/IA25.bmp,"

"Dont be afraid to take the risk!"",1,risk,,,,,3,0,3,0,0,0,0,5,,,,,,,,,,,,,1523.8285742340377,None,1523.8285742340377,None,1523.8285742340377,None,left,5.732835036003962,1523.8285742340377,None,1523.8285742340377,None,1523.8285742340377,None,return,8.340718800085597,1523.8285742340377,None,1532.2173707860056,None,1534.2394105349667,1535.7600958270486,1535.7434041560628,None,1537.2473710869672,None,2,0.4767592210555449,1539.2526734430576,None,1539.2526734430576,None,1539.2526734430576,None,None,None,None,None,1539.9378219180508,None,1539.9378219180508,None,right,0.3915925190085545,1539.9378219180508,None,None,None,1540.3722855909728,1541.9431112559978,,,,,,,,,,,,,118,001,18,1,2020_Feb_26_1258,Test,3.2.4,59.84194030677391,
Pictures/IA75_L15.bmp,Pictures/IA75_L15.bmp,Pictures/IA75.bmp,"

"Trust me–gamble!"",1,risk,,,,,3,0,3,0,0,1,1,18,,,,,,,,,,,,,,,,,,,,,,,,,,,,,,,1541.9598098490387,None,1543.9818207420176,1545.5036506650504,1545.4858414160553,None,1547.039931589039,None,1,0.3176076610106975,1549.0118048150325,None,1549.0118048150325,None,1549.0118048150325,None,1549.4295672640437,None,1549.4295672640437,1550.4322407339932,1551.5852822830202,None,1551.5852822830202,None,right,0.8081248849630356,1551.5852822830202,None,None,None,1552.4374998300336,1553.5738663939992,,,,,,,,,,,,,118,001,18,1,2020_Feb_26_1258,Test,3.2.4,59.84194030677391,
Pictures/IA25_G15.bmp,Pictures/IA25_G15.bmp,Pictures/IA25.bmp,"

"I think you should take a gamble."",1,risk,,,,,3,0,3,0,0,2,2,9,,,,,,,,,,,,,,,,,,,,,,,,,,,,,,,1553.5905587839661,None,1555.612563207047,1557.1332435060758,1557.1165498460177,None,1558.653934583068,None,2,0.5268946120049804,1560.6425320910057,None,1560.6425320910057,None,1560.6425320910057,None,None,None,None,None,1561.3777954350226,None,1561.3777954350226,None,left,0.19162323093041778,1561.3777954350226,None,1561.6117548650363,1563.3831066440325,None,None,,,,,,,,,,,,,118,001,18,1,2020_Feb_26_1258,Test,3.2.4,59.84194030677391,
Pictures/IA75_G45.bmp,Pictures/IA75_G45.bmp,Pictures/IA75.bmp,"

"Don't gamble for this one."",0,safe,,,,,3,0,3,0,0,3,3,6,,,,,,,,,,,,,,,,,,,,,,,,,,,,,,,1563.3998013470555,None,1565.4218140899902,1566.9424969640095,1566.9258027659962,None,1568.4464759230614,None,2,0.6056539190467447,1570.451775035006,None,1570.451775035006,None,1570.451775035006,None,None,None,None,None,1571.2204715610715,None,1571.2204715610715,None,left,0.2209503409685567,1571.2204715610715,None,1571.4878786680056,1573.2257824600674,None,None,,,,,,,,,,,,,118,001,18,1,2020_Feb_26_1258,Test,3.2.4,59.84194030677391,
Pictures/IA25_L15.bmp,Pictures/IA25_L15.bmp,Pictures/IA25.bmp,"

"There's not much on the line here, gamble!"",1,risk,,,,,3,0,3,0,0,4,4,13,,,,,,,,,,,,,,,,,,,,,,,,,,,,,,,1573.242477737018,None,1575.2644926080247,1576.785173556069,1576.768478844082,None,1578.2891530080233,None,2,0.6829724989365786,1580.2944510669913,None,1580.2944510669913,None,1580.2944510669913,None,None,None,None,None,1581.1634152260376,None,1581.1634152260376,None,left,0.18201791401952505,1581.1634152260376,None,1581.3806523920503,1583.1520121080102,None,None,,,,,,,,,,,,,118,001,18,1,2020_Feb_26_1258,Test,3.2.4,59.84194030677391,
Pictures/IA50_L30.bmp,Pictures/IA50_L30.bmp,Pictures/IA50.bmp,"

"Take a leap, I think you should gamble."",1,risk,,,,,3,0,3,0,0,5,5,19,,,,,,,,,,,,,,,,,,,,,,,,,,,,,,,1583.168709960999,None,1585.1907238500426,1586.7114065950736,1586.694714699057,None,1588.248775330023,None,2,0.5007418571040034,1590.2206838569837,None,1590.2206838569837,None,1590.2206838569837,None,None,None,None,None,1590.8891262760153,None,1590.8891262760153,None,left,0.08030201296787709,1590.8891262760153,None,1591.0061007640325,1592.877715265029,None,None,,,,,,,,,,,,,118,001,18,1,2020_Feb_26_1258,Test,3.2.4,59.84194030677391,
Pictures/IA25_G5.bmp,Pictures/IA25_G5.bmp,Pictures/IA25.bmp,"

"Let's stay with the certain option."",0,safe,,,,,3,0,3,0,0,6,6,2,,,,,,,,,,,,,,,,,,,,,,,,,,,,,,,1592.8944151450414,None,1594.9164279489778,1596.4204086550744,1596.4036894370802,None,1597.9745050240308,None,1,0.3750391920330003,1599.9463861159747,None,1599.9463861159747,None,1599.9463861159747,None,1600.4477144370321,None,1600.4477144370321,1601.4503533450188,1602.5699841020396,None,1602.5699841020396,None,left,0.3834280390292406,1602.5699841020396,None,1602.9877520250157,1604.5585814560764,None,None,,,,,,,,,,,,,118,001,18,1,2020_Feb_26_1258,Test,3.2.4,59.84194030677391,
Pictures/IA50_G40.bmp,Pictures/IA50_G40.bmp,Pictures/IA50.bmp,"

"It would probably be best to play it safe."",0,safe,,,,,3,0,3,0,0,7,7,3,,,,,,,,,,,,,,,,,,,,,,,,,,,,,,,1604.57527927903,None,1606.5972910290584,1608.1179744030815,1608.101279282011,None,1609.6052425879752,None,2,0.4701583939604461,1611.6272637629882,None,1611.6272637629882,None,1611.6272637629882,None,None,None,None,None,1612.2789877210744,None,1612.2789877210744,None,right,0.18642760906368494,1612.2789877210744,None,None,None,1612.5129230540479,1614.2842825610423,,,,,,,,,,,,,118,001,18,1,2020_Feb_26_1258,Test,3.2.4,59.84194030677391,
Pictures/IA50_L10.bmp,Pictures/IA50_L10.bmp,Pictures/IA50.bmp,"

"Play it safe, don’t gamble!"",0,safe,,,,,3,0,3,0,0,8,8,11,,,,,,,,,,,,,,,,,,,,,,,,,,,,,,,1614.3009813909885,None,1616.3229957669973,1617.843677542056,1617.8269820150454,None,1619.3476642930182,None,2,0.6244695979403332,1621.3529561590403,None,1621.3529561590403,None,1621.3529561590403,None,None,None,None,None,1622.138375631068,None,1622.138375631068,None,right,0.03904729092027992,1622.138375631068,None,None,None,1622.2219254390802,1624.1436734480085,,,,,,,,,,,,,118,001,18,1,2020_Feb_26_1258,Test,3.2.4,59.84194030677391,
Pictures/IA100_G60.bmp,Pictures/IA100_G60.bmp,Pictures/IA100.bmp,"

"Be cautious, don't gamble for this one."",0,safe,,,,,3,0,3,0,0,9,9,0,,,,,,,,,,,,,,,,,,,,,,,,,,,,,,,1624.160369612975,None,1626.1824039070634,1627.703065662994,1627.6863713150378,None,1629.2237566469703,None,2,0.5250727699603885,1631.212356418022,None,1631.212356418022,None,1631.212356418022,None,None,None,None,None,1631.9141985540045,None,1631.9141985540045,None,left,0.1752275669714436,1631.9141985540045,None,1632.131437818054,1633.9027942210669,None,None,,,,,,,,,,,,,118,001,18,1,2020_Feb_26_1258,Test,3.2.4,59.84194030677391,
Pictures/IA110_55_L95p.bmp,Pictures/IA110_55_L95p.bmp,Pictures/IA110.bmp,"

"Trust me, gamble!"",1,risk,,,,,3,0,3,0,0,10,10,15,,,,,,,,,,,,,,,,,,,,,,,,,,,,,,,1633.9194933020044,None,1635.9415072189877,1637.4621910470305,1637.4454954480752,None,1638.9828764300328,None,2,0.453952842974104,1640.971479222062,None,1640.971479222062,None,1640.971479222062,None,None,None,None,None,1641.5897653930588,None,1641.5897653930588,None,right,0.04366147401742637,1641.5897653930588,None,None,None,1641.67332965706,1643.5783637580462,,,,,,,,,,,,,118,001,18,1,2020_Feb_26_1258,Test,3.2.4,59.84194030677391,
Pictures/IA100_G20.bmp,Pictures/IA100_G20.bmp,Pictures/IA100.bmp,"

"Go ahead and gamble!"",1,risk,,,,,3,0,3,0,0,11,11,1,,,,,,,,,,,,,,,,,,,,,,,,,,,,,,,1643.5950641310774,None,1645.633785360027,1647.1377690900117,1647.1210499280132,None,1648.6751699100714,None,2,0.25837825995404273,1650.6470463409787,None,1650.6470463409787,None,1650.6470463409787,None,None,None,None,None,1651.0648083770648,None,1651.0648083770648,None,left,1.1446088959928602,1651.0648083770648,None,1652.2512718810467,None,None,None,,,,,,,,,,,,,118,001,18,1,2020_Feb_26_1258,Test,3.2.4,59.84194030677391,
Pictures/IA75_G30.bmp,Pictures/IA75_G30.bmp,Pictures/IA75.bmp,"

"Be bold, gamble!"",1,risk,,,,,3,0,3,0,0,12,12,14,,,,,,,,,,,,,,,,,,,,,,,,,,,,,,,1653.070111669018,None,1655.0921240979806,1656.612808631966,1656.5960897119949,None,1658.1334979750682,None,2,0.3753544839564711,1660.122074672021,None,1660.122074672021,None,1660.122074672021,None,None,None,None,None,1660.6568307160633,None,1660.6568307160633,None,left,1.328577045002021,1660.6568307160633,None,1661.3586868090788,1662.6621301530395,None,None,,,,,,,,,,,,,118,001,18,1,2020_Feb_26_1258,Test,3.2.4,59.84194030677391,
Pictures/IA20_10_L95p.bmp,Pictures/IA20_10_L95p.bmp,Pictures/IA20.bmp,"

"Don't be tempted to gamble."",0,safe,,,,,3,0,3,0,0,13,13,8,,,,,,,,,,,,,,,,,,,,,,,,,,,,,,,1662.6788421029923,None,1664.7008527920116,1666.2215344900033,1666.204817387974,None,1667.742222479079,None,2,0.270628398982808,1669.7307997740572,None,1669.7307997740572,None,1669.7307997740572,None,None,None,None,None,1670.181994979037,None,1670.181994979037,None,right,0.6514195319032297,1670.181994979037,None,None,None,1670.8671322599985,1672.170587353059,,,,,,,,,,,,,118,001,18,1,2020_Feb_26_1258,Test,3.2.4,59.84194030677391,
Pictures/IA100_L60.bmp,Pictures/IA100_L60.bmp,Pictures/IA100.bmp,"

"You'd have a lot to lose, don't gamble."",0,safe,,,,,3,0,3,0,0,14,14,7,,,,,,,,,,,,,,,,,,,,,,,,,,,,,,,1672.18728787906,None,1674.2092990219826,1675.7299839020707,1675.7132887589978,None,1677.2506728309672,None,2,0.6981524019502103,1679.2392717390321,None,1679.2392717390321,None,1679.2392717390321,None,None,None,None,None,1680.1081854039803,None,1680.1081854039803,None,left,0.06123127194587141,1680.1081854039803,None,1680.2084959530039,1682.113517967984,None,None,,,,,,,,,,,,,118,001,18,1,2020_Feb_26_1258,Test,3.2.4,59.84194030677391,
Pictures/IA75_L30.bmp,Pictures/IA75_L30.bmp,Pictures/IA75.bmp,"

"Hold back, stay with the safe choice."",0,safe,,,,,3,0,3,0,0,15,15,10,,,,,,,,,,,,,,,,,,,,,,,,,,,,,,,1682.1302409759955,None,1684.1522561920574,1685.6729407960083,1685.6562561580213,None,1687.176912529976,None,2,1.0352172399871051,1689.18221398897,None,1689.18221398897,None,1689.18221398897,None,None,None,None,None,1690.3853797269985,None,1690.3853797269985,None,right,0.22403609403409064,1690.3853797269985,None,None,None,1690.6527632210637,1692.390687769046,,,,,,,,,,,,,118,001,18,1,2020_Feb_26_1258,Test,3.2.4,59.84194030677391,
Pictures/IA75_L60.bmp,Pictures/IA75_L60.bmp,Pictures/IA75.bmp,"

"Why not take the gamble?"",1,risk,,,,,3,0,3,0,0,16,16,17,,,,,,,,,,,,,,,,,,,,,,,,,,,,,,,1692.4073863109807,None,1694.4293979390059,1695.9500821430702,1695.9333875160664,None,1697.4707703189924,None,2,0.7500447479542345,1699.459372207988,None,1699.459372207988,None,1699.459372207988,None,None,None,None,None,1700.378466992057,None,1700.378466992057,None,left,0.1269487109966576,1700.378466992057,None,1700.545559894992,1702.3837620089762,None,None,,,,,,,,,,,,,118,001,18,1,2020_Feb_26_1258,Test,3.2.4,59.84194030677391,
Pictures/IA110_55_G95p.bmp,Pictures/IA110_55_G95p.bmp,Pictures/IA110.bmp,"

"Take a chance!"",1,risk,,,,,3,0,3,0,0,17,17,16,,,,,,,,,,,,,,,,,,,,,,,,,,,,,,,1702.4004610549891,None,1704.4224728380796,1705.9431548069697,1705.9264619069872,None,1707.4638419570401,None,2,0.5329691669903696,1709.4524544560118,None,1709.4524544560118,None,1709.4524544560118,None,None,None,None,None,1710.1542920239735,None,1710.1542920239735,None,left,0.11111218901351094,1710.1542920239735,None,1710.3046814330155,1712.14288691408,None,None,,,,,,,,,,,,,118,001,18,1,2020_Feb_26_1258,Test,3.2.4,59.84194030677391,
Pictures/IA50_L40.bmp,Pictures/IA50_L40.bmp,Pictures/IA50.bmp,"

"That gamble doesn't sound too good, play it safe."",0,safe,,,,,3,0,3,0,0,18,18,12,,,,,,,,,,,,,,,,,,,,,,,,,,,,,,,1712.1595818710048,None,1714.1983054640004,1715.718995444011,1715.702292187023,None,1717.2563996299868,None,2,0.5338655250379816,1719.2115560360253,None,1719.2115560360253,None,1719.2115560360253,None,None,None,None,None,1719.9301337740617,None,1719.9301337740617,None,left,0.6072822279529646,1719.9301337740617,None,1720.581851592986,1721.918717617984,None,None,,,,,,,,,,,,,118,001,18,1,2020_Feb_26_1258,Test,3.2.4,59.84194030677391,
Pictures/IA75_G60.bmp,Pictures/IA75_G60.bmp,Pictures/IA75.bmp,"

"Make it exciting, take a chance!"",1,risk,,,,,3,0,3,0,0,19,19,4,,,,,,,,,,,,,,,,,,,,,,,,,,,,,,,1721.9354174280306,None,1723.9908485390479,1725.4948336660163,1725.4781154639786,None,1727.0155330450507,None,2,0.7660296889953315,1728.987387572066,None,1728.987387572066,None,1728.987387572066,None,None,None,None,None,1729.9566327349748,None,1729.9566327349748,None,right,0.10078209696803242,1729.9566327349748,None,None,None,1730.1073724280577,1731.945200339076,,,,,,,,,,,,,118,001,18,1,2020_Feb_26_1258,Test,3.2.4,59.84194030677391,
,,,,,,,,,,3,0,3,0,,,,,,,,,,,,,,,,,,,,,,,,,,,,,,,,,,,,,,,,,,,,,,,,,,,,,,,,,,,,,,,,,,,,,,,,,1732.1123237630818,None,return,6.457083262037486,1732.1123237630818,None,118,001,18,1,2020_Feb_26_1258,Test,3.2.4,59.84194030677391,
Pictures/IA50_L30.bmp,Pictures/IA50_L30.bmp,Pictures/IA50.bmp,"

"Take a leap, I think you should gamble."",1,risk,,,,,4,0,4,0,0,0,0,8,,,,,,,,,,,,,1738.7465249000816,None,1738.7465249000816,None,1738.7465249000816,None,left,1.8628944730153307,1738.7465249000816,None,1738.7465249000816,None,1738.7465249000816,None,return,4.6226844870252535,1738.7465249000816,None,1743.425551139051,None,1745.430837169988,1746.95151943597,1746.9348257019883,None,1748.4555075509707,None,2,0.8053421350196004,1750.444085582043,None,1750.444085582043,None,1750.444085582043,None,None,None,None,None,1751.4300239270087,None,1751.4300239270087,None,left,0.13138153310865164,1751.4300239270087,None,1751.5971419489942,1753.435318968026,None,None,,,,,,,,,,,,,118,001,18,1,2020_Feb_26_1258,Test,3.2.4,59.84194030677391,
Pictures/IA25_L15.bmp,Pictures/IA25_L15.bmp,Pictures/IA25.bmp,"

"There's not much on the line here, gamble!"",1,risk,,,,,4,0,4,0,0,1,1,2,,,,,,,,,,,,,,,,,,,,,,,,,,,,,,,1753.452043781057,None,1755.5074810960796,1757.0114347150084,1756.9947415409843,None,1758.515426450991,None,1,0.4414286529645324,1760.5039963340387,None,1760.5039963340387,None,1760.5039963340387,None,1761.0888792220503,None,1761.0888792220503,1762.091523359064,1763.227865603054,None,1763.227865603054,None,left,0.8455581329762936,1763.227865603054,None,1764.1135364189977,1765.216463092016,None,None,,,,,,,,,,,,,118,001,18,1,2020_Feb_26_1258,Test,3.2.4,59.84194030677391,
Pictures/IA100_L40.bmp,Pictures/IA100_L40.bmp,Pictures/IA100.bmp,"

"Think of the payoff, gamble!"",1,risk,,,,,4,0,4,0,0,2,2,0,,,,,,,,,,,,,,,,,,,,,,,,,,,,,,,1765.2331596920267,None,1767.2885935839731,1768.7925768650603,1768.7758572819876,None,1770.329966780031,None,2,0.4922935590147972,1772.285142687033,None,1772.285142687033,None,1772.285142687033,None,None,None,None,None,1773.0371158319758,None,1773.0371158319758,None,right,0.25230058701708913,1773.0371158319758,None,None,None,1773.3379254990723,1775.0424096600618,,,,,,,,,,,,,118,001,18,1,2020_Feb_26_1258,Test,3.2.4,59.84194030677391,
Pictures/IA50_G20.bmp,Pictures/IA50_G20.bmp,Pictures/IA50.bmp,"

"Let's venture and take a risk!"",1,risk,,,,,4,0,4,0,0,3,3,16,,,,,,,,,,,,,,,,,,,,,,,,,,,,,,,1775.0591351320036,None,1777.0811473190552,1778.601830217056,1778.5851107659983,None,1780.139227361069,None,2,0.2583224580157548,1782.1111065499717,None,1782.1111065499717,None,1782.1111065499717,None,None,None,None,None,1782.528867476969,None,1782.528867476969,None,left,0.20854983397293836,1782.528867476969,None,1782.7795233300421,1784.5174481190043,None,None,,,,,,,,,,,,,118,001,18,1,2020_Feb_26_1258,Test,3.2.4,59.84194030677391,
Pictures/IA50_G40.bmp,Pictures/IA50_G40.bmp,Pictures/IA50.bmp,"

"It would probably be best to play it safe."",0,safe,,,,,4,0,4,0,0,4,4,1,,,,,,,,,,,,,,,,,,,,,,,,,,,,,,,1784.5341741950251,None,1786.5561826860067,1788.0768664469942,1788.0601516959723,None,1789.6142619110178,None,2,0.8632756009465083,1791.5861414290266,None,1791.5861414290266,None,1791.5861414290266,None,None,None,None,None,1792.6389120670501,None,1792.6389120670501,None,right,0.12250333500560373,1792.6389120670501,None,None,None,1792.8060284500243,1794.6442046000157,,,,,,,,,,,,,118,001,18,1,2020_Feb_26_1258,Test,3.2.4,59.84194030677391,
Pictures/IA100_G20.bmp,Pictures/IA100_G20.bmp,Pictures/IA100.bmp,"

"Go ahead and gamble!"",1,risk,,,,,4,0,4,0,0,5,5,14,,,,,,,,,,,,,,,,,,,,,,,,,,,,,,,1794.6609438470332,None,1796.6829428760102,1798.2036274810089,1798.1869047740474,None,1799.7577308070613,None,2,0.39253705099690706,1801.712888028007,None,1801.712888028007,None,1801.712888028007,None,None,None,None,None,1802.2643574620597,None,1802.2643574620597,None,left,0.23305535002145916,1802.2643574620597,None,1802.5317805870436,1804.2696387710748,None,None,,,,,,,,,,,,,118,001,18,1,2020_Feb_26_1258,Test,3.2.4,59.84194030677391,
Pictures/IA75_L60.bmp,Pictures/IA75_L60.bmp,Pictures/IA75.bmp,"

"Why not take the gamble?"",1,risk,,,,,4,0,4,0,0,6,6,18,,,,,,,,,,,,,,,,,,,,,,,,,,,,,,,1804.286365707987,None,1806.3083747359924,1807.8290584470378,1807.812341677025,None,1809.3330301330425,None,2,0.7510898989858106,1811.3383326750482,None,1811.3383326750482,None,1811.3383326750482,None,None,None,None,None,1812.2407157910056,None,1812.2407157910056,None,left,0.2406960939988494,1812.2407157910056,None,1812.524796399055,1814.2293178529944,None,None,,,,,,,,,,,,,118,001,18,1,2020_Feb_26_1258,Test,3.2.4,59.84194030677391,
Pictures/IA50_L20.bmp,Pictures/IA50_L20.bmp,Pictures/IA50.bmp,"

"Certainty is boring, take a risk!"",1,risk,,,,,4,0,4,0,0,7,7,10,,,,,,,,,,,,,,,,,,,,,,,,,,,,,,,1814.2460118950112,None,1816.268021711032,1817.7887060709763,1817.7719839080237,None,1819.3428129750537,None,2,0.5754582340596244,1821.2979663410224,None,1821.2979663410224,None,1821.2979663410224,None,None,None,None,None,1822.0332408510149,None,1822.0332408510149,None,right,0.10417605692055076,1822.0332408510149,None,None,None,1822.1836370920064,1824.0218419610756,,,,,,,,,,,,,118,001,18,1,2020_Feb_26_1258,Test,3.2.4,59.84194030677391,
Pictures/IA40_20_G95p.bmp,Pictures/IA40_20_G95p.bmp,Pictures/IA40.bmp,"

"Hold back, stay with the safe choice."",0,safe,,,,,4,0,4,0,0,8,8,15,,,,,,,,,,,,,,,,,,,,,,,,,,,,,,,1824.0385366390692,None,1826.093970300979,1827.5979551529745,1827.581235656049,None,1829.118629146018,None,2,0.24693177489098161,1831.0905076289782,None,1831.0905076289782,None,1831.0905076289782,None,None,None,None,None,1831.508276758017,None,1831.508276758017,None,left,0.589139767922461,1831.508276758017,None,1832.1432949879672,1833.5135731690098,None,None,,,,,,,,,,,,,118,001,18,1,2020_Feb_26_1258,Test,3.2.4,59.84194030677391,
Pictures/IA40_20_L95p.bmp,Pictures/IA40_20_L95p.bmp,Pictures/IA40.bmp,"

"Trust me, gamble!"",1,risk,,,,,4,0,4,0,0,9,9,17,,,,,,,,,,,,,,,,,,,,,,,,,,,,,,,1833.5302966530435,None,1835.5523019040702,1837.0562638050178,1837.039567740052,None,1838.61038478103,None,2,0.2591642150655389,1840.582262090058,None,1840.582262090058,None,1840.582262090058,None,None,None,None,None,1841.0167294529965,None,1841.0167294529965,None,right,0.01670849195215851,1841.0167294529965,None,None,None,1841.066860622028,1843.0053136530332,,,,,,,,,,,,,118,001,18,1,2020_Feb_26_1258,Test,3.2.4,59.84194030677391,
Pictures/IA100_G80.bmp,Pictures/IA100_G80.bmp,Pictures/IA100.bmp,"

"Why not gamble?"",1,risk,,,,,4,0,4,0,0,10,10,3,,,,,,,,,,,,,,,,,,,,,,,,,,,,,,,1843.022036873037,None,1845.044050888042,1846.5647295110393,1846.5480116070248,None,1848.1556922710733,None,1,0.4394225790165365,1850.0740043839905,None,1850.0740043839905,None,1850.0740043839905,None,1850.6087504819734,None,1850.6087504819734,1851.611394929001,1852.7477360420162,None,1852.7477360420162,None,right,1.2776786910835654,1852.7477360420162,None,None,None,1854.0678858850151,None,,,,,,,,,,,,,118,001,18,1,2020_Feb_26_1258,Test,3.2.4,59.84194030677391,
Pictures/IA25_L5.bmp,Pictures/IA25_L5.bmp,Pictures/IA25.bmp,"

"It would be smarter to choose the safe option."",0,safe,,,,,4,0,4,0,0,11,11,4,,,,,,,,,,,,,,,,,,,,,,,,,,,,,,,1854.752980047022,None,1856.7750280919718,1858.2957078099716,1858.279017518973,None,1859.833106085076,None,1,0.7404751960420981,1861.8049860240426,None,1861.8049860240426,None,1861.8049860240426,None,1862.690660865046,None,1862.690660865046,1863.6933066970669,1864.829655374051,None,1864.829655374051,None,right,0.2837619240162894,1864.829655374051,None,None,None,1865.1471429490484,1866.8182242789771,,,,,,,,,,,,,118,001,18,1,2020_Feb_26_1258,Test,3.2.4,59.84194030677391,
Pictures/IA50_G30.bmp,Pictures/IA50_G30.bmp,Pictures/IA50.bmp,"

"I think you should gamble."",1,risk,,,,,4,0,4,0,0,12,12,7,,,,,,,,,,,,,,,,,,,,,,,,,,,,,,,1866.8349490290275,None,1868.8569596390007,1870.3776377469767,1870.3609208050184,None,1871.915038753068,None,2,0.6424922459991649,1873.8869286159752,None,1873.8869286159752,None,1873.8869286159752,None,None,None,None,None,1874.7057438400807,None,1874.7057438400807,None,left,0.04766607307828963,1874.7057438400807,None,1874.789295935072,1876.6943157509668,None,None,,,,,,,,,,,,,118,001,18,1,2020_Feb_26_1258,Test,3.2.4,59.84194030677391,
Pictures/IA75_L15.bmp,Pictures/IA75_L15.bmp,Pictures/IA75.bmp,"

"Trust me–gamble!"",1,risk,,,,,4,0,4,0,0,13,13,11,,,,,,,,,,,,,,,,,,,,,,,,,,,,,,,1876.7110409210436,None,1878.7330516009824,1880.2537291729823,1880.2370145909954,None,1881.7911261600675,None,2,0.8464147140039131,1883.763002693071,None,1883.763002693071,None,1883.763002693071,None,None,None,None,None,1884.7656519659795,None,1884.7656519659795,None,right,0.23576606798451394,1884.7656519659795,None,None,None,1885.0497338860296,1886.7542282789946,,,,,,,,,,,,,118,001,18,1,2020_Feb_26_1258,Test,3.2.4,59.84194030677391,
Pictures/IA100_L60.bmp,Pictures/IA100_L60.bmp,Pictures/IA100.bmp,"

"You'd have a lot to lose, don't gamble."",0,safe,,,,,4,0,4,0,0,14,14,13,,,,,,,,,,,,,,,,,,,,,,,,,,,,,,,1886.7709504090017,None,1888.7929507760564,1890.3136368950363,1890.296918475069,None,1891.867743183975,None,1,0.7465232380200177,1893.822901624022,None,1893.822901624022,None,1893.822901624022,None,1894.7085696309805,None,1894.7085696309805,1895.7112159000244,1896.8141365060583,None,1896.8141365060583,None,left,0.38727722491603345,1896.8141365060583,None,1897.2486227980116,1898.8194257840514,None,None,,,,,,,,,,,,,118,001,18,1,2020_Feb_26_1258,Test,3.2.4,59.84194030677391,
Pictures/IA80_40_G95p.bmp,Pictures/IA80_40_G95p.bmp,Pictures/IA80.bmp,"

"Think of the payoff, gamble!"",1,risk,,,,,4,0,4,0,0,15,15,6,,,,,,,,,,,,,,,,,,,,,,,,,,,,,,,1898.8361548969988,None,1900.8915801680414,1902.3955418519909,1902.378845415078,None,1903.9162381869974,None,2,0.3933246670057997,1905.8881158239674,None,1905.8881158239674,None,1905.8881158239674,None,None,None,None,None,1906.456270087976,None,1906.456270087976,None,left,0.21714725194033235,1906.456270087976,None,1906.7069293740205,1908.444851098,None,None,,,,,,,,,,,,,118,001,18,1,2020_Feb_26_1258,Test,3.2.4,59.84194030677391,
Pictures/IA80_40_L95p.bmp,Pictures/IA80_40_L95p.bmp,Pictures/IA80.bmp,"

"Let's stay with the certain option."",0,safe,,,,,4,0,4,0,0,16,16,9,,,,,,,,,,,,,,,,,,,,,,,,,,,,,,,1908.4615738539724,None,1910.4835838570725,1912.0042656160658,1911.9875518330373,None,1913.5416630570544,None,1,0.22386452998034656,1915.5135618050117,None,1915.5135618050117,None,1915.5135618050117,None,1915.8811657680199,None,1915.8811657680199,1916.8838110030629,1917.9867264090572,None,1917.9867264090572,None,right,0.36668847501277924,1917.9867264090572,None,None,None,1918.3877981350524,1919.9920315190684,,,,,,,,,,,,,118,001,18,1,2020_Feb_26_1258,Test,3.2.4,59.84194030677391,
Pictures/IA100_L20.bmp,Pictures/IA100_L20.bmp,Pictures/IA100.bmp,"

"Try to win as much money as you can, gamble!"",1,risk,,,,,4,0,4,0,0,17,17,12,,,,,,,,,,,,,,,,,,,,,,,,,,,,,,,1920.0087307810318,None,1922.0307398040313,1923.5514224260114,1923.53472692403,None,1925.0888170780381,None,1,0.34872448502574116,1927.0606987939682,None,1927.0606987939682,None,1927.0606987939682,None,1927.545309343026,None,1927.545309343026,1928.5479504080722,1929.6842927769758,None,1929.6842927769758,None,right,0.36511720693670213,1929.6842927769758,None,None,None,1930.0853667929769,1931.6895979869878,,,,,,,,,,,,,118,001,18,1,2020_Feb_26_1258,Test,3.2.4,59.84194030677391,
Pictures/IA25_G20.bmp,Pictures/IA25_G20.bmp,Pictures/IA25.bmp,"

"I wouldn't gamble for this one. "",0,safe,,,,,4,0,4,0,0,18,18,19,,,,,,,,,,,,,,,,,,,,,,,,,,,,,,,1931.7062947499799,None,1933.7283012890257,1935.2489853620064,1935.2322893639794,None,1936.7863813630538,None,2,0.42715796700213104,1938.758265928016,None,1938.758265928016,None,1938.758265928016,None,None,None,None,None,1939.3598562340485,None,1939.3598562340485,None,right,0.18554449500516057,1939.3598562340485,None,None,None,1939.593797923997,1941.365142463008,,,,,,,,,,,,,118,001,18,1,2020_Feb_26_1258,Test,3.2.4,59.84194030677391,
Pictures/IA110_55_L95p.bmp,Pictures/IA110_55_L95p.bmp,Pictures/IA110.bmp,"

"Trust me, gamble!"",1,risk,,,,,4,0,4,0,0,19,19,5,,,,,,,,,,,,,,,,,,,,,,,,,,,,,,,1941.381863340037,None,1943.4038713619811,1944.9245518270181,1944.907838587067,None,1946.4619477479719,None,1,0.2795904119266197,1948.433825502987,None,1948.433825502987,None,1948.433825502987,None,1948.8014264510712,None,1948.8014264510712,1949.8041052100016,1950.9070237790002,None,1950.9070237790002,None,right,0.41438829305116087,1950.9070237790002,None,None,None,1951.3582126690308,1952.9123052610084,,,,,,,,,,,,,118,001,18,1,2020_Feb_26_1258,Test,3.2.4,59.84194030677391,
,,,,,,,,,,4,0,4,0,,,,,,,,,,,,,,,,,,,,,,,,,,,,,,,,,,,,,,,,,,,,,,,,,,,,,,,,,,,,,,,,,,,,,,,,,1953.0794285780285,None,return,3.449981329962611,1953.0794285780285,None,118,001,18,1,2020_Feb_26_1258,Test,3.2.4,59.84194030677391,
Pictures/IA20_10_L95p.bmp,Pictures/IA20_10_L95p.bmp,Pictures/IA20.bmp,"

"Don't be tempted to gamble."",0,safe,,,,,5,0,5,0,0,0,0,0,,,,,,,,,,,,,1956.6889596240362,None,1956.6889596240362,None,1956.6889596240362,None,left,1.432447838014923,1956.6889596240362,None,1956.6889596240362,None,1956.6889596240362,None,return,4.4402629469987005,1956.6889596240362,None,1961.18414995505,None,1963.2061386510031,1964.726852020016,1964.710133773042,None,1966.2308284470346,None,None,,1968.2027071970515,None,1968.2027071970515,None,1968.2027071970515,None,None,None,None,None,1971.3108989170287,None,1971.3108989170287,None,right,0.8985154739348218,1971.3108989170287,None,None,None,1972.2467157640494,1973.316204392002,,,,,,,,,,,,,118,001,18,1,2020_Feb_26_1258,Test,3.2.4,59.84194030677391,
Pictures/IA50_G20.bmp,Pictures/IA50_G20.bmp,Pictures/IA50.bmp,"

"Let's venture and take a risk!"",1,risk,,,,,5,0,5,0,0,1,1,1,,,,,,,,,,,,,,,,,,,,,,,,,,,,,,,1973.33290248306,None,1975.3549104450503,1976.875591041986,1976.8588994450402,None,1978.362854801002,None,2,1.94455650402233,1980.3848766250303,None,1980.3848766250303,None,1980.3848766250303,None,None,None,None,None,1982.5071486490779,None,1982.5071486490779,None,left,0.2302544970298186,1982.5071486490779,None,1982.7745025260374,1984.512424882967,None,None,,,,,,,,,,,,,118,001,18,1,2020_Feb_26_1258,Test,3.2.4,59.84194030677391,
Pictures/IA100_L40.bmp,Pictures/IA100_L40.bmp,Pictures/IA100.bmp,"

"Think of the payoff, gamble!"",1,risk,,,,,5,0,5,0,0,2,2,7,,,,,,,,,,,,,,,,,,,,,,,,,,,,,,,1984.5291487320792,None,1986.5511555799749,1988.0718367260415,1988.0551180000184,None,1989.5591034169775,None,1,0.2283287199679762,1991.581095244037,None,1991.581095244037,None,1991.581095244037,None,1991.932033056044,None,1991.932033056044,1992.9346774769947,1994.0543064930243,None,1994.0543064930243,None,right,0.8190989639842883,1994.0543064930243,None,None,None,1994.9232530459994,1996.0595860830508,,,,,,,,,,,,,118,001,18,1,2020_Feb_26_1258,Test,3.2.4,59.84194030677391,
Pictures/IA75_L15.bmp,Pictures/IA75_L15.bmp,Pictures/IA75.bmp,"

"Trust me–gamble!"",1,risk,,,,,5,0,5,0,0,3,3,6,,,,,,,,,,,,,,,,,,,,,,,,,,,,,,,1996.07630710199,None,1998.098839749,1999.618995586061,1999.6022772850702,None,2001.1396816960769,None,2,0.5851682890206575,2003.128254491021,None,2003.128254491021,None,2003.128254491021,None,None,None,None,None,2003.89696860197,None,2003.89696860197,None,right,0.2084560199873522,2003.89696860197,None,None,None,2004.1476296259789,2005.8855444910005,,,,,,,,,,,,,118,001,18,1,2020_Feb_26_1258,Test,3.2.4,59.84194030677391,
Pictures/IA100_L20.bmp,Pictures/IA100_L20.bmp,Pictures/IA100.bmp,"

"Try to win as much money as you can, gamble!"",1,risk,,,,,5,0,5,0,0,4,4,8,,,,,,,,,,,,,,,,,,,,,,,,,,,,,,,2005.9022430870682,None,2007.9242496059742,2009.4449308600742,2009.4282342350343,None,2010.9656132450327,None,2,0.2952146999305114,2012.954215654987,None,2012.954215654987,None,2012.954215654987,None,None,None,None,None,2013.4221053330693,None,2013.4221053330693,None,right,0.7233131909742951,2013.4221053330693,None,None,None,2014.1908061340218,2015.427393171005,,,,,,,,,,,,,118,001,18,1,2020_Feb_26_1258,Test,3.2.4,59.84194030677391,
Pictures/IA75_L30.bmp,Pictures/IA75_L30.bmp,Pictures/IA75.bmp,"

"Hold back, stay with the safe choice."",0,safe,,,,,5,0,5,0,0,5,5,2,,,,,,,,,,,,,,,,,,,,,,,,,,,,,,,2015.444116736995,None,2017.4661242400762,2018.986804497079,2018.9700852930546,None,2020.5409152000211,None,1,0.28937036998104304,2022.4960613930598,None,2022.4960613930598,None,2022.4960613930598,None,2022.9305554339662,None,2022.9305554339662,2023.9331975399982,2025.0361170220422,None,2025.0361170220422,None,left,0.22129511192906648,2025.0361170220422,None,2025.3034710109932,2027.0413954639807,None,None,,,,,,,,,,,,,118,001,18,1,2020_Feb_26_1258,Test,3.2.4,59.84194030677391,
Pictures/IA75_G30.bmp,Pictures/IA75_G30.bmp,Pictures/IA75.bmp,"

"Be bold, gamble!"",1,risk,,,,,5,0,5,0,0,6,6,12,,,,,,,,,,,,,,,,,,,,,,,,,,,,,,,2027.058117793058,None,2029.08012771199,2030.6008057349827,2030.5840881830081,None,2032.1549077599775,None,1,0.6753753189695999,2034.1100612570299,None,2034.1100612570299,None,2034.1100612570299,None,2034.878757499042,None,2034.878757499042,2035.881400509039,2037.0177421380067,None,2037.0177421380067,None,left,0.47166955994907767,2037.0177421380067,None,2037.5357737289742,2039.0230407930212,None,None,,,,,,,,,,,,,118,001,18,1,2020_Feb_26_1258,Test,3.2.4,59.84194030677391,
Pictures/IA50_G10.bmp,Pictures/IA50_G10.bmp,Pictures/IA50.bmp,"

"Go with the safe option here!"",0,safe,,,,,5,0,5,0,0,7,7,17,,,,,,,,,,,,,,,,,,,,,,,,,,,,,,,2039.0397396080662,None,2041.0617483580718,2042.582434745971,2042.5657647390617,None,2044.1198224830441,None,2,0.23773358995094895,2046.0916964560747,None,2046.0916964560747,None,2046.0916964560747,None,None,None,None,None,2046.5261765590403,None,2046.5261765590403,None,left,0.2112297679996118,2046.5261765590403,None,2046.7768368520774,2048.5147549600806,None,None,,,,,,,,,,,,,118,001,18,1,2020_Feb_26_1258,Test,3.2.4,59.84194030677391,
Pictures/IA40_20_L95p.bmp,Pictures/IA40_20_L95p.bmp,Pictures/IA40.bmp,"

"Trust me, gamble!"",1,risk,,,,,5,0,5,0,0,8,8,15,,,,,,,,,,,,,,,,,,,,,,,,,,,,,,,2048.531479420024,None,2050.553495806991,2052.074171487009,2052.0574484029785,None,2053.5781425170135,None,2,0.5859892220469192,2055.583437860012,None,2055.583437860012,None,2055.583437860012,None,None,None,None,None,2056.3354139070725,None,2056.3354139070725,None,right,0.15400418895296752,2056.3354139070725,None,None,None,2056.535949585028,2058.3407121229684,,,,,,,,,,,,,118,001,18,1,2020_Feb_26_1258,Test,3.2.4,59.84194030677391,
Pictures/IA25_G5.bmp,Pictures/IA25_G5.bmp,Pictures/IA25.bmp,"

"Let's stay with the certain option."",0,safe,,,,,5,0,5,0,0,9,9,10,,,,,,,,,,,,,,,,,,,,,,,,,,,,,,,2058.3574078270467,None,2060.379414040013,2061.9000959449913,2061.8834145490546,None,2063.4374905640725,None,2,0.4400665150023997,2065.4093643219676,None,2065.4093643219676,None,2065.4093643219676,None,None,None,None,None,2066.027664615074,None,2066.027664615074,None,left,0.2297420189715922,2066.027664615074,None,2066.2950451610377,2068.032970033004,None,None,,,,,,,,,,,,,118,001,18,1,2020_Feb_26_1258,Test,3.2.4,59.84194030677391,
Pictures/IA50_L30.bmp,Pictures/IA50_L30.bmp,Pictures/IA50.bmp,"

"Take a leap, I think you should gamble."",1,risk,,,,,5,0,5,0,0,10,10,14,,,,,,,,,,,,,,,,,,,,,,,,,,,,,,,2068.0496660390636,None,2070.0716737150215,2071.592348475009,2071.5756657450693,None,2073.0963257200783,None,2,0.7477989520411938,2075.1016184070613,None,2075.1016184070613,None,2075.1016184070613,None,None,None,None,None,2076.020710663055,None,2076.020710663055,None,left,1.1486947198864073,2076.020710663055,None,2077.2071717650397,None,None,None,,,,,,,,,,,,,118,001,18,1,2020_Feb_26_1258,Test,3.2.4,59.84194030677391,
Pictures/IA50_L40.bmp,Pictures/IA50_L40.bmp,Pictures/IA50.bmp,"

"That gamble doesn't sound too good, play it safe."",0,safe,,,,,5,0,5,0,0,11,11,13,,,,,,,,,,,,,,,,,,,,,,,,,,,,,,,2078.0260138970334,None,2080.0480200069724,2081.551978521049,2081.5352811480407,None,2083.089385034982,None,1,0.2514829629799351,2085.077953160042,None,2085.077953160042,None,2085.077953160042,None,2085.478990345029,None,2085.478990345029,2086.481668657041,2087.5845888990443,None,2087.5845888990443,None,left,0.7288270599674433,2087.5845888990443,None,2088.3532680920325,2089.589875212987,None,None,,,,,,,,,,,,,118,001,18,1,2020_Feb_26_1258,Test,3.2.4,59.84194030677391,
Pictures/IA50_L20.bmp,Pictures/IA50_L20.bmp,Pictures/IA50.bmp,"

"Certainty is boring, take a risk!"",1,risk,,,,,5,0,5,0,0,12,12,19,,,,,,,,,,,,,,,,,,,,,,,,,,,,,,,2089.6065781259676,None,2091.628577647032,2093.1492575689917,2093.1325643589953,None,2094.636519998079,None,2,0.2628681679489091,2096.658553890069,None,2096.658553890069,None,2096.658553890069,None,None,None,None,None,2097.0930040800013,None,2097.0930040800013,None,right,0.21240263001527637,2097.0930040800013,None,None,None,2097.3436655750265,2099.0815841669682,,,,,,,,,,,,,118,001,18,1,2020_Feb_26_1258,Test,3.2.4,59.84194030677391,
Pictures/IA110_55_G95p.bmp,Pictures/IA110_55_G95p.bmp,Pictures/IA110.bmp,"

"Take a chance!"",1,risk,,,,,5,0,5,0,0,13,13,11,,,,,,,,,,,,,,,,,,,,,,,,,,,,,,,2099.0983065189794,None,2101.1203150670044,2102.6242883870145,2102.6075310250744,None,2104.144957522978,None,2,0.32318959606345743,2106.1502468910767,None,2106.1502468910767,None,2106.1502468910767,None,None,None,None,None,2106.634871457005,None,2106.634871457005,None,left,0.2145550709683448,2106.634871457005,None,2106.8855301350122,2108.623448660015,None,None,,,,,,,,,,,,,118,001,18,1,2020_Feb_26_1258,Test,3.2.4,59.84194030677391,
Pictures/IA110_55_L95p.bmp,Pictures/IA110_55_L95p.bmp,Pictures/IA110.bmp,"

"Trust me, gamble!"",1,risk,,,,,5,0,5,0,0,14,14,5,,,,,,,,,,,,,,,,,,,,,,,,,,,,,,,2108.640148019069,None,2110.662161677028,2112.182835320011,2112.166140384972,None,2113.6701031679986,None,2,0.49331451498437673,2115.692116932012,None,2115.692116932012,None,2115.692116932012,None,None,None,None,None,2116.343820704031,None,2116.343820704031,None,right,0.1695946790277958,2116.343820704031,None,None,None,2116.5610560150817,2118.3324120349716,,,,,,,,,,,,,118,001,18,1,2020_Feb_26_1258,Test,3.2.4,59.84194030677391,
Pictures/IA100_G80.bmp,Pictures/IA100_G80.bmp,Pictures/IA100.bmp,"

"Why not gamble?"",1,risk,,,,,5,0,5,0,0,15,15,4,,,,,,,,,,,,,,,,,,,,,,,,,,,,,,,2118.349109253031,None,2120.37111930002,2121.8917935739737,2121.8750990730477,None,2123.379055305035,None,2,0.4243530520470813,2125.401072254055,None,2125.401072254055,None,2125.401072254055,None,None,None,None,None,2125.9859381590504,None,2125.9859381590504,None,left,0.17547998391091824,2125.9859381590504,None,2126.2031744180713,2127.9745263420045,None,None,,,,,,,,,,,,,118,001,18,1,2020_Feb_26_1258,Test,3.2.4,59.84194030677391,
Pictures/IA25_G10.bmp,Pictures/IA25_G10.bmp,Pictures/IA25.bmp,"

"What's life without a little risk?"",1,risk,,,,,5,0,5,0,0,16,16,3,,,,,,,,,,,,,,,,,,,,,,,,,,,,,,,2127.9912301640725,None,2130.013231924968,2131.5339137850096,2131.5172177070053,None,2133.07130477007,None,2,0.23024798498954624,2135.043176249019,None,2135.043176249019,None,2135.043176249019,None,None,None,None,None,2135.4442463900195,None,2135.4442463900195,None,left,0.14916016696952283,2135.4442463900195,None,2135.6280636970187,2137.4328230289975,None,None,,,,,,,,,,,,,118,001,18,1,2020_Feb_26_1258,Test,3.2.4,59.84194030677391,
Pictures/IA80_40_L95p.bmp,Pictures/IA80_40_L95p.bmp,Pictures/IA80.bmp,"

"Let's stay with the certain option."",0,safe,,,,,5,0,5,0,0,17,17,9,,,,,,,,,,,,,,,,,,,,,,,,,,,,,,,2137.449523668969,None,2139.471528679016,2140.9922082850244,2140.975512298057,None,2142.479469159036,None,2,0.29994054010603577,2144.501486274996,None,2144.501486274996,None,2144.501486274996,None,None,None,None,None,2144.9693754500477,None,2144.9693754500477,None,right,0.03204654902219772,2144.9693754500477,None,None,None,2145.0362303609727,2146.974674824043,,,,,,,,,,,,,118,001,18,1,2020_Feb_26_1258,Test,3.2.4,59.84194030677391,
Pictures/IA25_L20.bmp,Pictures/IA25_L20.bmp,Pictures/IA25.bmp,"

"Don't be tempted to gamble."",0,safe,,,,,5,0,5,0,0,18,18,18,,,,,,,,,,,,,,,,,,,,,,,,,,,,,,,2146.991380466032,None,2149.0133818869945,2150.5340556390584,2150.5173652280355,None,2152.07145464106,None,1,0.3660922159906477,2154.0433244269807,None,2154.0433244269807,None,2154.0433244269807,None,2154.511235864018,None,2154.511235864018,2155.513877251069,2156.6167941549793,None,2156.6167941549793,None,left,0.38462055602576584,2156.6167941549793,None,2157.0512613729807,2158.6220813180553,None,None,,,,,,,,,,,,,118,001,18,1,2020_Feb_26_1258,Test,3.2.4,59.84194030677391,
Pictures/IA50_G40.bmp,Pictures/IA50_G40.bmp,Pictures/IA50.bmp,"

"It would probably be best to play it safe."",0,safe,,,,,5,0,5,0,0,19,19,16,,,,,,,,,,,,,,,,,,,,,,,,,,,,,,,2158.638779488043,None,2160.6607980850386,2162.1814638139913,2162.1647713610437,None,2163.7188555770554,None,1,0.9426991080399603,2165.6907283390174,None,2165.6907283390174,None,2165.6907283390174,None,2166.7769251989666,None,2166.7769251989666,2167.779572344036,2168.899195856997,None,2168.899195856997,None,left,0.45422095304820687,2168.899195856997,None,2169.4005282260478,2170.887775112991,None,None,,,,,,,,,,,,,118,001,18,1,2020_Feb_26_1258,Test,3.2.4,59.84194030677391,
,,,,,,,,,,5,0,5,0,,,,,,,,,,,,,,,,,,,,,,,,,,,,,,,,,,,,,,,,,,,,,,,,,,,,,,,,,,,,,,,,,,,,,,,,,2171.0549027930247,None,return,3.986499732010998,2171.0549027930247,None,118,001,18,1,2020_Feb_26_1258,Test,3.2.4,59.84194030677391,
Pictures/IA100_G80.bmp,Pictures/IA100_G80.bmp,Pictures/IA100.bmp,"

"Why not gamble?"",1,risk,,,,,6,0,6,0,0,0,0,6,,,,,,,,,,,,,2175.1991697130725,None,2175.1991697130725,None,2175.1991697130725,None,left,6.202267606975511,2175.1991697130725,None,2175.1991697130725,None,2175.1991697130725,None,return,8.098117245011963,2175.1991697130725,None,2183.354021535022,None,2185.359320273972,2186.8799791130004,2186.8632804229856,None,2188.3839585140813,None,1,0.7729030379559845,2190.372527605039,None,2190.372527605039,None,2190.372527605039,None,2191.2581991320476,None,2191.2581991320476,2192.2608405720675,2193.36375526106,None,2193.36375526106,None,left,1.5496583500644192,2193.36375526106,None,2194.95127372304,None,None,None,,,,,,,,,,,,,118,001,18,1,2020_Feb_26_1258,Test,3.2.4,59.84194030677391,
Pictures/IA75_L60.bmp,Pictures/IA75_L60.bmp,Pictures/IA75.bmp,"

"Why not take the gamble?"",1,risk,,,,,6,0,6,0,0,1,1,0,,,,,,,,,,,,,,,,,,,,,,,,,,,,,,,2195.369058776996,None,2197.391060304013,2198.9117375280475,2198.895017563016,None,2200.4658397909952,None,1,0.2684391119983047,2202.4209882100113,None,2202.4209882100113,None,2202.4209882100113,None,2202.805337099009,None,2202.805337099009,2203.8079766320297,2204.9443123589735,None,2204.9443123589735,None,None,,2204.9443123589735,None,None,None,None,None,,,,,,,,,,,,,118,001,18,1,2020_Feb_26_1258,Test,3.2.4,59.84194030677391,
Pictures/IA20_10_L95p.bmp,Pictures/IA20_10_L95p.bmp,Pictures/IA20.bmp,"

"Don't be tempted to gamble."",0,safe,,,,,6,0,6,0,0,2,2,3,,,,,,,,,,,,,,,,,,,,,,,,,,,,,,,2206.9496012890013,None,2208.988316679024,2210.5089945730288,2210.4923046140466,None,2211.996265809983,None,2,0.4158719729166478,2214.001559466007,None,2214.001559466007,None,2214.001559466007,None,None,None,None,None,2214.56969079806,None,2214.56969079806,None,right,0.11171670199837536,2214.56969079806,None,None,None,2214.7201218269765,2216.558288632077,,,,,,,,,,,,,118,001,18,1,2020_Feb_26_1258,Test,3.2.4,59.84194030677391,
Pictures/IA75_L45.bmp,Pictures/IA75_L45.bmp,Pictures/IA75.bmp,"

"Don't gamble for this one, play it safe."",0,safe,,,,,6,0,6,0,0,3,3,2,,,,,,,,,,,,,,,,,,,,,,,,,,,,,,,2216.575011188048,None,2218.5970208400395,2220.1176955499686,2220.10094816098,None,2221.6550912270322,None,2,0.7104697909671813,2223.6269608479924,None,2223.6269608479924,None,2223.6269608479924,None,None,None,None,None,2224.5126302490244,None,2224.5126302490244,None,left,0.6487787449732423,2224.5126302490244,None,2225.1977663299767,2226.5011964840814,None,None,,,,,,,,,,,,,118,001,18,1,2020_Feb_26_1258,Test,3.2.4,59.84194030677391,
Pictures/IA50_L10.bmp,Pictures/IA50_L10.bmp,Pictures/IA50.bmp,"

"Play it safe, don’t gamble!"",0,safe,,,,,6,0,6,0,0,4,4,17,,,,,,,,,,,,,,,,,,,,,,,,,,,,,,,2226.517915786011,None,2228.53991848405,2230.0605952229816,2230.043879233999,None,2231.614699030062,None,2,0.2635684459237382,2233.569850258995,None,2233.569850258995,None,2233.569850258995,None,None,None,None,None,2233.987629403011,None,2233.987629403011,None,right,0.24578583205584437,2233.987629403011,None,None,None,2234.271706194966,2235.9761918759905,,,,,,,,,,,,,118,001,18,1,2020_Feb_26_1258,Test,3.2.4,59.84194030677391,
Pictures/IA25_L5.bmp,Pictures/IA25_L5.bmp,Pictures/IA25.bmp,"

"It would be smarter to choose the safe option."",0,safe,,,,,6,0,6,0,0,5,5,19,,,,,,,,,,,,,,,,,,,,,,,,,,,,,,,2235.992915511015,None,2238.014920889982,2239.5355975959683,2239.518880788004,None,2241.0562786810333,None,2,1.132570181041956,2243.0448544870596,None,2243.0448544870596,None,2243.0448544870596,None,None,None,None,None,2244.348299280973,None,2244.348299280973,None,right,0.28511744493152946,2244.348299280973,None,None,None,2244.682513431064,2246.353573799017,,,,,,,,,,,,,118,001,18,1,2020_Feb_26_1258,Test,3.2.4,59.84194030677391,
Pictures/IA25_G15.bmp,Pictures/IA25_G15.bmp,Pictures/IA25.bmp,"

"I think you should take a gamble."",1,risk,,,,,6,0,6,0,0,6,6,5,,,,,,,,,,,,,,,,,,,,,,,,,,,,,,,2246.3702951939777,None,2248.3923029290745,2249.9129783590324,2249.896258405992,None,2251.467077892972,None,2,0.8031985629349947,2253.4222275089705,None,2253.4222275089705,None,2253.4222275089705,None,None,None,None,None,2254.4081645980477,None,2254.4081645980477,None,left,0.1932492390042171,2254.4081645980477,None,2254.6421223280486,2256.41344723606,None,None,,,,,,,,,,,,,118,001,18,1,2020_Feb_26_1258,Test,3.2.4,59.84194030677391,
Pictures/IA40_20_G95p.bmp,Pictures/IA40_20_G95p.bmp,Pictures/IA40.bmp,"

"Hold back, stay with the safe choice."",0,safe,,,,,6,0,6,0,0,7,7,10,,,,,,,,,,,,,,,,,,,,,,,,,,,,,,,2256.4301735140616,None,2258.452176508028,2259.97285149002,2259.9561342509696,None,2261.4768235810334,None,1,0.4473011229420081,2263.4821159000276,None,2263.4821159000276,None,2263.4821159000276,None,2264.066989497049,None,2264.066989497049,2265.0696338220732,2266.172547883005,None,2266.172547883005,None,left,0.14086518401745707,2266.172547883005,None,2266.3563630910357,2268.1611243509687,None,None,,,,,,,,,,,,,118,001,18,1,2020_Feb_26_1258,Test,3.2.4,59.84194030677391,
Pictures/IA75_G60.bmp,Pictures/IA75_G60.bmp,Pictures/IA75.bmp,"

"Make it exciting, take a chance!"",1,risk,,,,,6,0,6,0,0,8,8,4,,,,,,,,,,,,,,,,,,,,,,,,,,,,,,,2268.1778235019883,None,2270.1998253640486,2271.7205040110275,2271.703806021018,None,2273.274607892032,None,2,0.7236496640834957,2275.2297756189946,None,2275.2297756189946,None,2275.2297756189946,None,None,None,None,None,2276.132144949981,None,2276.132144949981,None,left,0.7892722160322592,2276.132144949981,None,2276.967690935009,2278.1374444380635,None,None,,,,,,,,,,,,,118,001,18,1,2020_Feb_26_1258,Test,3.2.4,59.84194030677391,
Pictures/IA100_G40.bmp,Pictures/IA100_G40.bmp,Pictures/IA100.bmp,"

"Try your luck and gamble!"",1,risk,,,,,6,0,6,0,0,9,9,14,,,,,,,,,,,,,,,,,,,,,,,,,,,,,,,2278.154155750992,None,2280.176157706068,2281.696833312046,2281.680119941011,None,2283.234224596061,None,2,0.8673197739990428,2285.20609632798,None,2285.20609632798,None,2285.20609632798,None,None,None,None,None,2286.225437376066,None,2286.225437376066,None,left,0.5279764860169962,2286.225437376066,None,2286.793647604063,2288.2307274630293,None,None,,,,,,,,,,,,,118,001,18,1,2020_Feb_26_1258,Test,3.2.4,59.84194030677391,
Pictures/IA80_40_L95p.bmp,Pictures/IA80_40_L95p.bmp,Pictures/IA80.bmp,"

"Let's stay with the certain option."",0,safe,,,,,6,0,6,0,0,10,10,12,,,,,,,,,,,,,,,,,,,,,,,,,,,,,,,2288.2474498930387,None,2290.26945209899,2291.7901564330095,2291.773411435075,None,2293.2941040860023,None,2,0.32604408997576684,2295.299387022038,None,2295.299387022038,None,2295.299387022038,None,None,None,None,None,2295.800714084995,None,2295.800714084995,None,right,0.192691660951823,2295.800714084995,None,None,None,2296.034660515026,2297.8059854860185,,,,,,,,,,,,,118,001,18,1,2020_Feb_26_1258,Test,3.2.4,59.84194030677391,
Pictures/IA100_L40.bmp,Pictures/IA100_L40.bmp,Pictures/IA100.bmp,"

"Think of the payoff, gamble!"",1,risk,,,,,6,0,6,0,0,11,11,18,,,,,,,,,,,,,,,,,,,,,,,,,,,,,,,2297.822710999986,None,2299.844714291976,2301.365390716004,2301.3486707180273,None,2302.886069399072,None,2,0.6147849729750305,2304.874639955,None,2304.874639955,None,2304.874639955,None,None,None,None,None,2305.6600532010198,None,2305.6600532010198,None,right,0.20535540394484997,2305.6600532010198,None,None,None,2305.91070122004,2307.648620199063,,,,,,,,,,,,,118,001,18,1,2020_Feb_26_1258,Test,3.2.4,59.84194030677391,
Pictures/IA25_G10.bmp,Pictures/IA25_G10.bmp,Pictures/IA25.bmp,"

"What's life without a little risk?"",1,risk,,,,,6,0,6,0,0,12,12,15,,,,,,,,,,,,,,,,,,,,,,,,,,,,,,,2307.66535267001,None,2309.6873439810006,2311.2080227810657,2311.191303635016,None,2312.6952831080416,None,2,0.6441514239413664,2314.7172727599973,None,2314.7172727599973,None,2314.7172727599973,None,None,None,None,None,2315.536098874989,None,2315.536098874989,None,left,0.27331514505203813,2315.536098874989,None,2315.8535992740653,2317.524673340027,None,None,,,,,,,,,,,,,118,001,18,1,2020_Feb_26_1258,Test,3.2.4,59.84194030677391,
Pictures/IA50_L40.bmp,Pictures/IA50_L40.bmp,Pictures/IA50.bmp,"

"That gamble doesn't sound too good, play it safe."",0,safe,,,,,6,0,6,0,0,13,13,9,,,,,,,,,,,,,,,,,,,,,,,,,,,,,,,2317.541397104971,None,2319.563398221042,2321.084077941021,2321.067356599029,None,2322.588046377059,None,2,0.48809055204037577,2324.5933367500547,None,2324.5933367500547,None,2324.5933367500547,None,None,None,None,None,2325.2784636310535,None,2325.2784636310535,None,right,0.21095116797368973,2325.2784636310535,None,None,None,2325.5291222980013,2327.2670410700375,,,,,,,,,,,,,118,001,18,1,2020_Feb_26_1258,Test,3.2.4,59.84194030677391,
Pictures/IA25_G5.bmp,Pictures/IA25_G5.bmp,Pictures/IA25.bmp,"

"Let's stay with the certain option."",0,safe,,,,,6,0,6,0,0,14,14,7,,,,,,,,,,,,,,,,,,,,,,,,,,,,,,,2327.283765073982,None,2329.3057658700272,2330.8264410640113,2330.8097242480144,None,2332.313701853971,None,1,0.24973340902943164,2334.3356903729727,None,2334.3356903729727,None,2334.3356903729727,None,2334.720036774059,None,2334.720036774059,2335.722679784056,2336.8255960630486,None,2336.8255960630486,None,left,0.11981962691061199,2336.8255960630486,None,2336.9927080130437,2338.830878547975,None,None,,,,,,,,,,,,,118,001,18,1,2020_Feb_26_1258,Test,3.2.4,59.84194030677391,
Pictures/IA75_L30.bmp,Pictures/IA75_L30.bmp,Pictures/IA75.bmp,"

"Hold back, stay with the safe choice."",0,safe,,,,,6,0,6,0,0,15,15,13,,,,,,,,,,,,,,,,,,,,,,,,,,,,,,,2338.847600692068,None,2340.869607596076,2342.3902853400214,2342.373561781016,None,2343.894252458005,None,2,0.4858745929086581,2345.8995424780296,None,2345.8995424780296,None,2345.8995424780296,None,None,None,None,None,2346.5679707450327,None,2346.5679707450327,None,right,0.08145611104555428,2346.5679707450327,None,None,None,2346.6849417090416,2348.556532102055,,,,,,,,,,,,,118,001,18,1,2020_Feb_26_1258,Test,3.2.4,59.84194030677391,
Pictures/IA40_20_L95p.bmp,Pictures/IA40_20_L95p.bmp,Pictures/IA40.bmp,"

"Trust me, gamble!"",1,risk,,,,,6,0,6,0,0,16,16,8,,,,,,,,,,,,,,,,,,,,,,,,,,,,,,,2348.5732603410725,None,2350.595255858032,2352.1159349670634,2352.099213934969,None,2353.619904990075,None,1,0.22424725908786058,2355.625193612068,None,2355.625193612068,None,2355.625193612068,None,2355.9426506970776,None,2355.9426506970776,2356.9453269530786,2358.0482408270473,None,2358.0482408270473,None,right,0.2731823989888653,2358.0482408270473,None,None,None,2358.3657417420764,2360.036814844003,,,,,,,,,,,,,118,001,18,1,2020_Feb_26_1258,Test,3.2.4,59.84194030677391,
Pictures/IA75_G45.bmp,Pictures/IA75_G45.bmp,Pictures/IA75.bmp,"

"Don't gamble for this one."",0,safe,,,,,6,0,6,0,0,17,17,16,,,,,,,,,,,,,,,,,,,,,,,,,,,,,,,2360.0535415470367,None,2362.0755444570677,2363.596219867002,2363.579498638981,None,2365.1336099359905,None,2,0.5039308989653364,2367.1054897980066,None,2367.1054897980066,None,2367.1054897980066,None,None,None,None,None,2367.7906168830814,None,2367.7906168830814,None,left,0.41079296101816,2367.7906168830814,None,2368.2418035350274,2369.7791954639833,None,None,,,,,,,,,,,,,118,001,18,1,2020_Feb_26_1258,Test,3.2.4,59.84194030677391,
Pictures/IA100_L80.bmp,Pictures/IA100_L80.bmp,Pictures/IA100.bmp,"

"Go all in!"",1,risk,,,,,6,0,6,0,0,18,18,1,,,,,,,,,,,,,,,,,,,,,,,,,,,,,,,2369.7958911240567,None,2371.81789277005,2373.321869141073,2373.305152071989,None,2374.8926695970586,None,2,0.5535892240004614,2376.8478413090343,None,2376.8478413090343,None,2376.8478413090343,None,None,None,None,None,2377.5831134989858,None,2377.5831134989858,None,left,0.786304326960817,2377.5831134989858,None,2378.418635686976,2379.588397341082,None,None,,,,,,,,,,,,,118,001,18,1,2020_Feb_26_1258,Test,3.2.4,59.84194030677391,
Pictures/IA75_G15.bmp,Pictures/IA75_G15.bmp,Pictures/IA75.bmp,"

"Take a chance!"",1,risk,,,,,6,0,6,0,0,19,19,11,,,,,,,,,,,,,,,,,,,,,,,,,,,,,,,2379.6050961699802,None,2381.6271018810803,2383.147775926045,2383.131084709079,None,2384.7018749150448,None,2,0.9203731169691309,2386.657059938996,None,2386.657059938996,None,2386.657059938996,None,None,None,None,None,2387.743241306045,None,2387.743241306045,None,left,0.04217185894958675,2387.743241306045,None,2387.8267854449805,2389.731820233981,None,None,,,,,,,,,,,,,118,001,18,1,2020_Feb_26_1258,Test,3.2.4,59.84194030677391,
,,,,,,,,,,6,0,6,0,,,,,,,,,,,,,,,,,,,,,,,,,,,,,,,,,,,,,,,,,,,,,,,,,,,,,,,,,,,,,,,,,,,,,,,,,2389.898922709981,None,return,5.502481324947439,2389.898922709981,None,118,001,18,1,2020_Feb_26_1258,Test,3.2.4,59.84194030677391,
Pictures/IA40_20_G95p.bmp,Pictures/IA40_20_G95p.bmp,Pictures/IA40.bmp,"

"Hold back, stay with the safe choice."",0,safe,,,,,7,0,7,0,0,0,0,6,,,,,,,,,,,,,2395.563871834078,None,2395.563871834078,None,2395.563871834078,None,left,4.021540821064264,2395.563871834078,None,2395.563871834078,None,2395.563871834078,None,return,5.453426772961393,2395.563871834078,None,2401.078415859025,None,2403.083695554058,2404.6043698959984,2404.5876749460585,None,2406.0749310749816,None,2,0.5845096400007606,2408.096917146002,None,2408.096917146002,None,2408.096917146002,None,None,None,None,None,2408.882323667989,None,2408.882323667989,None,left,0.295085818041116,2408.882323667989,None,2409.216545738047,2410.8709099220578,None,None,,,,,,,,,,,,,118,001,18,1,2020_Feb_26_1258,Test,3.2.4,59.84194030677391,
Pictures/IA25_L5.bmp,Pictures/IA25_L5.bmp,Pictures/IA25.bmp,"

"It would be smarter to choose the safe option."",0,safe,,,,,7,0,7,0,0,1,1,4,,,,,,,,,,,,,,,,,,,,,,,,,,,,,,,2410.8876052029664,None,2412.9096107240766,2414.4302848600782,2414.4135938719846,None,2415.9175460509723,None,2,0.8458525040186942,2417.939571466064,None,2417.939571466064,None,2417.939571466064,None,None,None,None,None,2418.9589147040388,None,2418.9589147040388,None,right,0.06649270094931126,2418.9589147040388,None,None,None,2419.059162109974,2420.9641852120403,,,,,,,,,,,,,118,001,18,1,2020_Feb_26_1258,Test,3.2.4,59.84194030677391,
Pictures/IA100_G60.bmp,Pictures/IA100_G60.bmp,Pictures/IA100.bmp,"

"Be cautious, don't gamble for this one."",0,safe,,,,,7,0,7,0,0,2,2,5,,,,,,,,,,,,,,,,,,,,,,,,,,,,,,,2420.980908293044,None,2423.002911700052,2424.52358714398,2424.5068666110747,None,2426.0776870379923,None,2,0.6645939270965755,2428.032832351979,None,2428.032832351979,None,2428.032832351979,None,None,None,None,None,2428.86837987497,None,2428.86837987497,None,left,0.20503839303273708,2428.86837987497,None,2429.1190429630224,2430.8569527390646,None,None,,,,,,,,,,,,,118,001,18,1,2020_Feb_26_1258,Test,3.2.4,59.84194030677391,
Pictures/IA75_G15.bmp,Pictures/IA75_G15.bmp,Pictures/IA75.bmp,"

"Take a chance!"",1,risk,,,,,7,0,7,0,0,3,3,17,,,,,,,,,,,,,,,,,,,,,,,,,,,,,,,2430.873668289045,None,2432.8956701610005,2434.416349251056,2434.3996277439874,None,2435.9036035090685,None,2,0.2518282230012119,2437.925601048977,None,2437.925601048977,None,2437.925601048977,None,None,None,None,None,2438.343373873038,None,2438.343373873038,None,left,0.17804258491378278,2438.343373873038,None,2438.5606101050507,2440.3319362819893,None,None,,,,,,,,,,,,,118,001,18,1,2020_Feb_26_1258,Test,3.2.4,59.84194030677391,
Pictures/IA25_L15.bmp,Pictures/IA25_L15.bmp,Pictures/IA25.bmp,"

"There's not much on the line here, gamble!"",1,risk,,,,,7,0,7,0,0,4,4,9,,,,,,,,,,,,,,,,,,,,,,,,,,,,,,,2440.3486569160596,None,2442.3706592910457,2443.891336984001,2443.8746156829875,None,2445.4454349490115,None,2,0.6088449039962143,2447.4005813139956,None,2447.4005813139956,None,2447.4005813139956,None,None,None,None,None,2448.2194085320225,None,2448.2194085320225,None,left,0.19000442198012024,2448.2194085320225,None,2448.4533648110228,2450.2246961289784,None,None,,,,,,,,,,,,,118,001,18,1,2020_Feb_26_1258,Test,3.2.4,59.84194030677391,
Pictures/IA75_L60.bmp,Pictures/IA75_L60.bmp,Pictures/IA75.bmp,"

"Why not take the gamble?"",1,risk,,,,,7,0,7,0,0,5,5,15,,,,,,,,,,,,,,,,,,,,,,,,,,,,,,,2450.241415016004,None,2452.2634147200733,2453.7840912670363,2453.7673727109795,None,2455.304771321011,None,1,1.2040846300078556,2457.2933436110616,None,2457.2933436110616,None,2457.2933436110616,None,2458.6134907000232,None,2458.6134907000232,2459.6161284560803,2460.7190393360797,None,2460.7190393360797,None,left,0.24237389501649886,2460.7190393360797,None,2461.0031185180414,2462.707627795986,None,None,,,,,,,,,,,,,118,001,18,1,2020_Feb_26_1258,Test,3.2.4,59.84194030677391,
Pictures/IA80_40_G95p.bmp,Pictures/IA80_40_G95p.bmp,Pictures/IA80.bmp,"

"Think of the payoff, gamble!"",1,risk,,,,,7,0,7,0,0,6,6,11,,,,,,,,,,,,,,,,,,,,,,,,,,,,,,,2462.7243233619956,None,2464.746323159081,2466.267001140979,2466.2503091300605,None,2467.787679155008,None,2,2.513156050001271,2469.7762720390456,None,2469.7762720390456,None,2469.7762720390456,None,None,None,None,None,2472.483408218017,None,2472.483408218017,None,left,0.2860106569714844,2472.483408218017,None,2472.817610551021,2474.488683348056,None,None,,,,,,,,,,,,,118,001,18,1,2020_Feb_26_1258,Test,3.2.4,59.84194030677391,
Pictures/IA75_L45.bmp,Pictures/IA75_L45.bmp,Pictures/IA75.bmp,"

"Don't gamble for this one, play it safe."",0,safe,,,,,7,0,7,0,0,7,7,19,,,,,,,,,,,,,,,,,,,,,,,,,,,,,,,2474.5054042490665,None,2476.52740626398,2478.0313587220153,2478.014665768016,None,2479.535340926028,None,2,0.22009372408501804,2481.557330135023,None,2481.557330135023,None,2481.557330135023,None,None,None,None,None,2481.975109984982,None,2481.975109984982,None,right,0.23430321807973087,2481.975109984982,None,None,None,2482.259193958016,2483.963668170036,,,,,,,,,,,,,118,001,18,1,2020_Feb_26_1258,Test,3.2.4,59.84194030677391,
Pictures/IA50_L20.bmp,Pictures/IA50_L20.bmp,Pictures/IA50.bmp,"

"Certainty is boring, take a risk!"",1,risk,,,,,7,0,7,0,0,8,8,3,,,,,,,,,,,,,,,,,,,,,,,,,,,,,,,2483.9803932079813,None,2486.0023931449978,2487.523067463073,2487.506350165,None,2489.060427122982,None,2,0.26510683889500797,2491.0323282399913,None,2491.0323282399913,None,2491.0323282399913,None,None,None,None,None,2491.4667969830334,None,2491.4667969830334,None,right,0.24661519296932966,2491.4667969830334,None,None,None,2491.7508723300416,2493.4720792430453,,,,,,,,,,,,,118,001,18,1,2020_Feb_26_1258,Test,3.2.4,59.84194030677391,
Pictures/IA100_L60.bmp,Pictures/IA100_L60.bmp,Pictures/IA100.bmp,"

