Choice	Choice2	Amount	AdviceVar1	GambleAdviceNum	GambleAdviceType	practice.thisRepN	practice.thisTrialN	practice.thisN	practice.thisIndex	trials_2.thisRepN	trials_2.thisTrialN	trials_2.thisN	trials_2.thisIndex	trials.thisRepN	trials.thisTrialN	trials.thisN	trials.thisIndex	text.started	text.stopped	key_resp_4.keys	key_resp_4.rt	key_resp_4.started	key_resp_4.stopped	instructions.started	instructions.stopped	space.keys	space.rt	space.started	space.stopped	chooseInst.started	chooseInst.stopped	Ad1.started	Ad1.stopped	Ad2.started	Ad2.stopped	key_resp_3.keys	key_resp_3.rt	key_resp_3.started	key_resp_3.stopped	Ad1pic.started	Ad1pic.stopped	Ad2pic.started	Ad2pic.stopped	enter.keys	enter.rt	enter.started	enter.stopped	iSi.started	iSi.stopped	receiveMoneyPicture.started	receiveMoneyPicture.stopped	ISI2.started	ISI2.stopped	ChoicePic.started	ChoicePic.stopped	response.keys	response.rt	response.started	response.stopped	yesNo.started	yesNo.stopped	ask.started	ask.stopped	getAdv.started	getAdv.stopped	textForCode.started	textForCode.stopped	blank.started	blank.stopped	ChoicePic2.started	ChoicePic2.stopped	resp.keys	resp.rt	resp.started	resp.stopped	checkL1.started	checkL1.stopped	checkR1.started	checkR1.stopped	EndPrac.started	EndPrac.stopped	key_resp.keys	key_resp.rt	key_resp.started	key_resp.stopped	endText.started	endText.stopped	key_resp_2.keys	key_resp_2.rt	key_resp_2.started	key_resp_2.stopped	participant	session	age	gender (0=male	 1 = female	 2 = other)	date	expName	psychopyVersion	frameRate
																		575.475704	None	space	763.4291961	575.475704	None																																																																					119	1	19	1	2020_Mar_04_1159	Test	3.2.4	59.8432442		
																								1338.937274	None	space	2.751616173	1338.937274	None																																																															119	1	19	1	2020_Mar_04_1159	Test	3.2.4	59.8432442		
																														1342.413075	None	1342.413075	None	1342.413075	None	left	4.4678261	1342.413075	None																																																					119	1	19	1	2020_Mar_04_1159	Test	3.2.4	59.8432442		
																																								1342.413075	None	1342.413075	None	return	8.611681304	1342.413075	None																																													119	1	19	1	2020_Mar_04_1159	Test	3.2.4	59.8432442		
Pictures/IA50_G10.bmp	Pictures/IA50_G10.bmp	Pictures/IA50.bmp	"Go with the safe option here!"""""	0	safe	0	0	0	0																																							1351.152761	None	1353.124627	1354.628602	1354.61188	None	1356.149255	None	1	1.228202653	1358.204708	None	1358.204708	None	1358.204708	None	1359.558247	None	1359.558247	1360.560878	1361.713925	None	1361.713925	None	left	1.006969864	1361.713925	None	1362.766696	None	None	None													119	1	19	1	2020_Mar_04_1159	Test	3.2.4	59.8432442		
Pictures/IA100_G20.bmp	Pictures/IA100_G20.bmp	Pictures/IA100.bmp	"Go ahead and gamble!"""""	1	risk	0	1	1	4																																							1363.719191	None	1365.757897	1367.261869	1367.245155	None	1368.832677	None	1	1.149801281	1370.771123	None	1370.771123	None	1370.771123	None	1372.007714	None	1372.007714	1373.010387	1374.146682	None	1374.146682	None	right	0.470216123	1374.146682	None	None	None	1374.664755	1376.151961													119	1	19	1	2020_Mar_04_1159	Test	3.2.4	59.8432442		
Pictures/IA50_G40.bmp	Pictures/IA50_G40.bmp	Pictures/IA50.bmp	"It would probably be best to play it safe."""""	0	safe	0	2	2	3																																							1376.16866	None	1378.190691	1379.711328	1379.694632	None	1381.265429	None	1	0.324318286	1383.220592	None	1383.220592	None	1383.220592	None	1383.688475	None	1383.688475	1384.691144	1386.044706	None	1386.044706	None	left	0.620184174	1386.044706	None	1386.713149	1388.037089	None	None													119	1	19	1	2020_Mar_04_1159	Test	3.2.4	59.8432442		
Pictures/IA50_G20.bmp	Pictures/IA50_G20.bmp	Pictures/IA50.bmp	"Let's venture and take a risk!"""""	1	risk	0	3	3	1																																							1388.066716	None	1390.088708	1391.594308	1391.57654	None	1393.497681	None	1	0.554230802	1395.118656	None	1395.118656	None	1395.118656	None	1395.87088	None	1395.87088	1396.873244	1398.053847	None	1398.053847	None	right	0.379077042	1398.053847	None	None	None	1398.480489	1400.065001													119	1	19	1	2020_Mar_04_1159	Test	3.2.4	59.8432442		
Pictures/IA100_G40.bmp	Pictures/IA100_G40.bmp	Pictures/IA100.bmp	"Try your luck and gamble!"""""	1	risk	0	4	4	5																																							1400.081688	None	1402.137084	1403.641095	1403.62432	None	1405.211885	None	1	0.931362217	1407.133547	None	1407.133547	None	1407.133547	None	1408.16968	None	1408.16968	1409.172351	1410.291946	None	1410.291946	None	right	0.668943245	1410.291946	None	None	None	1411.010489	1412.280488													119	1	19	1	2020_Mar_04_1159	Test	3.2.4	59.8432442		
Pictures/IA50_G30.bmp	Pictures/IA50_G30.bmp	Pictures/IA50.bmp	"I think you should gamble."""""	1	risk	0	5	5	2																																							1412.297204	None	1414.335934	1415.839876	1415.823168	None	1417.377266	None	2	1.291796124	1419.34912	None	1419.34912	None	1419.34912	None	None	None	None	None	1420.869811	None	1420.869811	None	left	0.947087782	1420.869811	None	1421.855708	1422.875072	None	None													119	1	19	1	2020_Mar_04_1159	Test	3.2.4	59.8432442		
																																																																																1422.89177	None	space	14.00512523	1422.89177	None							119	1	19	1	2020_Mar_04_1159	Test	3.2.4	59.8432442		
Pictures/IA50_G40.bmp	Pictures/IA50_G40.bmp	Pictures/IA50.bmp	"It would probably be best to play it safe."""""	0	safe					0	0	0	0	0	0	0	6													1437.095865	None	1437.095865	None	1437.095865	None	left	2.473023109	1437.095865	None	1437.095865	None	1437.095865	None	return	9.392912166	1437.095865	None	1446.570827	None	1448.592821	1450.096791	1450.080075	None	1451.584046	None	2	1.764305584	1453.572611	None	1453.572611	None	1453.572611	None	None	None	None	None	1455.527771	None	1455.527771	None	None		1455.527771	None	None	None	None	None													119	1	19	1	2020_Mar_04_1159	Test	3.2.4	59.8432442		
Pictures/IA50_G10.bmp	Pictures/IA50_G10.bmp	Pictures/IA50.bmp	"Go with the safe option here!"""""	0	safe					0	0	0	0	0	1	1	13																															1457.533051	None	1459.555047	1461.075724	1461.059001	None	1462.596396	None	2	1.063941649	1464.584957	None	1464.584957	None	1464.584957	None	None	None	None	None	1465.838271	None	1465.838271	None	None		1465.838271	None	None	None	None	None													119	1	19	1	2020_Mar_04_1159	Test	3.2.4	59.8432442		
Pictures/IA25_G10.bmp	Pictures/IA25_G10.bmp	Pictures/IA25.bmp	"What's life without a little risk?"""""	1	risk					0	0	0	0	0	2	2	18																															1467.843554	None	1469.882261	1471.386211	1471.369513	None	1472.923596	None	2	0.065440692	1474.895463	None	1474.895463	None	1474.895463	None	None	None	None	None	1475.129422	None	1475.129422	None	left	1.543476774	1475.129422	None	1476.716933	None	None	None													119	1	19	1	2020_Mar_04_1159	Test	3.2.4	59.8432442		
Pictures/IA110_55_G95p.bmp	Pictures/IA110_55_G95p.bmp	Pictures/IA110.bmp	"Take a chance!"""""	1	risk					0	0	0	0	0	3	3	2																															1477.134689	None	1479.173395	1480.694068	1480.677371	None	1482.23147	None	2	1.038316437	1484.186607	None	1484.186607	None	1484.186607	None	None	None	None	None	1485.389774	None	1485.389774	None	right	1.171123863	1485.389774	None	None	None	1486.609655	None													119	1	19	1	2020_Mar_04_1159	Test	3.2.4	59.8432442		
Pictures/IA100_G20.bmp	Pictures/IA100_G20.bmp	Pictures/IA100.bmp	"Go ahead and gamble!"""""	1	risk					0	0	0	0	0	4	4	16																															1487.395057	None	1489.433763	1490.937737	1490.921016	None	1492.475122	None	2	0.265916049	1494.446989	None	1494.446989	None	1494.446989	None	None	None	None	None	1494.864739	None	1494.864739	None	None		1494.864739	None	None	None	None	None													119	1	19	1	2020_Mar_04_1159	Test	3.2.4	59.8432442		
Pictures/IA25_L20.bmp	Pictures/IA25_L20.bmp	Pictures/IA25.bmp	"Don't be tempted to gamble."""""	0	safe					0	0	0	0	0	5	5	8																															1496.870022	None	1498.892018	1500.412689	1500.395993	None	1501.966786	None	2	0.98295586	1503.921949	None	1503.921949	None	1503.921949	None	None	None	None	None	1505.074989	None	1505.074989	None	left	0.717912221	1505.074989	None	1505.826966	1507.063546	None	None													119	1	19	1	2020_Mar_04_1159	Test	3.2.4	59.8432442		
Pictures/IA100_L60.bmp	Pictures/IA100_L60.bmp	Pictures/IA100.bmp	"You'd have a lot to lose"	0	safe					0	0	0	0	0	6	6	15																															1507.080267	None	1509.102264	1510.622935	1510.606218	None	1512.177034	None	None		1514.132175	None	1514.132175	None	1514.132175	None	None	None	None	None	1517.240375	None	1517.240375	None	left	0.576529606	1517.240375	None	1517.858667	1519.228945	None	None													119	1	19	1	2020_Mar_04_1159	Test	3.2.4	59.8432442		
Pictures/IA80_40_L95p.bmp	Pictures/IA80_40_L95p.bmp	Pictures/IA80.bmp	"Let's stay with the certain option."""""	0	safe					0	0	0	0	0	7	7	4																															1519.245656	None	1521.284363	1522.788313	1522.771614	None	1524.325704	None	2	0.7593416	1526.297563	None	1526.297563	None	1526.297563	None	None	None	None	None	1527.233371	None	1527.233371	None	None		1527.233371	None	None	None	None	None													119	1	19	1	2020_Mar_04_1159	Test	3.2.4	59.8432442		
Pictures/IA25_L15.bmp	Pictures/IA25_L15.bmp	Pictures/IA25.bmp	"There's not much on the line here"	1	risk					0	0	0	0	0	8	8	1																															1529.238654	None	1531.260648	1532.781319	1532.7646	None	1534.335416	None	2	1.142353131	1536.290558	None	1536.290558	None	1536.290558	None	None	None	None	None	1537.610709	None	1537.610709	None	left	0.654194316	1537.610709	None	1538.312561	1539.615983	None	None													119	1	19	1	2020_Mar_04_1159	Test	3.2.4	59.8432442		
Pictures/IA50_G30.bmp	Pictures/IA50_G30.bmp	Pictures/IA50.bmp	"I think you should gamble."""""	1	risk					0	0	0	0	0	9	9	9																															1539.632704	None	1541.654699	1543.175374	1543.158657	None	1544.662625	None	2	0.748310909	1546.684611	None	1546.684611	None	1546.684611	None	None	None	None	None	1547.620412	None	1547.620412	None	right	0.740485299	1547.620412	None	None	None	1548.40581	1549.608978													119	1	19	1	2020_Mar_04_1159	Test	3.2.4	59.8432442		
Pictures/IA80_40_G95p.bmp	Pictures/IA80_40_G95p.bmp	Pictures/IA80.bmp	"Think of the payoff"	1	risk					0	0	0	0	0	10	10	17																															1549.625702	None	1551.647703	1553.168368	1553.151656	None	1554.722468	None	2	0.979312505	1556.677605	None	1556.677605	None	1556.677605	None	None	None	None	None	1557.847357	None	1557.847357	None	left	0.745534771	1557.847357	None	1558.632758	1559.835926	None	None													119	1	19	1	2020_Mar_04_1159	Test	3.2.4	59.8432442		
Pictures/IA100_L80.bmp	Pictures/IA100_L80.bmp	Pictures/IA100.bmp	"Go all in!"""""	1	risk					0	0	0	0	0	11	11	12																															1559.85265	None	1561.874634	1563.395308	1563.37861	None	1564.9494	None	1	0.952337457	1566.904568	None	1566.904568	None	1566.904568	None	1567.923917	None	1567.923917	1568.926554	1570.029467	None	1570.029467	None	right	0.339433825	1570.029467	None	None	None	1570.413809	1572.018024													119	1	19	1	2020_Mar_04_1159	Test	3.2.4	59.8432442		
Pictures/IA75_L45.bmp	Pictures/IA75_L45.bmp	Pictures/IA75.bmp	"Don't gamble for this one"	0	safe					0	0	0	0	0	12	12	11																															1572.034745	None	1574.073453	1575.594123	1575.577406	None	1577.131499	None	1	0.498237551	1579.086664	None	1579.086664	None	1579.086664	None	1579.721665	None	1579.721665	1580.724295	1581.843921	None	1581.843921	None	left	0.508991206	1581.843921	None	1582.395368	1583.832497	None	None													119	1	19	1	2020_Mar_04_1159	Test	3.2.4	59.8432442		
Pictures/IA100_G80.bmp	Pictures/IA100_G80.bmp	Pictures/IA100.bmp	"Why not gamble?"""""	1	risk					0	0	0	0	0	13	13	5																															1583.849198	None	1585.871194	1587.391864	1587.375169	None	1588.945965	None	1	0.931779834	1590.901126	None	1590.901126	None	1590.901126	None	1591.920469	None	1591.920469	1592.923108	1594.026017	None	1594.026017	None	right	0.422884552	1594.026017	None	None	None	1594.493923	1596.014631													119	1	19	1	2020_Mar_04_1159	Test	3.2.4	59.8432442		
Pictures/IA75_L15.bmp	Pictures/IA75_L15.bmp	Pictures/IA75.bmp	"Trust me–gamble!"""""	1	risk					0	0	0	0	0	14	14	7																															1596.0313	None	1598.053307	1599.573963	1599.55727	None	1601.11135	None	1	0.733687318	1603.083216	None	1603.083216	None	1603.083216	None	1603.952171	None	1603.952171	1604.954809	1606.124561	None	1606.124561	None	right	0.620337683	1606.124561	None	None	None	1606.793042	1608.129855													119	1	19	1	2020_Mar_04_1159	Test	3.2.4	59.8432442		
Pictures/IA75_G60.bmp	Pictures/IA75_G60.bmp	Pictures/IA75.bmp	"Make it exciting"	1	risk					0	0	0	0	0	15	15	14																															1608.146551	None	1610.168547	1611.689219	1611.672489	None	1613.243315	None	1	0.202413395	1615.198488	None	1615.198488	None	1615.198488	None	1615.532695	None	1615.532695	1616.535333	1617.688362	None	1617.688362	None	right	0.472547593	1617.688362	None	None	None	1618.206424	1619.693654													119	1	19	1	2020_Mar_04_1159	Test	3.2.4	59.8432442		
Pictures/IA75_L60.bmp	Pictures/IA75_L60.bmp	Pictures/IA75.bmp	"Why not take the gamble?"""""	1	risk					0	0	0	0	0	16	16	19																															1619.710353	None	1621.732348	1623.236321	1623.219613	None	1624.807116	None	1	0.526630817	1626.762282	None	1626.762282	None	1626.762282	None	1627.397279	None	1627.397279	1628.399914	1629.502826	None	1629.502826	None	left	0.442073421	1629.502826	None	1629.987435	1631.491404	None	None													119	1	19	1	2020_Mar_04_1159	Test	3.2.4	59.8432442		
Pictures/IA75_G45.bmp	Pictures/IA75_G45.bmp	Pictures/IA75.bmp	"Don't gamble for this one."""""	0	safe					0	0	0	0	0	17	17	0																															1631.508105	None	1633.530103	1635.050772	1635.03408	None	1636.604869	None	1	0.720884393	1638.560032	None	1638.560032	None	1638.560032	None	1639.395555	None	1639.395555	1640.398194	1641.501109	None	1641.501109	None	left	0.419799382	1641.501109	None	1641.969009	1643.506395	None	None													119	1	19	1	2020_Mar_04_1159	Test	3.2.4	59.8432442		
Pictures/IA40_20_G95p.bmp	Pictures/IA40_20_G95p.bmp	Pictures/IA40.bmp	"Hold back"	0	safe					0	0	0	0	0	18	18	3																															1643.523097	None	1645.561802	1647.082474	1647.065776	None	1648.569739	None	1	0.593887026	1650.575025	None	1650.575025	None	1650.575025	None	1651.293536	None	1651.293536	1652.296211	1653.399121	None	1653.399121	None	left	0.481775619	1653.399121	None	1653.917149	1655.38769	None	None													119	1	19	1	2020_Mar_04_1159	Test	3.2.4	59.8432442		
Pictures/IA50_L30.bmp	Pictures/IA50_L30.bmp	Pictures/IA50.bmp	"Take a leap"	1	risk					0	0	0	0	0	19	19	10																															1655.404413	None	1657.426409	1658.94708	1658.930364	None	1660.501176	None	1	0.448600424	1662.45632	None	1662.45632	None	1662.45632	None	1663.041193	None	1663.041193	1664.043832	1665.163458	None	1665.163458	None	left	1.365441732	1665.163458	None	1666.567158	None	None	None													119	1	19	1	2020_Mar_04_1159	Test	3.2.4	59.8432442		
										0	0	0	0																																																																									1667.419398	None	return	11.61348609	1667.419398	None	119	1	19	1	2020_Mar_04_1159	Test	3.2.4	59.8432442		
Pictures/IA50_L10.bmp	Pictures/IA50_L10.bmp	Pictures/IA50.bmp	"Play it safe"	0	safe					1	0	1	0	0	0	0	2													1679.217155	None	1679.217155	None	1679.217155	None	left	2.295734489	1679.217155	None	1679.217155	None	1679.217155	None	return	6.319500622	1679.217155	None	1685.583891	None	1687.605918	1689.126586	1689.109892	None	1690.663987	None	1	0.453779015	1692.619127	None	1692.619127	None	1692.619127	None	1693.204018	None	1693.204018	1694.206664	1695.309559	None	1695.309559	None	left	0.723336897	1695.309559	None	1696.078242	1697.314841	None	None													119	1	19	1	2020_Mar_04_1159	Test	3.2.4	59.8432442		
Pictures/IA100_L40.bmp	Pictures/IA100_L40.bmp	Pictures/IA100.bmp	"Think of the payoff"	1	risk					1	0	1	0	0	1	1	15																															1697.331539	None	1699.353538	1700.87421	1700.85751	None	1702.411596	None	1	0.569467328	1704.383427	None	1704.383427	None	1704.383427	None	1705.235705	None	1705.235705	1706.238342	1707.341251	None	1707.341251	None	left	0.403647325	1707.341251	None	1707.79244	1709.329819	None	None													119	1	19	1	2020_Mar_04_1159	Test	3.2.4	59.8432442		
Pictures/IA50_L40.bmp	Pictures/IA50_L40.bmp	Pictures/IA50.bmp	"That gamble doesn't sound too good"	0	safe					1	0	1	0	0	2	2	14																															1709.346543	None	1711.368539	1712.889211	1712.872491	None	1714.426596	None	1	0.610436793	1716.398464	None	1716.398464	None	1716.398464	None	1717.167149	None	1717.167149	1718.169798	1719.2727	None	1719.2727	None	left	0.736198394	1719.2727	None	1720.0581	1721.261271	None	None													119	1	19	1	2020_Mar_04_1159	Test	3.2.4	59.8432442		
Pictures/IA75_G45.bmp	Pictures/IA75_G45.bmp	Pictures/IA75.bmp	"Don't gamble for this one."""""	0	safe					1	0	1	0	0	3	3	8																															1721.277969	None	1723.299964	1724.820639	1724.80394	None	1726.307891	None	1	0.694989454	1728.3299	None	1728.3299	None	1728.3299	None	1729.131995	None	1729.131995	1730.13464	1731.237551	None	1731.237551	None	right	0.347344379	1731.237551	None	None	None	1731.621891	1733.226144													119	1	19	1	2020_Mar_04_1159	Test	3.2.4	59.8432442		
Pictures/IA75_G15.bmp	Pictures/IA75_G15.bmp	Pictures/IA75.bmp	"Take a chance!"""""	1	risk					1	0	1	0	0	4	4	4																															1733.242829	None	1735.264823	1736.785496	1736.768797	None	1738.322846	None	1	0.578150448	1740.294753	None	1740.294753	None	1740.294753	None	1740.963171	None	1740.963171	1741.965838	1743.085432	None	1743.085432	None	left	0.435459187	1743.085432	None	1743.570042	1745.074011	None	None													119	1	19	1	2020_Mar_04_1159	Test	3.2.4	59.8432442		
Pictures/IA25_G5.bmp	Pictures/IA25_G5.bmp	Pictures/IA25.bmp	"Let's stay with the certain option."""""	0	safe					1	0	1	0	0	5	5	7																															1745.090712	None	1747.112709	1748.63338	1748.616688	None	1750.187477	None	1	0.7542639	1752.142644	None	1752.142644	None	1752.142644	None	1753.028297	None	1753.028297	1754.030932	1755.133847	None	1755.133847	None	left	0.419048127	1755.133847	None	1755.601751	1757.139135	None	None													119	1	19	1	2020_Mar_04_1159	Test	3.2.4	59.8432442		
Pictures/IA20_10_G95p.bmp	Pictures/IA20_10_G95p.bmp	Pictures/IA20.bmp	"Take a leap"	1	risk					1	0	1	0	0	6	6	11																															1757.155836	None	1759.194543	1760.698514	1760.681797	None	1762.252611	None	1	0.561136587	1764.20776	None	1764.20776	None	1764.20776	None	1764.909611	None	1764.909611	1765.91225	1767.01516	None	1767.01516	None	left	1.28973586	1767.01516	None	1768.352003	None	None	None													119	1	19	1	2020_Mar_04_1159	Test	3.2.4	59.8432442		
Pictures/IA75_L45.bmp	Pictures/IA75_L45.bmp	Pictures/IA75.bmp	"Don't gamble for this one"	0	safe					1	0	1	0	0	7	7	3																															1769.03715	None	1771.059149	1772.579823	1772.563102	None	1774.067072	None	1	0.583830414	1776.089064	None	1776.089064	None	1776.089064	None	1776.807581	None	1776.807581	1777.810256	1778.913168	None	1778.913168	None	left	0.463726028	1778.913168	None	1779.414495	1780.918445	None	None													119	1	19	1	2020_Mar_04_1159	Test	3.2.4	59.8432442		
Pictures/IA100_G20.bmp	Pictures/IA100_G20.bmp	Pictures/IA100.bmp	"Go ahead and gamble!"""""	1	risk					1	0	1	0	0	8	8	10																															1780.935167	None	1782.957162	1784.477836	1784.461117	None	1785.998512	None	1	0.357828849	1787.987078	None	1787.987078	None	1787.987078	None	1788.438273	None	1788.438273	1789.440927	1790.560502	None	1790.560502	None	right	1.192407645	1790.560502	None	None	None	1791.797111	None													119	1	19	1	2020_Mar_04_1159	Test	3.2.4	59.8432442		
Pictures/IA40_20_L95p.bmp	Pictures/IA40_20_L95p.bmp	Pictures/IA40.bmp	"Trust me"	1	risk					1	0	1	0	0	9	9	13																															1792.582512	None	1794.604509	1796.12518	1796.108485	None	1797.695989	None	1	0.438473233	1799.634435	None	1799.634435	None	1799.634435	None	1800.169181	None	1800.169181	1801.171809	1802.274715	None	1802.274715	None	left	0.278178913	1802.274715	None	1802.59222	1804.263291	None	None													119	1	19	1	2020_Mar_04_1159	Test	3.2.4	59.8432442		
Pictures/IA110_55_G95p.bmp	Pictures/IA110_55_G95p.bmp	Pictures/IA110.bmp	"Take a chance!"""""	1	risk					1	0	1	0	0	10	10	0																															1804.280011	None	1806.318717	1807.83939	1807.822674	None	1809.326637	None	1	0.772986085	1811.33192	None	1811.33192	None	1811.33192	None	1812.200874	None	1812.200874	1813.203527	1814.306422	None	1814.306422	None	left	1.54247916	1814.306422	None	1815.893936	None	None	None													119	1	19	1	2020_Mar_04_1159	Test	3.2.4	59.8432442		
Pictures/IA100_G40.bmp	Pictures/IA100_G40.bmp	Pictures/IA100.bmp	"Try your luck and gamble!"""""	1	risk					1	0	1	0	0	11	11	9																															1816.311712	None	1818.33371	1819.854381	1819.837663	None	1821.391766	None	1	0.781269005	1823.363634	None	1823.363634	None	1823.363634	None	1824.249298	None	1824.249298	1825.251934	1826.388267	None	1826.388267	None	right	0.236633142	1826.388267	None	None	None	1826.672345	1828.376825													119	1	19	1	2020_Mar_04_1159	Test	3.2.4	59.8432442		
Pictures/IA75_G60.bmp	Pictures/IA75_G60.bmp	Pictures/IA75.bmp	"Make it exciting"	1	risk					1	0	1	0	0	12	12	5																															1828.393547	None	1830.415545	1831.936179	1831.919501	None	1833.423469	None	1	0.491450327	1835.445454	None	1835.445454	None	1835.445454	None	1836.080473	None	1836.080473	1837.083109	1838.18602	None	1838.18602	None	left	0.446886087	1838.18602	None	1838.670624	1840.174576	None	None													119	1	19	1	2020_Mar_04_1159	Test	3.2.4	59.8432442		
Pictures/IA75_L30.bmp	Pictures/IA75_L30.bmp	Pictures/IA75.bmp	"Hold back"	0	safe					1	0	1	0	0	13	13	1																															1840.191299	None	1842.213307	1843.733966	1843.717248	None	1845.288066	None	1	0.57369815	1847.243206	None	1847.243206	None	1847.243206	None	1847.945022	None	1847.945022	1848.947692	1850.050603	None	1850.050603	None	right	0.430292482	1850.050603	None	None	None	1850.51851	1852.039177													119	1	19	1	2020_Mar_04_1159	Test	3.2.4	59.8432442		
Pictures/IA25_L10.bmp	Pictures/IA25_L10.bmp	Pictures/IA25.bmp	"Dont be afraid to take the risk!"""""	1	risk					1	0	1	0	0	14	14	6																															1852.055882	None	1854.07788	1855.598583	1855.581853	None	1857.152646	None	1	0.725090982	1859.107817	None	1859.107817	None	1859.107817	None	1859.960045	None	1859.960045	1860.962683	1862.065594	None	1862.065594	None	right	0.447301175	1862.065594	None	None	None	1862.550203	1864.054172													119	1	19	1	2020_Mar_04_1159	Test	3.2.4	59.8432442		
Pictures/IA110_55_L95p.bmp	Pictures/IA110_55_L95p.bmp	Pictures/IA110.bmp	"Trust me"	1	risk					1	0	1	0	0	15	15	12																															1864.07088	None	1866.09287	1867.613541	1867.596846	None	1869.150925	None	1	0.630105531	1871.122791	None	1871.122791	None	1871.122791	None	1871.858074	None	1871.858074	1872.860709	1873.96362	None	1873.96362	None	right	0.485274912	1873.96362	None	None	None	1874.498348	1875.968888													119	1	19	1	2020_Mar_04_1159	Test	3.2.4	59.8432442		
Pictures/IA25_L5.bmp	Pictures/IA25_L5.bmp	Pictures/IA25.bmp	"It would be smarter to choose the safe option."""""	0	safe					1	0	1	0	0	16	16	16																															1875.985611	None	1878.007607	1879.528282	1879.511562	None	1881.082377	None	1	0.707394355	1883.037517	None	1883.037517	None	1883.037517	None	1883.889763	None	1883.889763	1884.892402	1886.012022	None	1886.012022	None	left	0.492871619	1886.012022	None	1886.546772	1888.017314	None	None													119	1	19	1	2020_Mar_04_1159	Test	3.2.4	59.8432442		
Pictures/IA80_40_G95p.bmp	Pictures/IA80_40_G95p.bmp	Pictures/IA80.bmp	"Think of the payoff"	1	risk					1	0	1	0	0	17	17	18																															1888.034012	None	1890.056007	1891.576681	1891.559985	None	1893.080646	None	1	0.81897782	1895.085931	None	1895.085931	None	1895.085931	None	1896.038452	None	1896.038452	1897.041088	1898.144	None	1898.144	None	left	0.952894228	1898.144	None	1899.146631	None	None	None													119	1	19	1	2020_Mar_04_1159	Test	3.2.4	59.8432442		
Pictures/IA100_L20.bmp	Pictures/IA100_L20.bmp	Pictures/IA100.bmp	"Try to win as much money as you can"	1	risk					1	0	1	0	0	18	18	17																															1900.165989	None	1902.187985	1903.708659	1903.691938	None	1905.262754	None	1	0.998981285	1907.217911	None	1907.217911	None	1907.217911	None	1908.354232	None	1908.354232	1909.35687	1910.476494	None	1910.476494	None	right	0.532407762	1910.476494	None	None	None	1911.044642	1912.481773													119	1	19	1	2020_Mar_04_1159	Test	3.2.4	59.8432442		
Pictures/IA100_L80.bmp	Pictures/IA100_L80.bmp	Pictures/IA100.bmp	"Go all in!"""""	1	risk					1	0	1	0	0	19	19	19																															1912.498472	None	1914.520468	1916.04114	1916.024444	None	1917.545169	None	1	0.466515087	1919.550389	None	1919.550389	None	1919.550389	None	1920.085142	None	1920.085142	1921.08778	1922.20741	None	1922.20741	None	left	0.449477675	1922.20741	None	1922.69201	1924.19596	None	None													119	1	19	1	2020_Mar_04_1159	Test	3.2.4	59.8432442		
										1	0	1	0																																																																									1924.363048	None	return	16.70984321	1924.363048	None	119	1	19	1	2020_Mar_04_1159	Test	3.2.4	59.8432442		
Pictures/IA75_G45.bmp	Pictures/IA75_G45.bmp	Pictures/IA75.bmp	"Don't gamble for this one."""""	0	safe					2	0	2	0	0	0	0	10													1941.224174	None	1941.224174	None	1941.224174	None	left	0.960715453	1941.224174	None	1941.224174	None	1941.224174	None	return	2.048481619	1941.224174	None	1943.32971	None	1945.335005	1946.855682	1946.838957	None	1948.342919	None	1	0.700705331	1950.348205	None	1950.348205	None	1950.348205	None	1951.150327	None	1951.150327	1952.152964	1953.255876	None	1953.255876	None	left	0.337022563	1953.255876	None	1953.640218	1955.244448	None	None													119	1	19	1	2020_Mar_04_1159	Test	3.2.4	59.8432442		
Pictures/IA50_G40.bmp	Pictures/IA50_G40.bmp	Pictures/IA50.bmp	"It would probably be best to play it safe."""""	0	safe					2	0	2	0	0	1	1	6																															1955.261146	None	1957.283143	1958.803815	1958.78712	None	1960.341199	None	1	0.599834149	1962.313062	None	1962.313062	None	1962.313062	None	1963.048343	None	1963.048343	1964.050984	1965.153892	None	1965.153892	None	left	1.039006808	1965.153892	None	1966.240084	None	None	None													119	1	19	1	2020_Mar_04_1159	Test	3.2.4	59.8432442		
Pictures/IA20_10_L95p.bmp	Pictures/IA20_10_L95p.bmp	Pictures/IA20.bmp	"Don't be tempted to gamble."""""	0	safe					2	0	2	0	0	2	2	7																															1967.159177	None	1969.18117	1970.70184	1970.685122	None	1972.25595	None	1	0.573816306	1974.211087	None	1974.211087	None	1974.211087	None	1974.896218	None	1974.896218	1975.898855	1977.001767	None	1977.001767	None	left	0.471133815	1977.001767	None	1977.519854	1978.990334	None	None													119	1	19	1	2020_Mar_04_1159	Test	3.2.4	59.8432442		
Pictures/IA75_L45.bmp	Pictures/IA75_L45.bmp	Pictures/IA75.bmp	"Don't gamble for this one"	0	safe					2	0	2	0	0	3	3	18																															1979.007061	None	1981.029057	1982.549724	1982.533008	None	1984.070402	None	1	0.781935484	1986.058964	None	1986.058964	None	1986.058964	None	1986.961312	None	1986.961312	1987.963978	1989.066892	None	1989.066892	None	left	0.645997321	1989.066892	None	1989.752027	1991.055469	None	None													119	1	19	1	2020_Mar_04_1159	Test	3.2.4	59.8432442		
Pictures/IA100_G20.bmp	Pictures/IA100_G20.bmp	Pictures/IA100.bmp	"Go ahead and gamble!"""""	1	risk					2	0	2	0	0	4	4	1																															1991.072169	None	1993.094164	1994.614837	1994.598144	None	1996.10209	None	1	0.532806713	1998.124098	None	1998.124098	None	1998.124098	None	1998.742383	None	1998.742383	1999.745019	2000.847931	None	2000.847931	None	right	0.296976957	2000.847931	None	None	None	2001.182152	2002.83651													119	1	19	1	2020_Mar_04_1159	Test	3.2.4	59.8432442		
Pictures/IA110_55_L95p.bmp	Pictures/IA110_55_L95p.bmp	Pictures/IA110.bmp	"Trust me"	1	risk					2	0	2	0	0	5	5	0																															2002.853211	None	2004.875205	2006.379178	2006.362462	None	2007.899847	None	1	0.439774936	2009.905132	None	2009.905132	None	2009.905132	None	2010.439866	None	2010.439866	2011.442508	2012.545425	None	2012.545425	None	right	0.59946701	2012.545425	None	None	None	2013.180431	2014.550699													119	1	19	1	2020_Mar_04_1159	Test	3.2.4	59.8432442		
Pictures/IA75_G15.bmp	Pictures/IA75_G15.bmp	Pictures/IA75.bmp	"Take a chance!"""""	1	risk					2	0	2	0	0	6	6	2																															2014.567426	None	2016.589416	2018.110089	2018.093373	None	2019.597343	None	1	0.773578047	2021.619328	None	2021.619328	None	2021.619328	None	2022.488282	None	2022.488282	2023.49092	2024.593833	None	2024.593833	None	right	0.359066464	2024.593833	None	None	None	2024.994897	2026.599121													119	1	19	1	2020_Mar_04_1159	Test	3.2.4	59.8432442		
Pictures/IA100_L80.bmp	Pictures/IA100_L80.bmp	Pictures/IA100.bmp	"Go all in!"""""	1	risk					2	0	2	0	0	7	7	19																															2026.61582	None	2028.637821	2030.141793	2030.125071	None	2031.679166	None	1	0.773156169	2033.66775	None	2033.66775	None	2033.66775	None	2034.519995	None	2034.519995	2035.522634	2036.675675	None	2036.675675	None	None		2036.675675	None	None	None	None	None													119	1	19	1	2020_Mar_04_1159	Test	3.2.4	59.8432442		
Pictures/IA75_L60.bmp	Pictures/IA75_L60.bmp	Pictures/IA75.bmp	"Why not take the gamble?"""""	1	risk					2	0	2	0	0	8	8	5																															2038.680955	None	2040.702951	2042.223624	2042.206916	None	2043.727589	None	1	0.524036097	2045.732873	None	2045.732873	None	2045.732873	None	2046.367868	None	2046.367868	2047.370505	2048.473418	None	2048.473418	None	left	1.375481383	2048.473418	None	2049.893822	None	None	None													119	1	19	1	2020_Mar_04_1159	Test	3.2.4	59.8432442		
Pictures/IA100_G60.bmp	Pictures/IA100_G60.bmp	Pictures/IA100.bmp	"Be cautious"	0	safe					2	0	2	0	0	9	9	11																															2050.478696	None	2052.500691	2054.021365	2054.004667	None	2055.55875	None	1	0.558292561	2057.530615	None	2057.530615	None	2057.530615	None	2058.232472	None	2058.232472	2059.235113	2060.338025	None	2060.338025	None	left	0.350881917	2060.338025	None	2060.72237	2062.32659	None	None													119	1	19	1	2020_Mar_04_1159	Test	3.2.4	59.8432442		
Pictures/IA80_40_G95p.bmp	Pictures/IA80_40_G95p.bmp	Pictures/IA80.bmp	"Think of the payoff"	1	risk					2	0	2	0	0	10	10	13																															2062.343295	None	2064.365286	2065.885959	2065.869262	None	2067.406632	None	1	0.805690092	2069.39522	None	2069.39522	None	2069.39522	None	2070.331018	None	2070.331018	2071.333657	2072.436568	None	2072.436568	None	right	0.940328026	2072.436568	None	None	None	2073.422495	None													119	1	19	1	2020_Mar_04_1159	Test	3.2.4	59.8432442		
Pictures/IA25_G5.bmp	Pictures/IA25_G5.bmp	Pictures/IA25.bmp	"Let's stay with the certain option."""""	0	safe					2	0	2	0	0	11	11	3																															2074.441837	None	2076.463831	2077.984502	2077.967811	None	2079.505179	None	1	0.843140282	2081.493764	None	2081.493764	None	2081.493764	None	2082.462988	None	2082.462988	2083.465621	2084.568534	None	2084.568534	None	left	0.488364799	2084.568534	None	2085.103262	2086.573801	None	None													119	1	19	1	2020_Mar_04_1159	Test	3.2.4	59.8432442		
Pictures/IA25_L20.bmp	Pictures/IA25_L20.bmp	Pictures/IA25.bmp	"Don't be tempted to gamble."""""	0	safe					2	0	2	0	0	12	12	12																															2086.590524	None	2088.61252	2090.13319	2090.116474	None	2091.637155	None	1	0.486464267	2093.642445	None	2093.642445	None	2093.642445	None	2094.244015	None	2094.244015	2095.246651	2096.349563	None	2096.349563	None	left	0.515325951	2096.349563	None	2096.901012	2098.33813	None	None													119	1	19	1	2020_Mar_04_1159	Test	3.2.4	59.8432442		
Pictures/IA100_L60.bmp	Pictures/IA100_L60.bmp	Pictures/IA100.bmp	"You'd have a lot to lose"	0	safe					2	0	2	0	0	13	13	4																															2098.354853	None	2100.376848	2101.880802	2101.864104	None	2103.401488	None	1	0.666129442	2105.406771	None	2105.406771	None	2105.406771	None	2106.208882	None	2106.208882	2107.211522	2108.314422	None	2108.314422	None	None		2108.314422	None	None	None	None	None													119	1	19	1	2020_Mar_04_1159	Test	3.2.4	59.8432442		
Pictures/IA25_L15.bmp	Pictures/IA25_L15.bmp	Pictures/IA25.bmp	"There's not much on the line here"	1	risk					2	0	2	0	0	14	14	16																															2110.3197	None	2112.341697	2113.862372	2113.845677	None	2115.366338	None	1	0.613280741	2117.371623	None	2117.371623	None	2117.371623	None	2118.14031	None	2118.14031	2119.142948	2120.262571	None	2120.262571	None	left	1.018328743	2120.262571	None	2121.315342	None	None	None													119	1	19	1	2020_Mar_04_1159	Test	3.2.4	59.8432442		
Pictures/IA50_L10.bmp	Pictures/IA50_L10.bmp	Pictures/IA50.bmp	"Play it safe"	0	safe					2	0	2	0	0	15	15	15																															2122.267851	None	2124.289847	2125.810519	2125.793821	None	2127.314486	None	1	0.417129766	2129.319773	None	2129.319773	None	2129.319773	None	2129.85451	None	2129.85451	2130.857148	2131.96006	None	2131.96006	None	left	0.704838386	2131.96006	None	2132.712036	2133.948638	None	None													119	1	19	1	2020_Mar_04_1159	Test	3.2.4	59.8432442		
Pictures/IA25_L5.bmp	Pictures/IA25_L5.bmp	Pictures/IA25.bmp	"It would be smarter to choose the safe option."""""	0	safe					2	0	2	0	0	16	16	14																															2133.965341	None	2135.987334	2137.508005	2137.491308	None	2138.995259	None	1	0.919629223	2141.01727	None	2141.01727	None	2141.01727	None	2142.086742	None	2142.086742	2143.089378	2144.192291	None	2144.192291	None	right	1.680605104	2144.192291	None	None	None	2145.913486	None													119	1	19	1	2020_Mar_04_1159	Test	3.2.4	59.8432442		
Pictures/IA110_55_G95p.bmp	Pictures/IA110_55_G95p.bmp	Pictures/IA110.bmp	"Take a chance!"""""	1	risk					2	0	2	0	0	17	17	8																															2146.19758	None	2148.219577	2149.723526	2149.706828	None	2151.260923	None	1	0.375420033	2153.249487	None	2153.249487	None	2153.249487	None	2153.717382	None	2153.717382	2154.720022	2155.822935	None	2155.822935	None	left	0.233964984	2155.822935	None	2156.090313	2157.828227	None	None													119	1	19	1	2020_Mar_04_1159	Test	3.2.4	59.8432442		
Pictures/IA100_L40.bmp	Pictures/IA100_L40.bmp	Pictures/IA100.bmp	"Think of the payoff"	1	risk					2	0	2	0	0	18	18	9																															2157.844922	None	2159.86692	2161.387589	2161.370895	None	2162.891556	None	1	0.704060888	2164.896842	None	2164.896842	None	2164.896842	None	2165.732375	None	2165.732375	2166.735012	2167.837919	None	2167.837919	None	right	0.36296852	2167.837919	None	None	None	2168.238989	2169.843212													119	1	19	1	2020_Mar_04_1159	Test	3.2.4	59.8432442		
Pictures/IA50_L40.bmp	Pictures/IA50_L40.bmp	Pictures/IA50.bmp	"That gamble doesn't sound too good"	0	safe					2	0	2	0	0	19	19	17																															2169.859914	None	2171.881908	2173.402583	2173.385887	None	2174.939967	None	1	0.473075942	2176.911831	None	2176.911831	None	2176.911831	None	2177.546837	None	2177.546837	2178.549478	2179.652387	None	2179.652387	None	left	1.108510398	2179.652387	None	2180.805422	None	None	None													119	1	19	1	2020_Mar_04_1159	Test	3.2.4	59.8432442		
										2	0	2	0																																																																									2181.808086	None	return	11.92881092	2181.808086	None	119	1	19	1	2020_Mar_04_1159	Test	3.2.4	59.8432442		
Pictures/IA25_G15.bmp	Pictures/IA25_G15.bmp	Pictures/IA25.bmp	"I think you should take a gamble."""""	1	risk					3	0	3	0	0	0	0	1													2193.889909	None	2193.889909	None	2193.889909	None	left	2.222991849	2193.889909	None	2193.889909	None	2193.889909	None	return	4.710765577	2193.889909	None	2198.652444	None	2200.657744	2202.178412	2202.161696	None	2203.732497	None	1	0.593964774	2205.670942	None	2205.670942	None	2205.670942	None	2206.389509	None	2206.389509	2207.392148	2208.495063	None	2208.495063	None	right	0.273831506	2208.495063	None	None	None	2208.81256	2210.483631													119	1	19	1	2020_Mar_04_1159	Test	3.2.4	59.8432442		
Pictures/IA100_L80.bmp	Pictures/IA100_L80.bmp	Pictures/IA100.bmp	"Go all in!"""""	1	risk					3	0	3	0	0	1	1	8																															2210.500329	None	2212.522324	2214.042998	2214.026302	None	2215.530251	None	1	0.71256676	2217.55232	None	2217.55232	None	2217.55232	None	2218.337665	None	2218.337665	2219.340297	2220.476632	None	2220.476632	None	left	0.316263152	2220.476632	None	2220.827551	2222.481943	None	None													119	1	19	1	2020_Mar_04_1159	Test	3.2.4	59.8432442		
Pictures/IA50_G10.bmp	Pictures/IA50_G10.bmp	Pictures/IA50.bmp	"Go with the safe option here!"""""	0	safe					3	0	3	0	0	2	2	10																															2222.498616	None	2224.520605	2226.041305	2226.024587	None	2227.578663	None	1	0.48236815	2229.550528	None	2229.550528	None	2229.550528	None	2230.135407	None	2230.135407	2231.138041	2232.25766	None	2232.25766	None	left	0.191255606	2232.25766	None	2232.491618	2234.26294	None	None													119	1	19	1	2020_Mar_04_1159	Test	3.2.4	59.8432442		
Pictures/IA75_G15.bmp	Pictures/IA75_G15.bmp	Pictures/IA75.bmp	"Take a chance!"""""	1	risk					3	0	3	0	0	3	3	15																															2234.279662	None	2236.301658	2237.805623	2237.788923	None	2239.343006	None	1	0.645337686	2241.331567	None	2241.331567	None	2241.331567	None	2242.066837	None	2242.066837	2243.069476	2244.172388	None	2244.172388	None	left	1.396503845	2244.172388	None	2245.609515	None	None	None													119	1	19	1	2020_Mar_04_1159	Test	3.2.4	59.8432442		
Pictures/IA20_10_G95p.bmp	Pictures/IA20_10_G95p.bmp	Pictures/IA20.bmp	"Take a leap"	1	risk					3	0	3	0	0	4	4	13																															2246.194389	None	2248.216391	2249.720333	2249.703638	None	2251.257733	None	1	0.578620384	2253.246297	None	2253.246297	None	2253.246297	None	2253.964858	None	2253.964858	2254.967492	2256.087114	None	2256.087114	None	None		2256.087114	None	None	None	None	None													119	1	19	1	2020_Mar_04_1159	Test	3.2.4	59.8432442		
Pictures/IA75_L45.bmp	Pictures/IA75_L45.bmp	Pictures/IA75.bmp	"Don't gamble for this one"	0	safe					3	0	3	0	0	5	5	3																															2258.092393	None	2260.114395	2261.635061	2261.618373	None	2263.122321	None	1	1.064585531	2265.144328	None	2265.144328	None	2265.144328	None	2266.347479	None	2266.347479	2267.350122	2268.469741	None	2268.469741	None	left	0.403162438	2268.469741	None	2268.920926	2270.45831	None	None													119	1	19	1	2020_Mar_04_1159	Test	3.2.4	59.8432442		
Pictures/IA50_L10.bmp	Pictures/IA50_L10.bmp	Pictures/IA50.bmp	"Play it safe"	0	safe					3	0	3	0	0	6	6	17																															2270.475031	None	2272.497029	2274.017702	2274.00098	None	2275.538373	None	1	0.497891798	2277.526996	None	2277.526996	None	2277.526996	None	2278.12854	None	2278.12854	2279.13117	2280.234084	None	2280.234084	None	right	0.446810088	2280.234084	None	None	None	2280.718688	2282.22265													119	1	19	1	2020_Mar_04_1159	Test	3.2.4	59.8432442		
Pictures/IA100_L40.bmp	Pictures/IA100_L40.bmp	Pictures/IA100.bmp	"Think of the payoff"	1	risk					3	0	3	0	0	7	7	4																															2282.239361	None	2284.26136	2285.765307	2285.748611	None	2287.269285	None	1	0.81363308	2289.291265	None	2289.291265	None	2289.291265	None	2290.227066	None	2290.227066	2291.229705	2292.332617	None	2292.332617	None	right	0.540279241	2292.332617	None	None	None	2292.917487	2294.321185													119	1	19	1	2020_Mar_04_1159	Test	3.2.4	59.8432442		
Pictures/IA50_L40.bmp	Pictures/IA50_L40.bmp	Pictures/IA50.bmp	"That gamble doesn't sound too good"	0	safe					3	0	3	0	0	8	8	19																															2294.337906	None	2296.359905	2297.880576	2297.863856	None	2299.36783	None	1	1.187083174	2301.389816	None	2301.389816	None	2301.389816	None	2302.743391	None	2302.743391	2303.746027	2304.882361	None	2304.882361	None	left	0.430536655	2304.882361	None	2305.350243	2306.887628	None	None													119	1	19	1	2020_Mar_04_1159	Test	3.2.4	59.8432442		
Pictures/IA25_L15.bmp	Pictures/IA25_L15.bmp	Pictures/IA25.bmp	"There's not much on the line here"	1	risk					3	0	3	0	0	9	9	12																															2306.904355	None	2308.926346	2310.447024	2310.430301	None	2311.934274	None	1	0.660647048	2313.956258	None	2313.956258	None	2313.956258	None	2314.75838	None	2314.75838	2315.761021	2316.863932	None	2316.863932	None	left	0.424962641	2316.863932	None	2317.331815	2318.869201	None	None													119	1	19	1	2020_Mar_04_1159	Test	3.2.4	59.8432442		
Pictures/IA75_G30.bmp	Pictures/IA75_G30.bmp	Pictures/IA75.bmp	"Be bold"	1	risk					3	0	3	0	0	10	10	0																															2318.885919	None	2320.907924	2322.428587	2322.411874	None	2323.982686	None	1	0.823037408	2325.937859	None	2325.937859	None	2325.937859	None	2326.856946	None	2326.856946	2327.859567	2328.979224	None	2328.979224	None	right	0.229703328	2328.979224	None	None	None	2329.246568	2330.984465													119	1	19	1	2020_Mar_04_1159	Test	3.2.4	59.8432442		
Pictures/IA110_55_L95p.bmp	Pictures/IA110_55_L95p.bmp	Pictures/IA110.bmp	"Trust me"	1	risk					3	0	3	0	0	11	11	2																															2331.001164	None	2333.023197	2334.527151	2334.510414	None	2336.048527	None	1	0.833636354	2338.055277	None	2338.055277	None	2338.055277	None	2338.988942	None	2338.988942	2340.051968	2341.445387	None	2341.445387	None	right	0.483474945	2341.445387	None	None	None	2341.963545	2343.461332													119	1	19	1	2020_Mar_04_1159	Test	3.2.4	59.8432442		
Pictures/IA25_G10.bmp	Pictures/IA25_G10.bmp	Pictures/IA25.bmp	"What's life without a little risk?"""""	1	risk					3	0	3	0	0	12	12	14																															2343.490313	None	2345.606356	2347.12789	2347.113941	None	2348.833727	None	1	0.784198947	2350.552711	None	2350.552711	None	2350.552711	None	2351.489037	None	2351.489037	2352.491157	2353.627468	None	2353.627468	None	right	0.341448728	2353.627468	None	None	None	2354.011914	2355.61881													119	1	19	1	2020_Mar_04_1159	Test	3.2.4	59.8432442		
Pictures/IA50_G40.bmp	Pictures/IA50_G40.bmp	Pictures/IA50.bmp	"It would probably be best to play it safe."""""	0	safe					3	0	3	0	0	13	13	18																															2355.649463	None	2357.688165	2359.192161	2359.158697	None	2360.729519	None	1	0.612262352	2362.684652	None	2362.684652	None	2362.684652	None	2363.453375	None	2363.453375	2364.456005	2365.592334	None	2365.592334	None	right	0.47256619	2365.592334	None	None	None	2366.110381	2367.587154													119	1	19	1	2020_Mar_04_1159	Test	3.2.4	59.8432442		
Pictures/IA100_G40.bmp	Pictures/IA100_G40.bmp	Pictures/IA100.bmp	"Try your luck and gamble!"""""	1	risk					3	0	3	0	0	14	14	5																															2367.597574	None	2369.636344	2371.140308	2371.106847	None	2372.694388	None	1	0.503376574	2374.649531	None	2374.649531	None	2374.649531	None	2375.267813	None	2375.267813	2376.270469	2377.390088	None	2377.390088	None	right	0.346804424	2377.390088	None	None	None	2377.774461	2379.378652													119	1	19	1	2020_Mar_04_1159	Test	3.2.4	59.8432442		
Pictures/IA100_G80.bmp	Pictures/IA100_G80.bmp	Pictures/IA100.bmp	"Why not gamble?"""""	1	risk					3	0	3	0	0	15	15	9																															2379.395377	None	2381.417371	2382.938038	2382.921358	None	2384.492106	None	1	0.929631843	2386.447272	None	2386.447272	None	2386.447272	None	2387.466612	None	2387.466612	2388.46925	2389.588875	None	2389.588875	None	right	0.388022417	2389.588875	None	None	None	2390.023356	2391.594153													119	1	19	1	2020_Mar_04_1159	Test	3.2.4	59.8432442		
Pictures/IA75_L30.bmp	Pictures/IA75_L30.bmp	Pictures/IA75.bmp	"Hold back"	0	safe					3	0	3	0	0	16	16	7																															2391.610872	None	2393.649579	2395.170253	2395.153536	None	2396.707595	None	1	0.546115249	2398.662797	None	2398.662797	None	2398.662797	None	2399.347928	None	2399.347928	2400.350566	2401.453477	None	2401.453477	None	left	0.323420588	2401.453477	None	2401.821098	2403.458759	None	None													119	1	19	1	2020_Mar_04_1159	Test	3.2.4	59.8432442		
Pictures/IA80_40_G95p.bmp	Pictures/IA80_40_G95p.bmp	Pictures/IA80.bmp	"Think of the payoff"	1	risk					3	0	3	0	0	17	17	16																															2403.475459	None	2405.514163	2407.034835	2407.018138	None	2408.555521	None	1	0.889522944	2410.527385	None	2410.527385	None	2410.527385	None	2411.546737	None	2411.546737	2412.549362	2413.65228	None	2413.65228	None	right	0.94061676	2413.65228	None	None	None	2414.638203	None													119	1	19	1	2020_Mar_04_1159	Test	3.2.4	59.8432442		
Pictures/IA40_20_L95p.bmp	Pictures/IA40_20_L95p.bmp	Pictures/IA40.bmp	"Trust me"	1	risk					3	0	3	0	0	18	18	11																															2415.657565	None	2417.712984	2419.21694	2419.200239	None	2420.754332	None	1	1.011432772	2422.709473	None	2422.709473	None	2422.709473	None	2423.812383	None	2423.812383	2424.815014	2425.951353	None	2425.951353	None	right	0.337552086	2425.951353	None	None	None	2426.335691	2427.939915													119	1	19	1	2020_Mar_04_1159	Test	3.2.4	59.8432442		
Pictures/IA25_L20.bmp	Pictures/IA25_L20.bmp	Pictures/IA25.bmp	"Don't be tempted to gamble."""""	0	safe					3	0	3	0	0	19	19	6																															2427.95664	None	2429.978632	2431.499309	2431.482586	None	2433.053406	None	1	0.760357296	2435.008546	None	2435.008546	None	2435.008546	None	2435.877514	None	2435.877514	2436.880149	2437.983065	None	2437.983065	None	left	0.289828262	2437.983065	None	2438.317261	2439.988329	None	None													119	1	19	1	2020_Mar_04_1159	Test	3.2.4	59.8432442		
										3	0	3	0																																																																									2440.15545	None	return	11.4694419	2440.15545	None	119	1	19	1	2020_Mar_04_1159	Test	3.2.4	59.8432442		
Pictures/IA25_L10.bmp	Pictures/IA25_L10.bmp	Pictures/IA25.bmp	"Dont be afraid to take the risk!"""""	1	risk					4	0	4	0	0	0	0	17													2451.802804	None	2451.802804	None	2451.802804	None	left	1.974085133	2451.802804	None	2451.802804	None	2451.802804	None	return	3.19788837	2451.802804	None	2455.061381	None	2457.066676	2458.587345	2458.570628	None	2460.108013	None	1	0.977032734	2462.079874	None	2462.079874	None	2462.079874	None	2463.182779	None	2463.182779	2464.185417	2465.28833	None	2465.28833	None	right	0.888564782	2465.28833	None	None	None	2466.224144	2467.29362													119	1	19	1	2020_Mar_04_1159	Test	3.2.4	59.8432442		
Pictures/IA75_L45.bmp	Pictures/IA75_L45.bmp	Pictures/IA75.bmp	"Don't gamble for this one"	0	safe					4	0	4	0	0	1	1	9																															2467.310318	None	2469.332314	2470.852986	2470.83629	None	2472.390378	None	1	0.694678243	2474.362237	None	2474.362237	None	2474.362237	None	2475.197782	None	2475.197782	2476.20042	2477.30333	None	2477.30333	None	left	0.089564443	2477.30333	None	2477.437002	2479.308599	None	None													119	1	19	1	2020_Mar_04_1159	Test	3.2.4	59.8432442		
Pictures/IA25_G10.bmp	Pictures/IA25_G10.bmp	Pictures/IA25.bmp	"What's life without a little risk?"""""	1	risk					4	0	4	0	0	2	2	13																															2479.325321	None	2481.347314	2482.867989	2482.851272	None	2484.355244	None	1	0.015671653	2486.377235	None	2486.377235	None	2486.377235	None	2486.510913	None	2486.510913	2487.513553	2488.616461	None	2488.616461	None	None		2488.616461	None	None	None	None	None													119	1	19	1	2020_Mar_04_1159	Test	3.2.4	59.8432442		
Pictures/IA75_L30.bmp	Pictures/IA75_L30.bmp	Pictures/IA75.bmp	"Hold back"	0	safe					4	0	4	0	0	3	3	12																															2490.621743	None	2492.643736	2494.164412	2494.147717	None	2495.651665	None	1	0.479221211	2497.673674	None	2497.673674	None	2497.673674	None	2498.291965	None	2498.291965	2499.294602	2500.414227	None	2500.414227	None	left	0.650668052	2500.414227	None	2501.099358	2502.419468	None	None													119	1	19	1	2020_Mar_04_1159	Test	3.2.4	59.8432442		
Pictures/IA100_L40.bmp	Pictures/IA100_L40.bmp	Pictures/IA100.bmp	"Think of the payoff"	1	risk					4	0	4	0	0	4	4	5																															2502.436205	None	2504.458202	2505.978872	2505.962176	None	2507.532969	None	1	0.65678132	2509.488132	None	2509.488132	None	2509.488132	None	2510.273524	None	2510.273524	2511.276163	2512.395783	None	2512.395783	None	right	1.437103199	2512.395783	None	None	None	2513.86633	None													119	1	19	1	2020_Mar_04_1159	Test	3.2.4	59.8432442		
Pictures/IA25_L5.bmp	Pictures/IA25_L5.bmp	Pictures/IA25.bmp	"It would be smarter to choose the safe option."""""	0	safe					4	0	4	0	0	5	5	14																															2514.417773	None	2516.439771	2517.960447	2517.943745	None	2519.497828	None	1	1.515204514	2521.469693	None	2521.469693	None	2521.469693	None	2523.12405	None	2523.12405	2524.126688	2525.2296	None	2525.2296	None	right	0.627292699	2525.2296	None	None	None	2525.898036	2527.234899													119	1	19	1	2020_Mar_04_1159	Test	3.2.4	59.8432442		
Pictures/IA50_G20.bmp	Pictures/IA50_G20.bmp	Pictures/IA50.bmp	"Let's venture and take a risk!"""""	1	risk					4	0	4	0	0	6	6	6																															2527.251588	None	2529.273591	2530.794257	2530.777563	None	2532.348366	None	1	0.617384963	2534.303517	None	2534.303517	None	2534.303517	None	2535.038787	None	2535.038787	2536.041424	2537.161056	None	2537.161056	None	right	1.295839063	2537.161056	None	None	None	2538.497888	None													119	1	19	1	2020_Mar_04_1159	Test	3.2.4	59.8432442		
Pictures/IA40_20_G95p.bmp	Pictures/IA40_20_G95p.bmp	Pictures/IA40.bmp	"Hold back"	0	safe					4	0	4	0	0	7	7	18																															2539.183041	None	2541.205046	2542.725705	2542.708988	None	2544.279805	None	1	0.653957365	2546.234946	None	2546.234946	None	2546.234946	None	2547.03707	None	2547.03707	2548.039724	2549.159329	None	2549.159329	None	left	0.353572842	2549.159329	None	2549.560374	2551.164596	None	None													119	1	19	1	2020_Mar_04_1159	Test	3.2.4	59.8432442		
Pictures/IA50_G10.bmp	Pictures/IA50_G10.bmp	Pictures/IA50.bmp	"Go with the safe option here!"""""	0	safe					4	0	4	0	0	8	8	10																															2551.181317	None	2553.203322	2554.723985	2554.707268	None	2556.261374	None	1	0.743667721	2558.233237	None	2558.233237	None	2558.233237	None	2559.08548	None	2559.08548	2560.088117	2561.191031	None	2561.191031	None	left	0.097873422	2561.191031	None	2561.3247	2563.196307	None	None													119	1	19	1	2020_Mar_04_1159	Test	3.2.4	59.8432442		
Pictures/IA40_20_L95p.bmp	Pictures/IA40_20_L95p.bmp	Pictures/IA40.bmp	"Trust me"	1	risk					4	0	4	0	0	9	9	2																															2563.21302	None	2565.235004	2566.755676	2566.738982	None	2568.242931	None	1	0.895960104	2570.264939	None	2570.264939	None	2570.264939	None	2571.267569	None	2571.267569	2572.270205	2573.389828	None	2573.389828	None	right	0.379066123	2573.389828	None	None	None	2573.807592	2575.378405													119	1	19	1	2020_Mar_04_1159	Test	3.2.4	59.8432442		
Pictures/IA50_L20.bmp	Pictures/IA50_L20.bmp	Pictures/IA50.bmp	"Certainty is boring"	1	risk					4	0	4	0	0	10	10	0																															2575.395106	None	2577.417099	2578.937777	2578.921077	None	2580.491873	None	1	1.177863299	2582.44704	None	2582.44704	None	2582.44704	None	2583.750466	None	2583.750466	2584.753108	2585.85602	None	2585.85602	None	right	0.416876261	2585.85602	None	None	None	2586.307205	2587.844586													119	1	19	1	2020_Mar_04_1159	Test	3.2.4	59.8432442		
Pictures/IA50_L30.bmp	Pictures/IA50_L30.bmp	Pictures/IA50.bmp	"Take a leap"	1	risk					4	0	4	0	0	11	11	3																															2587.861287	None	2589.883282	2591.387254	2591.370537	None	2592.95805	None	1	0.647686226	2594.913214	None	2594.913214	None	2594.913214	None	2595.698619	None	2595.698619	2596.701254	2597.804167	None	2597.804167	None	right	0.588725558	2597.804167	None	None	None	2598.439158	2599.809446													119	1	19	1	2020_Mar_04_1159	Test	3.2.4	59.8432442		
Pictures/IA100_G20.bmp	Pictures/IA100_G20.bmp	Pictures/IA100.bmp	"Go ahead and gamble!"""""	1	risk					4	0	4	0	0	12	12	8																															2599.826146	None	2601.848144	2603.368815	2603.352117	None	2604.906205	None	1	0.466841261	2606.878063	None	2606.878063	None	2606.878063	None	2607.429527	None	2607.429527	2608.432164	2609.535077	None	2609.535077	None	None		2609.535077	None	None	None	None	None													119	1	19	1	2020_Mar_04_1159	Test	3.2.4	59.8432442		
Pictures/IA80_40_G95p.bmp	Pictures/IA80_40_G95p.bmp	Pictures/IA80.bmp	"Think of the payoff"	1	risk					4	0	4	0	0	13	13	7																															2611.540355	None	2613.562351	2615.083024	2615.066311	None	2616.57028	None	1	0.512637506	2618.592265	None	2618.592265	None	2618.592265	None	2619.227268	None	2619.227268	2620.22991	2621.332818	None	2621.332818	None	right	1.092082878	2621.332818	None	None	None	2622.46915	None													119	1	19	1	2020_Mar_04_1159	Test	3.2.4	59.8432442		
Pictures/IA75_G60.bmp	Pictures/IA75_G60.bmp	Pictures/IA75.bmp	"Make it exciting"	1	risk					4	0	4	0	0	14	14	1																															2623.354807	None	2625.376803	2626.897474	2626.880777	None	2628.484989	None	1	0.610152781	2630.406755	None	2630.406755	None	2630.406755	None	2631.142006	None	2631.142006	2632.144644	2633.247556	None	2633.247556	None	right	0.313331776	2633.247556	None	None	None	2633.598479	2635.236143													119	1	19	1	2020_Mar_04_1159	Test	3.2.4	59.8432442		
Pictures/IA25_L15.bmp	Pictures/IA25_L15.bmp	Pictures/IA25.bmp	"There's not much on the line here"	1	risk					4	0	4	0	0	15	15	16																															2635.252835	None	2637.274831	2638.795502	2638.778794	None	2640.332894	None	1	1.408155635	2642.304752	None	2642.304752	None	2642.304752	None	2643.858848	None	2643.858848	2644.861483	2645.964397	None	2645.964397	None	right	0.940512866	2645.964397	None	None	None	2646.950323	None													119	1	19	1	2020_Mar_04_1159	Test	3.2.4	59.8432442		
Pictures/IA100_L60.bmp	Pictures/IA100_L60.bmp	Pictures/IA100.bmp	"You'd have a lot to lose"	0	safe					4	0	4	0	0	16	16	19																															2647.969663	None	2649.99166	2651.512333	2651.495636	None	2653.04972	None	1	0.571325366	2655.021581	None	2655.021581	None	2655.021581	None	2655.740141	None	2655.740141	2656.742781	2657.845692	None	2657.845692	None	right	1.539210109	2657.845692	None	None	None	2659.433204	None													119	1	19	1	2020_Mar_04_1159	Test	3.2.4	59.8432442		
Pictures/IA50_G40.bmp	Pictures/IA50_G40.bmp	Pictures/IA50.bmp	"It would probably be best to play it safe."""""	0	safe					4	0	4	0	0	17	17	11																															2659.850981	None	2661.87298	2663.393648	2663.376957	None	2664.897611	None	1	0.626024378	2666.902898	None	2666.902898	None	2666.902898	None	2667.671579	None	2667.671579	2668.674219	2669.793841	None	2669.793841	None	right	0.423068271	2669.793841	None	None	None	2670.261746	2671.799131													119	1	19	1	2020_Mar_04_1159	Test	3.2.4	59.8432442		
Pictures/IA100_G60.bmp	Pictures/IA100_G60.bmp	Pictures/IA100.bmp	"Be cautious"	0	safe					4	0	4	0	0	18	18	15																															2671.815828	None	2673.837824	2675.3585	2675.3418	None	2676.895886	None	1	0.541160591	2678.867748	None	2678.867748	None	2678.867748	None	2679.536175	None	2679.536175	2680.538811	2681.641724	None	2681.641724	None	left	0.271187667	2681.641724	None	2681.959223	2683.63029	None	None													119	1	19	1	2020_Mar_04_1159	Test	3.2.4	59.8432442		
Pictures/IA25_L20.bmp	Pictures/IA25_L20.bmp	Pictures/IA25.bmp	"Don't be tempted to gamble."""""	0	safe					4	0	4	0	0	19	19	4																															2683.647012	None	2685.669007	2687.18968	2687.172963	None	2688.676936	None	1	0.653988159	2690.698922	None	2690.698922	None	2690.698922	None	2691.467623	None	2691.467623	2692.470261	2693.573172	None	2693.573172	None	left	0.491722468	2693.573172	None	2694.107903	2695.578441	None	None													119	1	19	1	2020_Mar_04_1159	Test	3.2.4	59.8432442		
										4	0	4	0																																																																									2695.762273	None	return	6.718630016	2695.762273	None	119	1	19	1	2020_Mar_04_1159	Test	3.2.4	59.8432442		
Pictures/IA75_G30.bmp	Pictures/IA75_G30.bmp	Pictures/IA75.bmp	"Be bold"	1	risk					5	0	5	0	0	0	0	14													2702.647081	None	2702.647081	None	2702.647081	None	left	0.849806343	2702.647081	None	2702.647081	None	2702.647081	None	return	1.697597725	2702.647081	None	2704.401689	None	2706.406997	2707.927657	2707.910937	None	2709.44832	None	2	0.492741553	2711.420185	None	2711.420185	None	2711.420185	None	None	None	None	None	2712.071912	None	2712.071912	None	left	0.880989247	2712.071912	None	2712.990997	2714.060483	None	None													119	1	19	1	2020_Mar_04_1159	Test	3.2.4	59.8432442		
Pictures/IA25_G10.bmp	Pictures/IA25_G10.bmp	Pictures/IA25.bmp	"What's life without a little risk?"""""	1	risk					5	0	5	0	0	1	1	4																															2714.077186	None	2716.099181	2717.619849	2717.603153	None	2719.140525	None	2	0.767791581	2721.12911	None	2721.12911	None	2721.12911	None	None	None	None	None	2722.064899	None	2722.064899	None	left	1.344000302	2722.064899	None	2723.451883	None	None	None													119	1	19	1	2020_Mar_04_1159	Test	3.2.4	59.8432442		
Pictures/IA100_G80.bmp	Pictures/IA100_G80.bmp	Pictures/IA100.bmp	"Why not gamble?"""""	1	risk					5	0	5	0	0	2	2	3																															2724.070191	None	2726.092185	2727.596162	2727.579394	None	2729.116815	None	2	0.598806411	2731.1221	None	2731.1221	None	2731.1221	None	None	None	None	None	2731.890801	None	2731.890801	None	right	1.614092599	2731.890801	None	None	None	2733.545159	None													119	1	19	1	2020_Mar_04_1159	Test	3.2.4	59.8432442		
Pictures/IA80_40_G95p.bmp	Pictures/IA80_40_G95p.bmp	Pictures/IA80.bmp	"Think of the payoff"	1	risk					5	0	5	0	0	3	3	15																															2733.896071	None	2735.918062	2737.438737	2737.422041	None	2738.959411	None	2	0.772913494	2740.947997	None	2740.947997	None	2740.947997	None	None	None	None	None	2741.933897	None	2741.933897	None	left	1.050999001	2741.933897	None	2743.02012	None	None	None													119	1	19	1	2020_Mar_04_1159	Test	3.2.4	59.8432442		
Pictures/IA75_L15.bmp	Pictures/IA75_L15.bmp	Pictures/IA75.bmp	"Trust me–gamble!"""""	1	risk					5	0	5	0	0	4	4	1																															2743.939209	None	2745.961203	2747.481875	2747.465154	None	2749.019255	None	2	0.417776194	2750.991127	None	2750.991127	None	2750.991127	None	None	None	None	None	2751.55929	None	2751.55929	None	right	1.14560347	2751.55929	None	None	None	2752.745745	None													119	1	19	1	2020_Mar_04_1159	Test	3.2.4	59.8432442		
Pictures/IA25_L10.bmp	Pictures/IA25_L10.bmp	Pictures/IA25.bmp	"Dont be afraid to take the risk!"""""	1	risk					5	0	5	0	0	5	5	5																															2753.564558	None	2755.586556	2757.107226	2757.090534	None	2758.59448	None	2	0.488426901	2760.616489	None	2760.616489	None	2760.616489	None	None	None	None	None	2761.318326	None	2761.318326	None	right	0.83457167	2761.318326	None	None	None	2762.187289	2763.306897													119	1	19	1	2020_Mar_04_1159	Test	3.2.4	59.8432442		
Pictures/IA50_L20.bmp	Pictures/IA50_L20.bmp	Pictures/IA50.bmp	"Certainty is boring"	1	risk					5	0	5	0	0	6	6	8																															2763.323617	None	2765.345611	2766.866284	2766.849566	None	2768.370214	None	2	0.049374426	2770.375533	None	2770.375533	None	2770.375533	None	None	None	None	None	2770.592777	None	2770.592777	None	right	0.84812294	2770.592777	None	None	None	2771.478437	2772.581332													119	1	19	1	2020_Mar_04_1159	Test	3.2.4	59.8432442		
Pictures/IA25_L5.bmp	Pictures/IA25_L5.bmp	Pictures/IA25.bmp	"It would be smarter to choose the safe option."""""	0	safe					5	0	5	0	0	7	7	6																															2772.598055	None	2774.620053	2776.140723	2776.124007	None	2777.627979	None	2	0.214943615	2779.649961	None	2779.649961	None	2779.649961	None	None	None	None	None	2780.0343	None	2780.0343	None	right	0.654603344	2780.0343	None	None	None	2780.736163	2782.022873													119	1	19	1	2020_Mar_04_1159	Test	3.2.4	59.8432442		
Pictures/IA75_L30.bmp	Pictures/IA75_L30.bmp	Pictures/IA75.bmp	"Hold back"	0	safe					5	0	5	0	0	8	8	17																															2782.039597	None	2784.061594	2785.582265	2785.565548	None	2787.086231	None	2	1.381392388	2789.091516	None	2789.091516	None	2789.091516	None	None	None	None	None	2790.645609	None	2790.645609	None	left	1.23529758	2790.645609	None	2791.915618	None	None	None													119	1	19	1	2020_Mar_04_1159	Test	3.2.4	59.8432442		
Pictures/IA100_L20.bmp	Pictures/IA100_L20.bmp	Pictures/IA100.bmp	"Try to win as much money as you can"	1	risk					5	0	5	0	0	9	9	0																															2792.650889	None	2794.672887	2796.17684	2796.160138	None	2797.730944	None	2	0.706093911	2799.702809	None	2799.702809	None	2799.702809	None	None	None	None	None	2800.605187	None	2800.605187	None	None		2800.605187	None	None	None	None	None													119	1	19	1	2020_Mar_04_1159	Test	3.2.4	59.8432442		
Pictures/IA25_G20.bmp	Pictures/IA25_G20.bmp	Pictures/IA25.bmp	"I wouldn't gamble for this one. """""	0	safe					5	0	5	0	0	10	10	7																															2802.610463	None	2804.63245	2806.153137	2806.136428	None	2807.723928	None	1	1.20252305	2809.662373	None	2809.662373	None	2809.662373	None	2810.982527	None	2810.982527	2811.985168	2813.088076	None	2813.088076	None	left	1.44081895	2813.088076	None	2814.575324	None	None	None													119	1	19	1	2020_Mar_04_1159	Test	3.2.4	59.8432442		
Pictures/IA110_55_L95p.bmp	Pictures/IA110_55_L95p.bmp	Pictures/IA110.bmp	"Trust me"	1	risk					5	0	5	0	0	11	11	16																															2815.093355	None	2817.148772	2818.652723	2818.636027	None	2820.173416	None	2	1.063634803	2822.145273	None	2822.145273	None	2822.145273	None	None	None	None	None	2823.365145	None	2823.365145	None	right	0.419757742	2823.365145	None	None	None	2823.83305	2825.370432													119	1	19	1	2020_Mar_04_1159	Test	3.2.4	59.8432442		
Pictures/IA50_G30.bmp	Pictures/IA50_G30.bmp	Pictures/IA50.bmp	"I think you should gamble."""""	1	risk					5	0	5	0	0	12	12	12																															2825.387137	None	2827.40913	2828.929802	2828.913111	None	2830.483897	None	2	1.6418412	2832.439065	None	2832.439065	None	2832.439065	None	None	None	None	None	2834.243821	None	2834.243821	None	left	0.621079542	2834.243821	None	2834.912233	2836.249088	None	None													119	1	19	1	2020_Mar_04_1159	Test	3.2.4	59.8432442		
Pictures/IA100_L60.bmp	Pictures/IA100_L60.bmp	Pictures/IA100.bmp	"You'd have a lot to lose"	0	safe					5	0	5	0	0	13	13	18																															2836.265808	None	2838.287805	2839.808475	2839.791759	None	2841.312458	None	2	1.539183071	2843.317726	None	2843.317726	None	2843.317726	None	None	None	None	None	2845.03893	None	2845.03893	None	left	1.401960756	2845.03893	None	2846.476033	None	None	None													119	1	19	1	2020_Mar_04_1159	Test	3.2.4	59.8432442		
Pictures/IA100_G40.bmp	Pictures/IA100_G40.bmp	Pictures/IA100.bmp	"Try your luck and gamble!"""""	1	risk					5	0	5	0	0	14	14	13																															2847.060907	None	2849.082902	2850.603575	2850.586885	None	2852.124257	None	1	1.472058906	2854.112841	None	2854.112841	None	2854.112841	None	2855.700356	None	2855.700356	2856.702988	2857.822611	None	2857.822611	None	right	0.506289897	2857.822611	None	None	None	2858.374062	2859.811169													119	1	19	1	2020_Mar_04_1159	Test	3.2.4	59.8432442		
Pictures/IA25_L15.bmp	Pictures/IA25_L15.bmp	Pictures/IA25.bmp	"There's not much on the line here"	1	risk					5	0	5	0	0	15	15	19																															2859.827891	None	2861.849884	2863.370558	2863.353842	None	2864.857815	None	2	1.60110513	2866.879798	None	2866.879798	None	2866.879798	None	None	None	None	None	2868.667813	None	2868.667813	None	right	0.581087929	2868.667813	None	None	None	2869.286145	2870.656411													119	1	19	1	2020_Mar_04_1159	Test	3.2.4	59.8432442		
Pictures/IA50_G10.bmp	Pictures/IA50_G10.bmp	Pictures/IA50.bmp	"Go with the safe option here!"""""	0	safe					5	0	5	0	0	16	16	9																															2870.673134	None	2872.69513	2874.215799	2874.199098	None	2875.719754	None	2	0.915857215	2877.725041	None	2877.725041	None	2877.725041	None	None	None	None	None	2878.811241	None	2878.811241	None	left	0.557666859	2878.811241	None	2879.412827	2880.816526	None	None													119	1	19	1	2020_Mar_04_1159	Test	3.2.4	59.8432442		
Pictures/IA40_20_G95p.bmp	Pictures/IA40_20_G95p.bmp	Pictures/IA40.bmp	"Hold back"	0	safe					5	0	5	0	0	17	17	2																															2880.833225	None	2882.85522	2884.375895	2884.359196	None	2885.89657	None	2	0.875745314	2887.885157	None	2887.885157	None	2887.885157	None	None	None	None	None	2888.954641	None	2888.954641	None	left	0.582271425	2888.954641	None	2889.572932	2890.943201	None	None													119	1	19	1	2020_Mar_04_1159	Test	3.2.4	59.8432442		
Pictures/IA75_G45.bmp	Pictures/IA75_G45.bmp	Pictures/IA75.bmp	"Don't gamble for this one."""""	0	safe					5	0	5	0	0	18	18	11																															2890.959919	None	2892.981915	2894.502586	2894.485869	None	2896.039972	None	2	1.109061277	2898.011842	None	2898.011842	None	2898.011842	None	None	None	None	None	2899.281855	None	2899.281855	None	right	0.407045732	2899.281855	None	None	None	2899.733039	2901.270422													119	1	19	1	2020_Mar_04_1159	Test	3.2.4	59.8432442		
Pictures/IA75_G60.bmp	Pictures/IA75_G60.bmp	Pictures/IA75.bmp	"Make it exciting"	1	risk					5	0	5	0	0	19	19	10																															2901.287124	None	2903.309115	2904.829787	2904.813091	None	2906.317041	None	2	2.045853348	2908.33905	None	2908.33905	None	2908.33905	None	None	None	None	None	2910.56157	None	2910.56157	None	left	0.327330627	2910.56157	None	2910.929192	2912.550142	None	None													119	1	19	1	2020_Mar_04_1159	Test	3.2.4	59.8432442		
										5	0	5	0																																																																									2912.71724	None	return	12.45965085	2912.71724	None	119	1	19	1	2020_Mar_04_1159	Test	3.2.4	59.8432442		
Pictures/IA40_20_G95p.bmp	Pictures/IA40_20_G95p.bmp	Pictures/IA40.bmp	"Hold back"	0	safe					6	0	6	0	0	0	0	8													2925.33383	None	2925.33383	None	2925.33383	None	left	0.979067099	2925.33383	None	2925.33383	None	2925.33383	None	return	1.738928519	2925.33383	None	2927.121843	None	2929.143867	2930.664536	2930.64782	None	2932.135068	None	1	0.267821029	2934.157077	None	2934.157077	None	2934.157077	None	2934.574842	None	2934.574842	2935.577481	2936.680391	None	2936.680391	None	left	0.336505555	2936.680391	None	2937.064732	2938.685657	None	None													119	1	19	1	2020_Mar_04_1159	Test	3.2.4	59.8432442		
Pictures/IA80_40_G95p.bmp	Pictures/IA80_40_G95p.bmp	Pictures/IA80.bmp	"Think of the payoff"	1	risk					6	0	6	0	0	1	1	14																															2938.702379	None	2940.724375	2942.245048	2942.228333	None	2943.732303	None	1	0.310611419	2945.754288	None	2945.754288	None	2945.754288	None	2946.188766	None	2946.188766	2947.191402	2948.294317	None	2948.294317	None	left	1.330587008	2948.294317	None	2949.664597	None	None	None													119	1	19	1	2020_Mar_04_1159	Test	3.2.4	59.8432442		
Pictures/IA110_55_L95p.bmp	Pictures/IA110_55_L95p.bmp	Pictures/IA110.bmp	"Trust me"	1	risk					6	0	6	0	0	2	2	9																															2950.316316	None	2952.338309	2953.858983	2953.842268	None	2955.346242	None	1	0.63267672	2957.368221	None	2957.368221	None	2957.368221	None	2958.086796	None	2958.086796	2959.089429	2960.192342	None	2960.192342	None	right	0.30455527	2960.192342	None	None	None	2960.54326	2962.180908													119	1	19	1	2020_Mar_04_1159	Test	3.2.4	59.8432442		
Pictures/IA25_G5.bmp	Pictures/IA25_G5.bmp	Pictures/IA25.bmp	"Let's stay with the certain option."""""	0	safe					6	0	6	0	0	3	3	2																															2962.197605	None	2964.219615	2965.740277	2965.723586	None	2967.277662	None	1	1.039379041	2969.249529	None	2969.249529	None	2969.249529	None	2970.419276	None	2970.419276	2971.421915	2972.558247	None	2972.558247	None	left	0.370650605	2972.558247	None	2972.976012	2974.546824	None	None													119	1	19	1	2020_Mar_04_1159	Test	3.2.4	59.8432442		
Pictures/IA100_G40.bmp	Pictures/IA100_G40.bmp	Pictures/IA100.bmp	"Try your luck and gamble!"""""	1	risk					6	0	6	0	0	4	4	10																															2974.563526	None	2976.585521	2978.106195	2978.089499	None	2979.593447	None	1	0.529437898	2981.615458	None	2981.615458	None	2981.615458	None	2982.250454	None	2982.250454	2983.253088	2984.355998	None	2984.355998	None	right	0.868928875	2984.355998	None	None	None	2985.258383	2986.36128													119	1	19	1	2020_Mar_04_1159	Test	3.2.4	59.8432442		
Pictures/IA50_L30.bmp	Pictures/IA50_L30.bmp	Pictures/IA50.bmp	"Take a leap"	1	risk					6	0	6	0	0	5	5	17																															2986.378	None	2988.399995	2989.920667	2989.90395	None	2991.424603	None	1	0.795000259	2993.429917	None	2993.429917	None	2993.429917	None	2994.36571	None	2994.36571	2995.368342	2996.471254	None	2996.471254	None	right	0.465640102	2996.471254	None	None	None	2996.972581	2998.476543													119	1	19	1	2020_Mar_04_1159	Test	3.2.4	59.8432442		
Pictures/IA80_40_L95p.bmp	Pictures/IA80_40_L95p.bmp	Pictures/IA80.bmp	"Let's stay with the certain option."""""	0	safe					6	0	6	0	0	6	6	19																															2998.493244	None	3000.515241	3002.035911	3002.019215	None	3003.5733	None	1	0.503742882	3005.545163	None	3005.545163	None	3005.545163	None	3006.196878	None	3006.196878	3007.199516	3008.302427	None	3008.302427	None	right	0.786464856	3008.302427	None	None	None	3009.13797	3010.307706													119	1	19	1	2020_Mar_04_1159	Test	3.2.4	59.8432442		
Pictures/IA75_G45.bmp	Pictures/IA75_G45.bmp	Pictures/IA75.bmp	"Don't gamble for this one."""""	0	safe					6	0	6	0	0	7	7	3																															3010.324428	None	3012.346423	3013.867094	3013.850377	None	3015.354351	None	1	0.832590975	3017.376336	None	3017.376336	None	3017.376336	None	3018.312144	None	3018.312144	3019.314781	3020.434404	None	3020.434404	None	left	0.382491542	3020.434404	None	3020.852169	3022.422962	None	None													119	1	19	1	2020_Mar_04_1159	Test	3.2.4	59.8432442		
Pictures/IA50_L40.bmp	Pictures/IA50_L40.bmp	Pictures/IA50.bmp	"That gamble doesn't sound too good"	0	safe					6	0	6	0	0	8	8	1																															3022.439682	None	3024.461681	3025.98235	3025.965633	None	3027.536488	None	1	0.557312975	3029.491594	None	3029.491594	None	3029.491594	None	3030.210174	None	3030.210174	3031.212809	3032.31571	None	3032.31571	None	left	0.397181589	3032.31571	None	3032.750173	3034.320989	None	None													119	1	19	1	2020_Mar_04_1159	Test	3.2.4	59.8432442		
Pictures/IA75_L45.bmp	Pictures/IA75_L45.bmp	Pictures/IA75.bmp	"Don't gamble for this one"	0	safe					6	0	6	0	0	9	9	6																															3034.33769	None	3036.359685	3037.880359	3037.863661	None	3039.401031	None	1	0.587284419	3041.389622	None	3041.389622	None	3041.389622	None	3042.124876	None	3042.124876	3043.127515	3044.230426	None	3044.230426	None	left	0.434457273	3044.230426	None	3044.698332	3046.235719	None	None													119	1	19	1	2020_Mar_04_1159	Test	3.2.4	59.8432442		
Pictures/IA75_L15.bmp	Pictures/IA75_L15.bmp	Pictures/IA75.bmp	"Trust me–gamble!"""""	1	risk					6	0	6	0	0	10	10	13																															3046.252415	None	3048.274419	3049.795082	3049.778393	None	3051.315759	None	1	1.008566467	3053.304345	None	3053.304345	None	3053.304345	None	3054.407252	None	3054.407252	3055.409888	3056.546222	None	3056.546222	None	right	0.350672502	3056.546222	None	None	None	3056.930563	3058.534788													119	1	19	1	2020_Mar_04_1159	Test	3.2.4	59.8432442		
Pictures/IA75_L30.bmp	Pictures/IA75_L30.bmp	Pictures/IA75.bmp	"Hold back"	0	safe					6	0	6	0	0	11	11	0																															3058.551487	None	3060.573483	3062.094157	3062.07746	None	3063.581413	None	1	0.605501843	3065.603417	None	3065.603417	None	3065.603417	None	3066.355397	None	3066.355397	3067.358036	3068.460948	None	3068.460948	None	left	1.875944383	3068.460948	None	3070.382672	None	None	None													119	1	19	1	2020_Mar_04_1159	Test	3.2.4	59.8432442		
Pictures/IA75_G30.bmp	Pictures/IA75_G30.bmp	Pictures/IA75.bmp	"Be bold"	1	risk					6	0	6	0	0	12	12	5																															3070.466216	None	3072.48821	3074.008882	3073.992191	None	3075.529558	None	1	0.882765962	3077.518144	None	3077.518144	None	3077.518144	None	3078.504074	None	3078.504074	3079.506712	3080.609624	None	3080.609624	None	right	0.7752711	3080.609624	None	None	None	3081.428446	3082.614902													119	1	19	1	2020_Mar_04_1159	Test	3.2.4	59.8432442		
Pictures/IA25_L20.bmp	Pictures/IA25_L20.bmp	Pictures/IA25.bmp	"Don't be tempted to gamble."""""	0	safe					6	0	6	0	0	13	13	18																															3082.631608	None	3084.653598	3086.174271	3086.157577	None	3087.795212	None	1	0.485377587	3089.683534	None	3089.683534	None	3089.683534	None	3090.285106	None	3090.285106	3091.287789	3092.407375	None	3092.407375	None	left	0.569525309	3092.407375	None	3093.025669	3094.395933	None	None													119	1	19	1	2020_Mar_04_1159	Test	3.2.4	59.8432442		
Pictures/IA25_G15.bmp	Pictures/IA25_G15.bmp	Pictures/IA25.bmp	"I think you should take a gamble."""""	1	risk					6	0	6	0	0	14	14	12																															3094.412656	None	3096.434651	3097.955286	3097.93861	None	3099.492709	None	1	1.0403281	3101.464574	None	3101.464574	None	3101.464574	None	3102.634321	None	3102.634321	3103.63696	3104.73987	None	3104.73987	None	right	0.293025826	3104.73987	None	None	None	3105.074074	3106.745138													119	1	19	1	2020_Mar_04_1159	Test	3.2.4	59.8432442		
Pictures/IA100_G80.bmp	Pictures/IA100_G80.bmp	Pictures/IA100.bmp	"Why not gamble?"""""	1	risk					6	0	6	0	0	15	15	4																															3106.76186	None	3108.783859	3110.304526	3110.287812	None	3111.825209	None	1	0.52314043	3113.813768	None	3113.813768	None	3113.813768	None	3114.432072	None	3114.432072	3115.43471	3116.537625	None	3116.537625	None	right	0.44726816	3116.537625	None	None	None	3117.022228	3118.526193													119	1	19	1	2020_Mar_04_1159	Test	3.2.4	59.8432442		
Pictures/IA50_G10.bmp	Pictures/IA50_G10.bmp	Pictures/IA50.bmp	"Go with the safe option here!"""""	0	safe					6	0	6	0	0	16	16	16																															3118.542895	None	3120.564886	3122.085559	3122.068863	None	3123.572808	None	1	2.25408271	3125.594821	None	3125.594821	None	3125.594821	None	3127.967739	None	3127.967739	3128.970375	3130.10671	None	3130.10671	None	left	0.542186417	3130.10671	None	3130.69158	3132.095266	None	None													119	1	19	1	2020_Mar_04_1159	Test	3.2.4	59.8432442		
Pictures/IA75_G15.bmp	Pictures/IA75_G15.bmp	Pictures/IA75.bmp	"Take a chance!"""""	1	risk					6	0	6	0	0	17	17	11																															3132.111992	None	3134.133984	3135.654655	3135.637937	None	3137.20876	None	1	0.652997868	3139.163902	None	3139.163902	None	3139.163902	None	3139.915889	None	3139.915889	3140.918517	3142.021624	None	3142.021624	None	right	0.499260414	3142.021624	None	None	None	3142.556174	3144.026717													119	1	19	1	2020_Mar_04_1159	Test	3.2.4	59.8432442		
Pictures/IA25_L10.bmp	Pictures/IA25_L10.bmp	Pictures/IA25.bmp	"Dont be afraid to take the risk!"""""	1	risk					6	0	6	0	0	18	18	7																															3144.043418	None	3146.06541	3147.586084	3147.56942	None	3149.090049	None	1	0.817578691	3151.095332	None	3151.095332	None	3151.095332	None	3152.031136	None	3152.031136	3153.033768	3154.170101	None	3154.170101	None	right	0.678793009	3154.170101	None	None	None	3154.888658	3156.158671													119	1	19	1	2020_Mar_04_1159	Test	3.2.4	59.8432442		
Pictures/IA25_L5.bmp	Pictures/IA25_L5.bmp	Pictures/IA25.bmp	"It would be smarter to choose the safe option."""""	0	safe					6	0	6	0	0	19	19	15																															3156.175391	None	3158.197389	3159.71806	3159.701342	None	3161.221987	None	1	0.821590874	3163.227313	None	3163.227313	None	3163.227313	None	3164.196518	None	3164.196518	3165.199159	3166.335488	None	3166.335488	None	left	1.80140607	3166.335488	None	3167.154319	3168.324067	3167.187742	3168.223805													119	1	19	1	2020_Mar_04_1159	Test	3.2.4	59.8432442		
										6	0	6	0																																																																									3168.491169	None	return	3.909711646	3168.491169	None	119	1	19	1	2020_Mar_04_1159	Test	3.2.4	59.8432442		
Pictures/IA25_G20.bmp	Pictures/IA25_G20.bmp	Pictures/IA25.bmp	"I wouldn't gamble for this one. """""	0	safe					7	0	7	0	0	0	0	4													3172.551887	None	3172.551887	None	3172.551887	None	left	1.033006071	3172.551887	None	3172.551887	None	3172.551887	None	return	2.17681779	3172.551887	None	3174.791113	None	3176.796383	3178.317056	3178.300359	None	3179.82103	None	1	0.455312432	3181.809595	None	3181.809595	None	3181.809595	None	3182.394478	None	3182.394478	3183.397115	3184.500027	None	3184.500027	None	right	1.364865106	3184.500027	None	None	None	3185.90371	None													119	1	19	1	2020_Mar_04_1159	Test	3.2.4	59.8432442		
Pictures/IA20_10_L95p.bmp	Pictures/IA20_10_L95p.bmp	Pictures/IA20.bmp	"Don't be tempted to gamble."""""	0	safe					7	0	7	0	0	1	1	2																															3186.522017	None	3188.560725	3190.064675	3190.047979	None	3191.602061	None	1	0.394970771	3193.573924	None	3193.573924	None	3193.573924	None	3194.075262	None	3194.075262	3195.077895	3196.180803	None	3196.180803	None	left	0.228086024	3196.180803	None	3196.448161	3198.186068	None	None													119	1	19	1	2020_Mar_04_1159	Test	3.2.4	59.8432442		
Pictures/IA110_55_L95p.bmp	Pictures/IA110_55_L95p.bmp	Pictures/IA110.bmp	"Trust me"	1	risk					7	0	7	0	0	2	2	12																															3198.202796	None	3200.224797	3201.745462	3201.728745	None	3203.249426	None	1	0.514190602	3205.254712	None	3205.254712	None	3205.254712	None	3205.873018	None	3205.873018	3206.875644	3207.978559	None	3207.978559	None	right	0.398334923	3207.978559	None	None	None	3208.413021	3209.983835													119	1	19	1	2020_Mar_04_1159	Test	3.2.4	59.8432442		
Pictures/IA100_G60.bmp	Pictures/IA100_G60.bmp	Pictures/IA100.bmp	"Be cautious"	0	safe					7	0	7	0	0	3	3	11																															3210.000534	None	3212.022531	3213.543213	3213.526502	None	3215.047181	None	1	1.604428857	3217.052465	None	3217.052465	None	3217.052465	None	3218.807088	None	3218.807088	3219.809723	3220.912636	None	3220.912636	None	left	1.872261209	3220.912636	None	3222.834371	None	None	None													119	1	19	1	2020_Mar_04_1159	Test	3.2.4	59.8432442		
Pictures/IA25_G10.bmp	Pictures/IA25_G10.bmp	Pictures/IA25.bmp	"What's life without a little risk?"""""	1	risk					7	0	7	0	0	4	4	6																															3222.917904	None	3224.939901	3226.460571	3226.443877	None	3227.981271	None	1	0.127067656	3229.969834	None	3229.969834	None	3229.969834	None	3230.220486	None	3230.220486	3231.223121	3232.359454	None	3232.359454	None	right	0.513439224	3232.359454	None	None	None	3232.910901	3234.348031													119	1	19	1	2020_Mar_04_1159	Test	3.2.4	59.8432442		
Pictures/IA100_G40.bmp	Pictures/IA100_G40.bmp	Pictures/IA100.bmp	"Try your luck and gamble!"""""	1	risk					7	0	7	0	0	5	5	0																															3234.364736	None	3236.386729	3237.907399	3237.89071	None	3239.411366	None	1	0.560255929	3241.416649	None	3241.416649	None	3241.416649	None	3242.085089	None	3242.085089	3243.087723	3244.190637	None	3244.190637	None	right	1.002259127	3244.190637	None	None	None	3245.226694	None													119	1	19	1	2020_Mar_04_1159	Test	3.2.4	59.8432442		
Pictures/IA75_G15.bmp	Pictures/IA75_G15.bmp	Pictures/IA75.bmp	"Take a chance!"""""	1	risk					7	0	7	0	0	6	6	8																															3246.212625	None	3248.234613	3249.755284	3249.738588	None	3251.242541	None	1	0.55236085	3253.264548	None	3253.264548	None	3253.264548	None	3253.916252	None	3253.916252	3254.918892	3256.021801	None	3256.021801	None	left	0.883081028	3256.021801	None	3256.940884	3258.010363	None	None													119	1	19	1	2020_Mar_04_1159	Test	3.2.4	59.8432442		
Pictures/IA75_L30.bmp	Pictures/IA75_L30.bmp	Pictures/IA75.bmp	"Hold back"	0	safe					7	0	7	0	0	7	7	19																															3258.027086	None	3260.04908	3261.569756	3261.553037	None	3263.07373	None	1	0.48189354	3265.079009	None	3265.079009	None	3265.079009	None	3265.697308	None	3265.697308	3266.699944	3267.852987	None	3267.852987	None	left	0.075906022	3267.852987	None	3267.969954	3269.841553	None	None													119	1	19	1	2020_Mar_04_1159	Test	3.2.4	59.8432442		
Pictures/IA50_L10.bmp	Pictures/IA50_L10.bmp	Pictures/IA50.bmp	"Play it safe"	0	safe					7	0	7	0	0	8	8	7																															3269.858251	None	3271.880248	3273.400919	3273.384223	None	3274.955016	None	1	0.510464796	3277.010448	None	3277.010448	None	3277.010448	None	3277.62874	None	3277.62874	3278.63138	3279.734294	None	3279.734294	None	left	1.402607146	3279.734294	None	3281.171405	None	None	None													119	1	19	1	2020_Mar_04_1159	Test	3.2.4	59.8432442		
Pictures/IA100_L20.bmp	Pictures/IA100_L20.bmp	Pictures/IA100.bmp	"Try to win as much money as you can"	1	risk					7	0	7	0	0	9	9	17																															3281.739557	None	3283.761556	3285.282225	3285.26553	None	3286.802905	None	1	0.753422408	3288.791487	None	3288.791487	None	3288.791487	None	3289.693853	None	3289.693853	3290.696489	3291.799402	None	3291.799402	None	right	0.337491055	3291.799402	None	None	None	3292.183743	3293.787968													119	1	19	1	2020_Mar_04_1159	Test	3.2.4	59.8432442		
Pictures/IA25_L15.bmp	Pictures/IA25_L15.bmp	Pictures/IA25.bmp	"There's not much on the line here"	1	risk					7	0	7	0	0	10	10	15																															3293.804693	None	3295.826687	3297.347359	3297.330638	None	3298.851322	None	1	1.072297697	3300.85661	None	3300.85661	None	3300.85661	None	3302.076489	None	3302.076489	3303.07913	3304.182038	None	3304.182038	None	right	1.162858034	3304.182038	None	None	None	3305.385199	None													119	1	19	1	2020_Mar_04_1159	Test	3.2.4	59.8432442		
Pictures/IA20_10_G95p.bmp	Pictures/IA20_10_G95p.bmp	Pictures/IA20.bmp	"Take a leap"	1	risk					7	0	7	0	0	11	11	9																															3306.204043	None	3308.226026	3309.746696	3309.729979	None	3311.284081	None	1	0.376954499	3313.255947	None	3313.255947	None	3313.255947	None	3313.773983	None	3313.773983	3314.776616	3315.879527	None	3315.879527	None	left	0.441366528	3315.879527	None	3316.364133	3317.868083	None	None													119	1	19	1	2020_Mar_04_1159	Test	3.2.4	59.8432442		
Pictures/IA50_G40.bmp	Pictures/IA50_G40.bmp	Pictures/IA50.bmp	"It would probably be best to play it safe."""""	0	safe					7	0	7	0	0	12	12	10																															3317.884805	None	3319.906805	3321.427474	3321.410756	None	3322.948161	None	1	0.464193335	3324.936712	None	3324.936712	None	3324.936712	None	3325.538309	None	3325.538309	3326.540945	3327.643858	None	3327.643858	None	left	0.445029498	3327.643858	None	3328.128461	3329.632414	None	None													119	1	19	1	2020_Mar_04_1159	Test	3.2.4	59.8432442		
Pictures/IA50_L40.bmp	Pictures/IA50_L40.bmp	Pictures/IA50.bmp	"That gamble doesn't sound too good"	0	safe					7	0	7	0	0	13	13	18																															3329.649136	None	3331.671131	3333.191805	3333.175087	None	3334.712483	None	1	0.459859818	3336.701045	None	3336.701045	None	3336.701045	None	3337.319351	None	3337.319351	3338.321988	3339.424912	None	3339.424912	None	right	0.823965545	3339.424912	None	None	None	3340.293841	3341.430167													119	1	19	1	2020_Mar_04_1159	Test	3.2.4	59.8432442		
Pictures/IA40_20_G95p.bmp	Pictures/IA40_20_G95p.bmp	Pictures/IA40.bmp	"Hold back"	0	safe					7	0	7	0	0	14	14	1																															3341.446888	None	3343.468884	3344.989556	3344.972837	None	3346.493548	None	1	0.51811003	3348.498808	None	3348.498808	None	3348.498808	None	3349.150547	None	3349.150547	3350.153215	3351.289529	None	3351.289529	None	left	0.407393642	3351.289529	None	3351.740718	3353.278052	None	None													119	1	19	1	2020_Mar_04_1159	Test	3.2.4	59.8432442		
Pictures/IA100_L60.bmp	Pictures/IA100_L60.bmp	Pictures/IA100.bmp	"You'd have a lot to lose"	0	safe					7	0	7	0	0	15	15	14																															3353.294778	None	3355.333506	3356.892046	3356.808631	None	3359.076681	None	1	0.622162055	3360.346739	None	3360.346739	None	3360.346739	None	3361.334365	None	3361.334365	3362.336917	3363.774335	None	3363.774335	None	right	1.170564264	3363.774335	None	None	None	3364.992926	None													119	1	19	1	2020_Mar_04_1159	Test	3.2.4	59.8432442		
Pictures/IA50_L20.bmp	Pictures/IA50_L20.bmp	Pictures/IA50.bmp	"Certainty is boring"	1	risk					7	0	7	0	0	16	16	5																															3365.794386	None	3367.833085	3369.353776	3369.33759	None	3370.891173	None	1	0.579324077	3372.829597	None	3372.829597	None	3372.829597	None	3373.531477	None	3373.531477	3374.550799	3375.653875	None	3375.653875	None	right	0.467046941	3375.653875	None	None	None	3376.222064	3377.642246													119	1	19	1	2020_Mar_04_1159	Test	3.2.4	59.8432442		
Pictures/IA50_G10.bmp	Pictures/IA50_G10.bmp	Pictures/IA50.bmp	"Go with the safe option here!"""""	0	safe					7	0	7	0	0	17	17	16																															3377.658992	None	3379.680997	3381.184979	3381.168211	None	3382.73905	None	1	0.921992274	3384.710922	None	3384.710922	None	3384.710922	None	3385.763693	None	3385.763693	3386.766325	3388.236849	None	3388.236849	None	left	0.332036966	3388.236849	None	3388.604505	3390.225397	None	None													119	1	19	1	2020_Mar_04_1159	Test	3.2.4	59.8432442		
Pictures/IA50_G20.bmp	Pictures/IA50_G20.bmp	Pictures/IA50.bmp	"Let's venture and take a risk!"""""	1	risk					7	0	7	0	0	18	18	3																															3390.24213	None	3392.264173	3393.784806	3393.768077	None	3395.338887	None	1	0.178843853	3397.294056	None	3397.294056	None	3397.294056	None	3397.594821	None	3397.594821	3398.597528	3399.750523	None	3399.750523	None	right	0.498357471	3399.750523	None	None	None	3400.285276	3401.739076													119	1	19	1	2020_Mar_04_1159	Test	3.2.4	59.8432442		
Pictures/IA80_40_L95p.bmp	Pictures/IA80_40_L95p.bmp	Pictures/IA80.bmp	"Let's stay with the certain option."""""	0	safe					7	0	7	0	0	19	19	13																															3401.755799	None	3403.811213	3405.315164	3405.298465	None	3406.85256	None	1	0.785202138	3408.807702	None	3408.807702	None	3408.807702	None	3409.710077	None	3409.710077	3410.712716	3411.815629	None	3411.815629	None	right	0.569261443	3411.815629	None	None	None	3412.43392	3413.804207													119	1	19	1	2020_Mar_04_1159	Test	3.2.4	59.8432442		
										7	0	7	0																																																																									3413.971331	None	return	3.925537609	3413.971331	None	119	1	19	1	2020_Mar_04_1159	Test	3.2.4	59.8432442		
Pictures/IA20_10_G95p.bmp	Pictures/IA20_10_G95p.bmp	Pictures/IA20.bmp	"Take a leap"	1	risk					8	0	8	0	0	0	0	5													3418.115544	None	3418.115544	None	3418.115544	None	left	1.093390048	3418.115544	None	3418.115544	None	3418.115544	None	return	2.093286235	3418.115544	None	3420.271248	None	3422.293231	3423.797202	3423.780487	None	3425.301157	None	1	0.559161324	3427.289745	None	3427.289745	None	3427.289745	None	3427.99158	None	3427.99158	3428.994219	3430.097133	None	3430.097133	None	right	1.255764455	3430.097133	None	None	None	3431.400571	None													119	1	19	1	2020_Mar_04_1159	Test	3.2.4	59.8432442		
Pictures/IA50_G40.bmp	Pictures/IA50_G40.bmp	Pictures/IA50.bmp	"It would probably be best to play it safe."""""	0	safe					8	0	8	0	0	1	1	16																															3432.10242	None	3434.124415	3435.645093	3435.628371	None	3437.182474	None	1	0.670573317	3439.15434	None	3439.15434	None	3439.15434	None	3439.973163	None	3439.973163	3440.975804	3442.078717	None	3442.078717	None	left	0.770173798	3442.078717	None	3442.897539	3444.067267	None	None													119	1	19	1	2020_Mar_04_1159	Test	3.2.4	59.8432442		
Pictures/IA110_55_G95p.bmp	Pictures/IA110_55_G95p.bmp	Pictures/IA110.bmp	"Take a chance!"""""	1	risk					8	0	8	0	0	2	2	0																															3444.083991	None	3446.122697	3447.643371	3447.626655	None	3449.130611	None	1	0.505003342	3451.1359	None	3451.1359	None	3451.1359	None	3451.737483	None	3451.737483	3452.74012	3453.859744	None	3453.859744	None	right	1.189151957	3453.859744	None	None	None	3455.09634	None													119	1	19	1	2020_Mar_04_1159	Test	3.2.4	59.8432442		
Pictures/IA80_40_G95p.bmp	Pictures/IA80_40_G95p.bmp	Pictures/IA80.bmp	"Think of the payoff"	1	risk					8	0	8	0	0	3	3	4																															3455.881746	None	3457.903739	3459.424418	3459.407695	None	3460.978506	None	1	0.699263928	3462.933651	None	3462.933651	None	3462.933651	None	3463.735774	None	3463.735774	3464.738411	3465.874745	None	3465.874745	None	left	1.438147249	3465.874745	None	3467.361994	None	None	None													119	1	19	1	2020_Mar_04_1159	Test	3.2.4	59.8432442		
Pictures/IA75_L45.bmp	Pictures/IA75_L45.bmp	Pictures/IA75.bmp	"Don't gamble for this one"	0	safe					8	0	8	0	0	4	4	18																															3467.880026	None	3469.918728	3471.439402	3471.422686	None	3472.976778	None	1	0.468969111	3474.931942	None	3474.931942	None	3474.931942	None	3475.55024	None	3475.55024	3476.552874	3478.090266	None	3478.090266	None	right	0.758630708	3478.090266	None	None	None	3478.892363	3480.095532													119	1	19	1	2020_Mar_04_1159	Test	3.2.4	59.8432442		
Pictures/IA25_L15.bmp	Pictures/IA25_L15.bmp	Pictures/IA25.bmp	"There's not much on the line here"	1	risk					8	0	8	0	0	5	5	7																															3480.112253	None	3482.167673	3483.671638	3483.638218	None	3485.1756	None	1	0.732734486	3487.164165	None	3487.164165	None	3487.164165	None	3488.033129	None	3488.033129	3489.035764	3490.15539	None	3490.15539	None	right	1.17350849	3490.15539	None	None	None	3491.375282	None													119	1	19	1	2020_Mar_04_1159	Test	3.2.4	59.8432442		
Pictures/IA100_G40.bmp	Pictures/IA100_G40.bmp	Pictures/IA100.bmp	"Try your luck and gamble!"""""	1	risk					8	0	8	0	0	6	6	17																															3492.160669	None	3494.182663	3495.703334	3495.686619	None	3497.224023	None	1	0.452320626	3499.212583	None	3499.212583	None	3499.212583	None	3499.78075	None	3499.78075	3500.783389	3501.886315	None	3501.886315	None	right	0.33859536	3501.886315	None	None	None	3502.270639	3503.874864													119	1	19	1	2020_Mar_04_1159	Test	3.2.4	59.8432442		
Pictures/IA75_L60.bmp	Pictures/IA75_L60.bmp	Pictures/IA75.bmp	"Why not take the gamble?"""""	1	risk					8	0	8	0	0	7	7	8																															3503.89157	None	3505.913563	3507.417536	3507.400821	None	3508.971623	None	1	0.577418235	3510.943485	None	3510.943485	None	3510.943485	None	3511.628621	None	3511.628621	3512.631259	3513.767593	None	3513.767593	None	right	0.313299681	3513.767593	None	None	None	3514.118514	3515.756173													119	1	19	1	2020_Mar_04_1159	Test	3.2.4	59.8432442		
Pictures/IA75_L30.bmp	Pictures/IA75_L30.bmp	Pictures/IA75.bmp	"Hold back"	0	safe					8	0	8	0	0	8	8	14																															3515.772872	None	3517.794869	3519.315539	3519.298846	None	3520.869638	None	1	1.776104731	3522.824806	None	3522.824806	None	3522.824806	None	3524.746529	None	3524.746529	3525.749175	3526.852081	None	3526.852081	None	left	0.884811127	3526.852081	None	3527.771165	3528.840648	None	None													119	1	19	1	2020_Mar_04_1159	Test	3.2.4	59.8432442		
Pictures/IA100_G60.bmp	Pictures/IA100_G60.bmp	Pictures/IA100.bmp	"Be cautious"	0	safe					8	0	8	0	0	9	9	13																															3528.857349	None	3530.879344	3532.400017	3532.383321	None	3533.937404	None	1	0.483639194	3535.909267	None	3535.909267	None	3535.909267	None	3536.527564	None	3536.527564	3537.530249	3538.633116	None	3538.633116	None	left	0.399777963	3538.633116	None	3539.067597	3540.63839	None	None													119	1	19	1	2020_Mar_04_1159	Test	3.2.4	59.8432442		
Pictures/IA50_L40.bmp	Pictures/IA50_L40.bmp	Pictures/IA50.bmp	"That gamble doesn't sound too good"	0	safe					8	0	8	0	0	10	10	3																															3540.65511	None	3542.677108	3544.197784	3544.181061	None	3545.718456	None	1	0.741881846	3547.707021	None	3547.707021	None	3547.707021	None	3548.609398	None	3548.609398	3549.612034	3550.714947	None	3550.714947	None	None		3550.714947	None	None	None	None	None													119	1	19	1	2020_Mar_04_1159	Test	3.2.4	59.8432442		
Pictures/IA50_G10.bmp	Pictures/IA50_G10.bmp	Pictures/IA50.bmp	"Go with the safe option here!"""""	0	safe					8	0	8	0	0	11	11	12																															3552.720223	None	3554.742219	3556.262893	3556.246196	None	3557.750147	None	1	0.476748842	3559.772154	None	3559.772154	None	3559.772154	None	3560.357035	None	3560.357035	3561.359665	3562.462579	None	3562.462579	None	right	0.338314409	3562.462579	None	None	None	3562.846917	3564.451146													119	1	19	1	2020_Mar_04_1159	Test	3.2.4	59.8432442		
Pictures/IA75_G60.bmp	Pictures/IA75_G60.bmp	Pictures/IA75.bmp	"Make it exciting"	1	risk					8	0	8	0	0	12	12	10																															3564.467843	None	3566.489839	3568.010512	3567.993818	None	3569.547904	None	1	0.497134454	3571.519769	None	3571.519769	None	3571.519769	None	3572.138069	None	3572.138069	3573.140705	3574.243621	None	3574.243621	None	right	0.23728077	3574.243621	None	None	None	3574.527694	3576.23219													119	1	19	1	2020_Mar_04_1159	Test	3.2.4	59.8432442		
Pictures/IA110_55_L95p.bmp	Pictures/IA110_55_L95p.bmp	Pictures/IA110.bmp	"Trust me"	1	risk					8	0	8	0	0	13	13	2																															3576.248899	None	3578.270895	3579.791563	3579.774851	None	3581.328956	None	1	0.820084708	3583.300817	None	3583.300817	None	3583.300817	None	3584.219902	None	3584.219902	3585.222533	3586.325443	None	3586.325443	None	right	0.259453914	3586.325443	None	None	None	3586.626241	3588.330722													119	1	19	1	2020_Mar_04_1159	Test	3.2.4	59.8432442		
Pictures/IA75_G30.bmp	Pictures/IA75_G30.bmp	Pictures/IA75.bmp	"Be bold"	1	risk					8	0	8	0	0	14	14	11																															3588.347444	None	3590.369444	3591.89011	3591.873398	None	3593.427495	None	1	0.785533827	3595.399362	None	3595.399362	None	3595.399362	None	3596.285019	None	3596.285019	3597.287653	3598.390569	None	3598.390569	None	right	1.274340152	3598.390569	None	None	None	3599.710704	None													119	1	19	1	2020_Mar_04_1159	Test	3.2.4	59.8432442		
Pictures/IA100_G80.bmp	Pictures/IA100_G80.bmp	Pictures/IA100.bmp	"Why not gamble?"""""	1	risk					8	0	8	0	0	15	15	6																															3600.395858	None	3602.417852	3603.938523	3603.921806	None	3605.492625	None	1	0.785142395	3607.447764	None	3607.447764	None	3607.447764	None	3608.316718	None	3608.316718	3609.319355	3610.422267	None	3610.422267	None	right	0.71462584	3610.422267	None	None	None	3611.17425	3612.410846													119	1	19	1	2020_Mar_04_1159	Test	3.2.4	59.8432442		
Pictures/IA25_L5.bmp	Pictures/IA25_L5.bmp	Pictures/IA25.bmp	"It would be smarter to choose the safe option."""""	0	safe					8	0	8	0	0	16	16	19																															3612.427551	None	3614.449543	3615.970215	3615.953518	None	3617.524313	None	1	0.857429342	3619.479478	None	3619.479478	None	3619.479478	None	3620.498843	None	3620.498843	3621.501453	3622.637791	None	3622.637791	None	left	0.467100327	3622.637791	None	3623.139118	3624.643072	None	None													119	1	19	1	2020_Mar_04_1159	Test	3.2.4	59.8432442		
Pictures/IA80_40_L95p.bmp	Pictures/IA80_40_L95p.bmp	Pictures/IA80.bmp	"Let's stay with the certain option."""""	0	safe					8	0	8	0	0	17	17	15																															3624.65979	None	3626.681784	3628.202457	3628.185739	None	3629.689711	None	1	0.489209011	3631.711697	None	3631.711697	None	3631.711697	None	3632.346715	None	3632.346715	3633.349349	3634.452262	None	3634.452262	None	left	0.964631169	3634.452262	None	3635.454887	None	None	None													119	1	19	1	2020_Mar_04_1159	Test	3.2.4	59.8432442		
Pictures/IA25_G20.bmp	Pictures/IA25_G20.bmp	Pictures/IA25.bmp	"I wouldn't gamble for this one. """""	0	safe					8	0	8	0	0	18	18	1																															3636.474252	None	3638.496252	3640.016918	3640.000205	None	3641.55432	None	1	0.818734671	3643.52617	None	3643.52617	None	3643.52617	None	3644.461969	None	3644.461969	3645.464608	3646.567518	None	3646.567518	None	right	1.913387303	3646.567518	None	None	None	3648.522665	None													119	1	19	1	2020_Mar_04_1159	Test	3.2.4	59.8432442		
Pictures/IA20_10_L95p.bmp	Pictures/IA20_10_L95p.bmp	Pictures/IA20.bmp	"Don't be tempted to gamble."""""	0	safe					8	0	8	0	0	19	19	9																															3648.572795	None	3650.594792	3652.115471	3652.098751	None	3653.669565	None	1	0.632199627	3655.624704	None	3655.624704	None	3655.624704	None	3656.359991	None	3656.359991	3657.36262	3658.465535	None	3658.465535	None	left	0.327357474	3658.465535	None	3658.833157	3660.470811	None	None													119	1	19	1	2020_Mar_04_1159	Test	3.2.4	59.8432442		
										8	0	8	0																																																																									3660.637913	None	return	3.530976968	3660.637913	None	119	1	19	1	2020_Mar_04_1159	Test	3.2.4	59.8432442		
Pictures/IA75_G60.bmp	Pictures/IA75_G60.bmp	Pictures/IA75.bmp	"Make it exciting"	1	risk					9	0	9	0	0	0	0	18													3664.330987	None	3664.330987	None	3664.330987	None	left	2.053899969	3664.330987	None	3664.330987	None	3664.330987	None	return	3.037778719	3664.330987	None	3667.405746	None	3669.411037	3670.93171	3670.914992	None	3672.418965	None	1	0.511953622	3674.44095	None	3674.44095	None	3674.44095	None	3675.092672	None	3675.092672	3676.095309	3677.198217	None	3677.198217	None	right	0.250683832	3677.198217	None	None	None	3677.482325	3679.186792													119	1	19	1	2020_Mar_04_1159	Test	3.2.4	59.8432442		
Pictures/IA25_L10.bmp	Pictures/IA25_L10.bmp	Pictures/IA25.bmp	"Dont be afraid to take the risk!"""""	1	risk					9	0	9	0	0	1	1	2																															3679.20351	None	3681.225491	3682.746162	3682.729471	None	3684.28355	None	1	0.489481208	3686.255416	None	3686.255416	None	3686.255416	None	3686.857006	None	3686.857006	3687.859645	3688.962557	None	3688.962557	None	right	0.726343001	3688.962557	None	None	None	3689.731234	3690.967836													119	1	19	1	2020_Mar_04_1159	Test	3.2.4	59.8432442		
Pictures/IA25_L15.bmp	Pictures/IA25_L15.bmp	Pictures/IA25.bmp	"There's not much on the line here"	1	risk					9	0	9	0	0	2	2	9																															3690.984534	None	3693.006532	3694.527207	3694.510507	None	3696.047879	None	1	0.756450215	3698.036465	None	3698.036465	None	3698.036465	None	3698.93885	None	3698.93885	3699.941469	3701.044382	None	3701.044382	None	right	0.444504644	3701.044382	None	None	None	3701.528987	3703.03296													119	1	19	1	2020_Mar_04_1159	Test	3.2.4	59.8432442		
Pictures/IA100_L60.bmp	Pictures/IA100_L60.bmp	Pictures/IA100.bmp	"You'd have a lot to lose"	0	safe					9	0	9	0	0	3	3	8																															3703.04966	None	3705.071656	3706.59233	3706.575636	None	3708.096291	None	1	1.803322327	3710.101579	None	3710.101579	None	3710.101579	None	3712.040029	None	3712.040029	3713.042667	3714.145581	None	3714.145581	None	right	1.407314307	3714.145581	None	None	None	3715.599405	None													119	1	19	1	2020_Mar_04_1159	Test	3.2.4	59.8432442		
Pictures/IA80_40_L95p.bmp	Pictures/IA80_40_L95p.bmp	Pictures/IA80.bmp	"Let's stay with the certain option."""""	0	safe					9	0	9	0	0	4	4	17																															3716.150845	None	3718.172843	3719.693514	3719.676819	None	3721.214205	None	1	0.342131213	3723.202776	None	3723.202776	None	3723.202776	None	3723.670676	None	3723.670676	3724.673311	3725.776224	None	3725.776224	None	left	0.3526562	3725.776224	None	3726.177265	3727.781491	None	None													119	1	19	1	2020_Mar_04_1159	Test	3.2.4	59.8432442		
Pictures/IA75_L15.bmp	Pictures/IA75_L15.bmp	Pictures/IA75.bmp	"