Choice,Choice2,Amount,AdviceVar1,GambleAdviceNum,GambleAdviceType,practice.thisRepN,practice.thisTrialN,practice.thisN,practice.thisIndex,trials_2.thisRepN,trials_2.thisTrialN,trials_2.thisN,trials_2.thisIndex,trials.thisRepN,trials.thisTrialN,trials.thisN,trials.thisIndex,text.started,text.stopped,key_resp_4.keys,key_resp_4.rt,key_resp_4.started,key_resp_4.stopped,instructions.started,instructions.stopped,space.keys,space.rt,space.started,space.stopped,chooseInst.started,chooseInst.stopped,Ad1.started,Ad1.stopped,Ad2.started,Ad2.stopped,key_resp_3.keys,key_resp_3.rt,key_resp_3.started,key_resp_3.stopped,Ad1pic.started,Ad1pic.stopped,Ad2pic.started,Ad2pic.stopped,enter.keys,enter.rt,enter.started,enter.stopped,iSi.started,iSi.stopped,receiveMoneyPicture.started,receiveMoneyPicture.stopped,ISI2.started,ISI2.stopped,ChoicePic.started,ChoicePic.stopped,response.keys,response.rt,response.started,response.stopped,yesNo.started,yesNo.stopped,ask.started,ask.stopped,getAdv.started,getAdv.stopped,textForCode.started,textForCode.stopped,blank.started,blank.stopped,ChoicePic2.started,ChoicePic2.stopped,resp.keys,resp.rt,resp.started,resp.stopped,checkL1.started,checkL1.stopped,checkR1.started,checkR1.stopped,EndPrac.started,EndPrac.stopped,key_resp.keys,key_resp.rt,key_resp.started,key_resp.stopped,endText.started,endText.stopped,key_resp_2.keys,key_resp_2.rt,key_resp_2.started,key_resp_2.stopped,participant,session,age,gender (0=male, 1 = female, 2 = other),date,expName,psychopyVersion,frameRate,
,,,,,,,,,,,,,,,,,,575.4757040329278,None,space,763.4291960729752,575.4757040329278,None,,,,,,,,,,,,,,,,,,,,,,,,,,,,,,,,,,,,,,,,,,,,,,,,,,,,,,,,,,,,,,,,,,,,,119,001,19,1,2020_Mar_04_1159,Test,3.2.4,59.84324420034328,
,,,,,,,,,,,,,,,,,,,,,,,,1338.9372742341366,None,space,2.7516161729581654,1338.9372742341366,None,,,,,,,,,,,,,,,,,,,,,,,,,,,,,,,,,,,,,,,,,,,,,,,,,,,,,,,,,,,,,,,119,001,19,1,2020_Mar_04_1159,Test,3.2.4,59.84324420034328,
,,,,,,,,,,,,,,,,,,,,,,,,,,,,,,1342.4130748601165,None,1342.4130748601165,None,1342.4130748601165,None,left,4.467826099833474,1342.4130748601165,None,,,,,,,,,,,,,,,,,,,,,,,,,,,,,,,,,,,,,,,,,,,,,,,,,,,,,119,001,19,1,2020_Mar_04_1159,Test,3.2.4,59.84324420034328,
,,,,,,,,,,,,,,,,,,,,,,,,,,,,,,,,,,,,,,,,1342.4130748601165,None,1342.4130748601165,None,return,8.611681304173544,1342.4130748601165,None,,,,,,,,,,,,,,,,,,,,,,,,,,,,,,,,,,,,,,,,,,,,,119,001,19,1,2020_Mar_04_1159,Test,3.2.4,59.84324420034328,
Pictures/IA50_G10.bmp,Pictures/IA50_G10.bmp,Pictures/IA50.bmp,"

"Go with the safe option here!"",0,safe,0,0,0,0,,,,,,,,,,,,,,,,,,,,,,,,,,,,,,,,,,,,,,,1351.1527611250058,None,1353.1246268351097,1354.6286017280072,1354.6118797010276,None,1356.1492554619908,None,1,1.2282026528846473,1358.2047083110083,None,1358.2047083110083,None,1358.2047083110083,None,1359.558247426059,None,1359.558247426059,1360.5608780151233,1361.7139250880573,None,1361.7139250880573,None,left,1.0069698640145361,1361.7139250880573,None,1362.766695758095,None,None,None,,,,,,,,,,,,,119,001,19,1,2020_Mar_04_1159,Test,3.2.4,59.84324420034328,
Pictures/IA100_G20.bmp,Pictures/IA100_G20.bmp,Pictures/IA100.bmp,"

"Go ahead and gamble!"",1,risk,0,1,1,4,,,,,,,,,,,,,,,,,,,,,,,,,,,,,,,,,,,,,,,1363.7191911099944,None,1365.7578965779394,1367.2618689551018,1367.2451553870924,None,1368.8326766709797,None,1,1.149801281047985,1370.7711228700355,None,1370.7711228700355,None,1370.7711228700355,None,1372.00771434512,None,1372.00771434512,1373.0103867589496,1374.146681722952,None,1374.146681722952,None,right,0.4702161231543869,1374.146681722952,None,None,None,1374.664755325066,1376.1519607200753,,,,,,,,,,,,,119,001,19,1,2020_Mar_04_1159,Test,3.2.4,59.84324420034328,
Pictures/IA50_G40.bmp,Pictures/IA50_G40.bmp,Pictures/IA50.bmp,"

"It would probably be best to play it safe."",0,safe,0,2,2,3,,,,,,,,,,,,,,,,,,,,,,,,,,,,,,,,,,,,,,,1376.1686601440888,None,1378.1906905639917,1379.711327820085,1379.6946315651294,None,1381.2654290499631,None,1,0.3243182860314846,1383.220591563033,None,1383.220591563033,None,1383.220591563033,None,1383.6884752360638,None,1383.6884752360638,1384.6911444601137,1386.0447060270235,None,1386.0447060270235,None,left,0.6201841740403324,1386.0447060270235,None,1386.713149011135,1388.0370886900928,None,None,,,,,,,,,,,,,119,001,19,1,2020_Mar_04_1159,Test,3.2.4,59.84324420034328,
Pictures/IA50_G20.bmp,Pictures/IA50_G20.bmp,Pictures/IA50.bmp,"

"Let's venture and take a risk!"",1,risk,0,3,3,1,,,,,,,,,,,,,,,,,,,,,,,,,,,,,,,,,,,,,,,1388.0667157259304,None,1390.0887077129446,1391.5943077299744,1391.5765401539393,None,1393.4976807439234,None,1,0.554230801993981,1395.1186557209585,None,1395.1186557209585,None,1395.1186557209585,None,1395.8708803399932,None,1395.8708803399932,1396.8732435901184,1398.0538466330618,None,1398.0538466330618,None,right,0.37907704222016037,1398.0538466330618,None,None,None,1398.4804885890335,1400.0650014260318,,,,,,,,,,,,,119,001,19,1,2020_Mar_04_1159,Test,3.2.4,59.84324420034328,
Pictures/IA100_G40.bmp,Pictures/IA100_G40.bmp,Pictures/IA100.bmp,"

"Try your luck and gamble!"",1,risk,0,4,4,5,,,,,,,,,,,,,,,,,,,,,,,,,,,,,,,,,,,,,,,1400.0816878830083,None,1402.1370836971328,1403.6410945169628,1403.6243202690966,None,1405.2118845749646,None,1,0.931362217059359,1407.1335468399338,None,1407.1335468399338,None,1407.1335468399338,None,1408.169680380961,None,1408.169680380961,1409.1723511619493,1410.2919459959958,None,1410.2919459959958,None,right,0.6689432449638844,1410.2919459959958,None,None,None,1411.0104886400513,1412.280488189077,,,,,,,,,,,,,119,001,19,1,2020_Mar_04_1159,Test,3.2.4,59.84324420034328,
Pictures/IA50_G30.bmp,Pictures/IA50_G30.bmp,Pictures/IA50.bmp,"

"I think you should gamble."",1,risk,0,5,5,2,,,,,,,,,,,,,,,,,,,,,,,,,,,,,,,,,,,,,,,1412.297204114031,None,1414.3359335961286,1415.8398755060043,1415.823168490082,None,1417.3772659110837,None,2,1.2917961238417774,1419.3491195179522,None,1419.3491195179522,None,1419.3491195179522,None,None,None,None,None,1420.8698109700345,None,1420.8698109700345,None,left,0.9470877819694579,1420.8698109700345,None,1421.8557084470522,1422.8750720410608,None,None,,,,,,,,,,,,,119,001,19,1,2020_Mar_04_1159,Test,3.2.4,59.84324420034328,
,,,,,,,,,,,,,,,,,,,,,,,,,,,,,,,,,,,,,,,,,,,,,,,,,,,,,,,,,,,,,,,,,,,,,,,,,,,,,,,,1422.8917695030104,None,space,14.005125230178237,1422.8917695030104,None,,,,,,,119,001,19,1,2020_Mar_04_1159,Test,3.2.4,59.84324420034328,
Pictures/IA50_G40.bmp,Pictures/IA50_G40.bmp,Pictures/IA50.bmp,"

"It would probably be best to play it safe."",0,safe,,,,,0,0,0,0,0,0,0,6,,,,,,,,,,,,,1437.0958650480025,None,1437.0958650480025,None,1437.0958650480025,None,left,2.473023109138012,1437.0958650480025,None,1437.0958650480025,None,1437.0958650480025,None,return,9.392912165960297,1437.0958650480025,None,1446.5708270350005,None,1448.592821202008,1450.096791310003,1450.080075154081,None,1451.5840462839697,None,2,1.7643055841326714,1453.5726108909585,None,1453.5726108909585,None,1453.5726108909585,None,None,None,None,None,1455.5277709430084,None,1455.5277709430084,None,None,,1455.5277709430084,None,None,None,None,None,,,,,,,,,,,,,119,001,19,1,2020_Mar_04_1159,Test,3.2.4,59.84324420034328,
Pictures/IA50_G10.bmp,Pictures/IA50_G10.bmp,Pictures/IA50.bmp,"

"Go with the safe option here!"",0,safe,,,,,0,0,0,0,0,1,1,13,,,,,,,,,,,,,,,,,,,,,,,,,,,,,,,1457.5330512970686,None,1459.5550470380113,1461.0757243740372,1461.0590014189947,None,1462.5963958089706,None,2,1.0639416491612792,1464.5849573779851,None,1464.5849573779851,None,1464.5849573779851,None,None,None,None,None,1465.8382705771364,None,1465.8382705771364,None,None,,1465.8382705771364,None,None,None,None,None,,,,,,,,,,,,,119,001,19,1,2020_Mar_04_1159,Test,3.2.4,59.84324420034328,
Pictures/IA25_G10.bmp,Pictures/IA25_G10.bmp,Pictures/IA25.bmp,"

"What's life without a little risk?"",1,risk,,,,,0,0,0,0,0,2,2,18,,,,,,,,,,,,,,,,,,,,,,,,,,,,,,,1467.8435536681209,None,1469.8822614471428,1471.386210666038,1471.3695133291185,None,1472.923595794011,None,2,0.06544069200754166,1474.8954630549997,None,1474.8954630549997,None,1474.8954630549997,None,None,None,None,None,1475.1294215009548,None,1475.1294215009548,None,left,1.543476773891598,1475.1294215009548,None,1476.71693349001,None,None,None,,,,,,,,,,,,,119,001,19,1,2020_Mar_04_1159,Test,3.2.4,59.84324420034328,
Pictures/IA110_55_G95p.bmp,Pictures/IA110_55_G95p.bmp,Pictures/IA110.bmp,"

"Take a chance!"",1,risk,,,,,0,0,0,0,0,3,3,2,,,,,,,,,,,,,,,,,,,,,,,,,,,,,,,1477.1346892979927,None,1479.1733950700145,1480.6940681289416,1480.6773706879467,None,1482.2314699110575,None,2,1.0383164370432496,1484.1866074991412,None,1484.1866074991412,None,1484.1866074991412,None,None,None,None,None,1485.3897743581329,None,1485.3897743581329,None,right,1.1711238629650325,1485.3897743581329,None,None,None,1486.609655272914,None,,,,,,,,,,,,,119,001,19,1,2020_Mar_04_1159,Test,3.2.4,59.84324420034328,
Pictures/IA100_G20.bmp,Pictures/IA100_G20.bmp,Pictures/IA100.bmp,"

"Go ahead and gamble!"",1,risk,,,,,0,0,0,0,0,4,4,16,,,,,,,,,,,,,,,,,,,,,,,,,,,,,,,1487.395057043992,None,1489.4337634139229,1490.9377369289286,1490.921016342938,None,1492.4751220750622,None,2,0.26591604901477695,1494.4469893740024,None,1494.4469893740024,None,1494.4469893740024,None,None,None,None,None,1494.864739076933,None,1494.864739076933,None,None,,1494.864739076933,None,None,None,None,None,,,,,,,,,,,,,119,001,19,1,2020_Mar_04_1159,Test,3.2.4,59.84324420034328,
Pictures/IA25_L20.bmp,Pictures/IA25_L20.bmp,Pictures/IA25.bmp,"

"Don't be tempted to gamble."",0,safe,,,,,0,0,0,0,0,5,5,8,,,,,,,,,,,,,,,,,,,,,,,,,,,,,,,1496.8700216219295,None,1498.8920183470473,1500.4126885030419,1500.395993241109,None,1501.9667858679313,None,2,0.9829558599740267,1503.9219486110378,None,1503.9219486110378,None,1503.9219486110378,None,None,None,None,None,1505.0749888899736,None,1505.0749888899736,None,left,0.7179122210945934,1505.0749888899736,None,1505.8269662419334,1507.0635463029612,None,None,,,,,,,,,,,,,119,001,19,1,2020_Mar_04_1159,Test,3.2.4,59.84324420034328,
Pictures/IA100_L60.bmp,Pictures/IA100_L60.bmp,Pictures/IA100.bmp,"

"You'd have a lot to lose, don't gamble."",0,safe,,,,,0,0,0,0,0,6,6,15,,,,,,,,,,,,,,,,,,,,,,,,,,,,,,,1507.080267237965,None,1509.10226443992,1510.6229346459731,1510.6062175740954,None,1512.177034236025,None,None,,1514.1321747230832,None,1514.1321747230832,None,1514.1321747230832,None,None,None,None,None,1517.2403746710625,None,1517.2403746710625,None,left,0.5765296060126275,1517.2403746710625,None,1517.8586670779623,1519.2289448729716,None,None,,,,,,,,,,,,,119,001,19,1,2020_Mar_04_1159,Test,3.2.4,59.84324420034328,
Pictures/IA80_40_L95p.bmp,Pictures/IA80_40_L95p.bmp,Pictures/IA80.bmp,"

"Let's stay with the certain option."",0,safe,,,,,0,0,0,0,0,7,7,4,,,,,,,,,,,,,,,,,,,,,,,,,,,,,,,1519.2456555711105,None,1521.284362870967,1522.7883126740344,1522.7716137550306,None,1524.325704147108,None,2,0.7593415998853743,1526.2975627169944,None,1526.2975627169944,None,1526.2975627169944,None,None,None,None,None,1527.2333714771084,None,1527.2333714771084,None,None,,1527.2333714771084,None,None,None,None,None,,,,,,,,,,,,,119,001,19,1,2020_Mar_04_1159,Test,3.2.4,59.84324420034328,
Pictures/IA25_L15.bmp,Pictures/IA25_L15.bmp,Pictures/IA25.bmp,"

"There's not much on the line here, gamble!"",1,risk,,,,,0,0,0,0,0,8,8,1,,,,,,,,,,,,,,,,,,,,,,,,,,,,,,,1529.2386544819456,None,1531.2606478701346,1532.7813193059992,1532.7645999831147,None,1534.33541595703,None,2,1.1423531309701502,1536.2905584529508,None,1536.2905584529508,None,1536.2905584529508,None,None,None,None,None,1537.6107086851262,None,1537.6107086851262,None,left,0.6541943161282688,1537.6107086851262,None,1538.3125607050024,1539.61598266894,None,None,,,,,,,,,,,,,119,001,19,1,2020_Mar_04_1159,Test,3.2.4,59.84324420034328,
Pictures/IA50_G30.bmp,Pictures/IA50_G30.bmp,Pictures/IA50.bmp,"

"I think you should gamble."",1,risk,,,,,0,0,0,0,0,9,9,9,,,,,,,,,,,,,,,,,,,,,,,,,,,,,,,1539.6327039939351,None,1541.6546993260272,1543.1753743840382,1543.158657188993,None,1544.6626254320145,None,2,0.7483109089080244,1546.6846105731092,None,1546.6846105731092,None,1546.6846105731092,None,None,None,None,None,1547.6204120959155,None,1547.6204120959155,None,right,0.7404852989129722,1547.6204120959155,None,None,None,1548.4058103510179,1549.6089784870856,,,,,,,,,,,,,119,001,19,1,2020_Mar_04_1159,Test,3.2.4,59.84324420034328,
Pictures/IA80_40_G95p.bmp,Pictures/IA80_40_G95p.bmp,Pictures/IA80.bmp,"

"Think of the payoff, gamble!"",1,risk,,,,,0,0,0,0,0,10,10,17,,,,,,,,,,,,,,,,,,,,,,,,,,,,,,,1549.625701856101,None,1551.647702866001,1553.168368173996,1553.1516559130978,None,1554.7224679130595,None,2,0.979312505107373,1556.677605018951,None,1556.677605018951,None,1556.677605018951,None,None,None,None,None,1557.8473566619214,None,1557.8473566619214,None,left,0.7455347711220384,1557.8473566619214,None,1558.6327580830548,1559.8359262319282,None,None,,,,,,,,,,,,,119,001,19,1,2020_Mar_04_1159,Test,3.2.4,59.84324420034328,
Pictures/IA100_L80.bmp,Pictures/IA100_L80.bmp,Pictures/IA100.bmp,"

"Go all in!"",1,risk,,,,,0,0,0,0,0,11,11,12,,,,,,,,,,,,,,,,,,,,,,,,,,,,,,,1559.852649735054,None,1561.874634345062,1563.3953077769838,1563.3786100191064,None,1564.9493995059747,None,1,0.9523374570999295,1566.9045675441157,None,1566.9045675441157,None,1566.9045675441157,None,1567.9239166600164,None,1567.9239166600164,1568.9265537920874,1570.0294665310066,None,1570.0294665310066,None,right,0.33943382487632334,1570.0294665310066,None,None,None,1570.4138093690854,1572.0180235309526,,,,,,,,,,,,,119,001,19,1,2020_Mar_04_1159,Test,3.2.4,59.84324420034328,
Pictures/IA75_L45.bmp,Pictures/IA75_L45.bmp,Pictures/IA75.bmp,"

"Don't gamble for this one, play it safe."",0,safe,,,,,0,0,0,0,0,12,12,11,,,,,,,,,,,,,,,,,,,,,,,,,,,,,,,1572.0347450030968,None,1574.073452592129,1575.5941232191399,1575.577406007098,None,1577.131499387091,None,1,0.4982375509571284,1579.0866639900487,None,1579.0866639900487,None,1579.0866639900487,None,1579.7216648319736,None,1579.7216648319736,1580.7242949819192,1581.8439214939717,None,1581.8439214939717,None,left,0.5089912060648203,1581.8439214939717,None,1582.3953682659194,1583.832497403957,None,None,,,,,,,,,,,,,119,001,19,1,2020_Mar_04_1159,Test,3.2.4,59.84324420034328,
Pictures/IA100_G80.bmp,Pictures/IA100_G80.bmp,Pictures/IA100.bmp,"

"Why not gamble?"",1,risk,,,,,0,0,0,0,0,13,13,5,,,,,,,,,,,,,,,,,,,,,,,,,,,,,,,1583.849197997013,None,1585.8711942590307,1587.3918640441261,1587.3751687970944,None,1588.9459646840114,None,1,0.9317798339761794,1590.9011259060353,None,1590.9011259060353,None,1590.9011259060353,None,1591.9204694989603,None,1591.9204694989603,1592.923108496936,1594.0260167799424,None,1594.0260167799424,None,right,0.4228845520410687,1594.0260167799424,None,None,None,1594.49392303708,1596.0146311391145,,,,,,,,,,,,,119,001,19,1,2020_Mar_04_1159,Test,3.2.4,59.84324420034328,
Pictures/IA75_L15.bmp,Pictures/IA75_L15.bmp,Pictures/IA75.bmp,"

"Trust me–gamble!"",1,risk,,,,,0,0,0,0,0,14,14,7,,,,,,,,,,,,,,,,,,,,,,,,,,,,,,,1596.031300120987,None,1598.0533066941425,1599.5739634549245,1599.5572700779885,None,1601.111350292107,None,1,0.733687317930162,1603.0832162320148,None,1603.0832162320148,None,1603.0832162320148,None,1603.9521705189254,None,1603.9521705189254,1604.9548088409938,1606.1245614530053,None,1606.1245614530053,None,right,0.6203376830089837,1606.1245614530053,None,None,None,1606.7930421619676,1608.1298546390608,,,,,,,,,,,,,119,001,19,1,2020_Mar_04_1159,Test,3.2.4,59.84324420034328,
Pictures/IA75_G60.bmp,Pictures/IA75_G60.bmp,Pictures/IA75.bmp,"

"Make it exciting, take a chance!"",1,risk,,,,,0,0,0,0,0,15,15,14,,,,,,,,,,,,,,,,,,,,,,,,,,,,,,,1608.1465505131055,None,1610.1685467059724,1611.6892192959785,1611.672488572076,None,1613.2433148811106,None,1,0.2024133950471878,1615.1984884950798,None,1615.1984884950798,None,1615.1984884950798,None,1615.5326947721187,None,1615.5326947721187,1616.5353327000048,1617.6883620480075,None,1617.6883620480075,None,right,0.4725475930608809,1617.6883620480075,None,None,None,1618.2064236919396,1619.6936535260174,,,,,,,,,,,,,119,001,19,1,2020_Mar_04_1159,Test,3.2.4,59.84324420034328,
Pictures/IA75_L60.bmp,Pictures/IA75_L60.bmp,Pictures/IA75.bmp,"

"Why not take the gamble?"",1,risk,,,,,0,0,0,0,0,16,16,19,,,,,,,,,,,,,,,,,,,,,,,,,,,,,,,1619.7103530000895,None,1621.732347853016,1623.236321306089,1623.2196128801443,None,1624.8071162009146,None,1,0.5266308169811964,1626.7622819859535,None,1626.7622819859535,None,1626.7622819859535,None,1627.3972791640554,None,1627.3972791640554,1628.3999142791145,1629.5028263030108,None,1629.5028263030108,None,left,0.44207342085428536,1629.5028263030108,None,1629.9874348801095,1631.4914037820417,None,None,,,,,,,,,,,,,119,001,19,1,2020_Mar_04_1159,Test,3.2.4,59.84324420034328,
Pictures/IA75_G45.bmp,Pictures/IA75_G45.bmp,Pictures/IA75.bmp,"

"Don't gamble for this one."",0,safe,,,,,0,0,0,0,0,17,17,0,,,,,,,,,,,,,,,,,,,,,,,,,,,,,,,1631.5081049569417,None,1633.530103034107,1635.050771691138,1635.0340803449508,None,1636.6048692620825,None,1,0.7208843932021409,1638.5600324941333,None,1638.5600324941333,None,1638.5600324941333,None,1639.3955550179817,None,1639.3955550179817,1640.3981942699756,1641.5011090741027,None,1641.5011090741027,None,left,0.41979938209988177,1641.5011090741027,None,1641.9690086911432,1643.5063949290197,None,None,,,,,,,,,,,,,119,001,19,1,2020_Mar_04_1159,Test,3.2.4,59.84324420034328,
Pictures/IA40_20_G95p.bmp,Pictures/IA40_20_G95p.bmp,Pictures/IA40.bmp,"

"Hold back, stay with the safe choice."",0,safe,,,,,0,0,0,0,0,18,18,3,,,,,,,,,,,,,,,,,,,,,,,,,,,,,,,1643.5230966869276,None,1645.5618023599964,1647.0824744799174,1647.0657759269234,None,1648.569738584105,None,1,0.5938870259560645,1650.5750245561358,None,1650.5750245561358,None,1650.5750245561358,None,1651.2935363629367,None,1651.2935363629367,1652.296210550936,1653.399120718008,None,1653.399120718008,None,left,0.4817756190896034,1653.399120718008,None,1653.9171489139553,1655.387690344127,None,None,,,,,,,,,,,,,119,001,19,1,2020_Mar_04_1159,Test,3.2.4,59.84324420034328,
Pictures/IA50_L30.bmp,Pictures/IA50_L30.bmp,Pictures/IA50.bmp,"

"Take a leap, I think you should gamble."",1,risk,,,,,0,0,0,0,0,19,19,10,,,,,,,,,,,,,,,,,,,,,,,,,,,,,,,1655.404413477052,None,1657.4264093120582,1658.9470798771363,1658.9303636890836,None,1660.501175540965,None,1,0.44860042398795485,1662.4563203640282,None,1662.4563203640282,None,1662.4563203640282,None,1663.0411927660462,None,1663.0411927660462,1664.0438317710068,1665.1634575470816,None,1665.1634575470816,None,left,1.3654417318757623,1665.1634575470816,None,1666.567157936981,None,None,None,,,,,,,,,,,,,119,001,19,1,2020_Mar_04_1159,Test,3.2.4,59.84324420034328,
,,,,,,,,,,0,0,0,0,,,,,,,,,,,,,,,,,,,,,,,,,,,,,,,,,,,,,,,,,,,,,,,,,,,,,,,,,,,,,,,,,,,,,,,,,1667.4193983019795,None,return,11.613486085087061,1667.4193983019795,None,119,001,19,1,2020_Mar_04_1159,Test,3.2.4,59.84324420034328,
Pictures/IA50_L10.bmp,Pictures/IA50_L10.bmp,Pictures/IA50.bmp,"

"Play it safe, don’t gamble!"",0,safe,,,,,1,0,1,0,0,0,0,2,,,,,,,,,,,,,1679.217154703103,None,1679.217154703103,None,1679.217154703103,None,left,2.295734489103779,1679.217154703103,None,1679.217154703103,None,1679.217154703103,None,return,6.319500621873885,1679.217154703103,None,1685.5838906629942,None,1687.6059178099968,1689.1265861610882,1689.1098919711076,None,1690.6639874710236,None,1,0.45377901499159634,1692.6191270730924,None,1692.6191270730924,None,1692.6191270730924,None,1693.2040175949223,None,1693.2040175949223,1694.2066644800361,1695.3095591370948,None,1695.3095591370948,None,left,0.7233368968591094,1695.3095591370948,None,1696.0782415729482,1697.3148406581022,None,None,,,,,,,,,,,,,119,001,19,1,2020_Mar_04_1159,Test,3.2.4,59.84324420034328,
Pictures/IA100_L40.bmp,Pictures/IA100_L40.bmp,Pictures/IA100.bmp,"

"Think of the payoff, gamble!"",1,risk,,,,,1,0,1,0,0,1,1,15,,,,,,,,,,,,,,,,,,,,,,,,,,,,,,,1697.331538957078,None,1699.3535376749933,1700.8742096500937,1700.857510396978,None,1702.4115963010117,None,1,0.5694673280231655,1704.383426703047,None,1704.383426703047,None,1704.383426703047,None,1705.2357050399296,None,1705.2357050399296,1706.2383416879456,1707.3412511041388,None,1707.3412511041388,None,left,0.403647325001657,1707.3412511041388,None,1707.792440396035,1709.3298186119646,None,None,,,,,,,,,,,,,119,001,19,1,2020_Mar_04_1159,Test,3.2.4,59.84324420034328,
Pictures/IA50_L40.bmp,Pictures/IA50_L40.bmp,Pictures/IA50.bmp,"

"That gamble doesn't sound too good, play it safe."",0,safe,,,,,1,0,1,0,0,2,2,14,,,,,,,,,,,,,,,,,,,,,,,,,,,,,,,1709.3465434350073,None,1711.3685390180908,1712.889210609952,1712.8724908421282,None,1714.4265958140604,None,1,0.6104367929510772,1716.3984643230215,None,1716.3984643230215,None,1716.3984643230215,None,1717.1671490001027,None,1717.1671490001027,1718.1697979890741,1719.2726998110302,None,1719.2726998110302,None,left,0.7361983940936625,1719.2726998110302,None,1720.0581000950187,1721.2612708199304,None,None,,,,,,,,,,,,,119,001,19,1,2020_Mar_04_1159,Test,3.2.4,59.84324420034328,
Pictures/IA75_G45.bmp,Pictures/IA75_G45.bmp,Pictures/IA75.bmp,"

"Don't gamble for this one."",0,safe,,,,,1,0,1,0,0,3,3,8,,,,,,,,,,,,,,,,,,,,,,,,,,,,,,,1721.2779693589546,None,1723.2999643899966,1724.8206392349675,1724.8039403969888,None,1726.307891098084,None,1,0.6949894540011883,1728.3299004689325,None,1728.3299004689325,None,1728.3299004689325,None,1729.1319949540775,None,1729.1319949540775,1730.134640160948,1731.2375507850666,None,1731.2375507850666,None,right,0.34734437917359173,1731.2375507850666,None,None,None,1731.6218908389565,1733.2261437799316,,,,,,,,,,,,,119,001,19,1,2020_Mar_04_1159,Test,3.2.4,59.84324420034328,
Pictures/IA75_G15.bmp,Pictures/IA75_G15.bmp,Pictures/IA75.bmp,"

"Take a chance!"",1,risk,,,,,1,0,1,0,0,4,4,4,,,,,,,,,,,,,,,,,,,,,,,,,,,,,,,1733.2428285200149,None,1735.2648226809688,1736.7854961720295,1736.768797484925,None,1738.3228461819235,None,1,0.5781504481565207,1740.2947526280768,None,1740.2947526280768,None,1740.2947526280768,None,1740.9631708890665,None,1740.9631708890665,1741.9658384621143,1743.0854324591346,None,1743.0854324591346,None,left,0.435459187021479,1743.0854324591346,None,1743.5700423461385,1745.0740111710038,None,None,,,,,,,,,,,,,119,001,19,1,2020_Mar_04_1159,Test,3.2.4,59.84324420034328,
Pictures/IA25_G5.bmp,Pictures/IA25_G5.bmp,Pictures/IA25.bmp,"

"Let's stay with the certain option."",0,safe,,,,,1,0,1,0,0,5,5,7,,,,,,,,,,,,,,,,,,,,,,,,,,,,,,,1745.090712060919,None,1747.1127093860414,1748.6333798889536,1748.6166878719814,None,1750.1874767600093,None,1,0.7542638999875635,1752.14264408499,None,1752.14264408499,None,1752.14264408499,None,1753.0282971889246,None,1753.0282971889246,1754.030932073947,1755.1338465081062,None,1755.1338465081062,None,left,0.4190481270197779,1755.1338465081062,None,1755.6017510280944,1757.1391352880746,None,None,,,,,,,,,,,,,119,001,19,1,2020_Mar_04_1159,Test,3.2.4,59.84324420034328,
Pictures/IA20_10_G95p.bmp,Pictures/IA20_10_G95p.bmp,Pictures/IA20.bmp,"

"Take a leap, I think you should gamble."",1,risk,,,,,1,0,1,0,0,6,6,11,,,,,,,,,,,,,,,,,,,,,,,,,,,,,,,1757.155835570069,None,1759.194543289952,1760.698513718089,1760.681797004072,None,1762.2526106350124,None,1,0.561136586824432,1764.2077600250486,None,1764.2077600250486,None,1764.2077600250486,None,1764.909611283103,None,1764.909611283103,1765.9122500999365,1767.0151603671256,None,1767.0151603671256,None,left,1.289735859958455,1767.0151603671256,None,1768.352002571104,None,None,None,,,,,,,,,,,,,119,001,19,1,2020_Mar_04_1159,Test,3.2.4,59.84324420034328,
Pictures/IA75_L45.bmp,Pictures/IA75_L45.bmp,Pictures/IA75.bmp,"

"Don't gamble for this one, play it safe."",0,safe,,,,,1,0,1,0,0,7,7,3,,,,,,,,,,,,,,,,,,,,,,,,,,,,,,,1769.0371502370108,None,1771.0591486459598,1772.5798232450616,1772.5631015340332,None,1774.0670718781184,None,1,0.5838304138742387,1776.089064283995,None,1776.089064283995,None,1776.089064283995,None,1776.807581433095,None,1776.807581433095,1777.8102562411223,1778.9131684359163,None,1778.9131684359163,None,left,0.46372602810151875,1778.9131684359163,None,1779.4144950720947,1780.9184454181232,None,None,,,,,,,,,,,,,119,001,19,1,2020_Mar_04_1159,Test,3.2.4,59.84324420034328,
Pictures/IA100_G20.bmp,Pictures/IA100_G20.bmp,Pictures/IA100.bmp,"

"Go ahead and gamble!"",1,risk,,,,,1,0,1,0,0,8,8,10,,,,,,,,,,,,,,,,,,,,,,,,,,,,,,,1780.9351672779303,None,1782.9571622209623,1784.4778361180797,1784.4611166571267,None,1785.9985119129997,None,1,0.35782884899526834,1787.9870778950863,None,1787.9870778950863,None,1787.9870778950863,None,1788.4382727909833,None,1788.4382727909833,1789.4409268831369,1790.5605019540526,None,1790.5605019540526,None,right,1.192407645052299,1790.5605019540526,None,None,None,1791.7971110041253,None,,,,,,,,,,,,,119,001,19,1,2020_Mar_04_1159,Test,3.2.4,59.84324420034328,
Pictures/IA40_20_L95p.bmp,Pictures/IA40_20_L95p.bmp,Pictures/IA40.bmp,"

"Trust me, gamble!"",1,risk,,,,,1,0,1,0,0,9,9,13,,,,,,,,,,,,,,,,,,,,,,,,,,,,,,,1792.5825116930064,None,1794.6045087911189,1796.1251804479398,1796.1084849541076,None,1797.6959889789578,None,1,0.43847323302179575,1799.6344349510036,None,1799.6344349510036,None,1799.6344349510036,None,1800.1691806300078,None,1800.1691806300078,1801.1718087119516,1802.2747145639732,None,1802.2747145639732,None,left,0.27817891305312514,1802.2747145639732,None,1802.5922196770553,1804.263290575007,None,None,,,,,,,,,,,,,119,001,19,1,2020_Mar_04_1159,Test,3.2.4,59.84324420034328,
Pictures/IA110_55_G95p.bmp,Pictures/IA110_55_G95p.bmp,Pictures/IA110.bmp,"

"Take a chance!"",1,risk,,,,,1,0,1,0,0,10,10,0,,,,,,,,,,,,,,,,,,,,,,,,,,,,,,,1804.2800113430712,None,1806.3187172410544,1807.839389774017,1807.8226739049423,None,1809.3266366790049,None,1,0.7729860849212855,1811.331919936929,None,1811.331919936929,None,1811.331919936929,None,1812.2008737649303,None,1812.2008737649303,1813.2035271229688,1814.30642234697,None,1814.30642234697,None,left,1.542479160008952,1814.30642234697,None,1815.8939357229974,None,None,None,,,,,,,,,,,,,119,001,19,1,2020_Mar_04_1159,Test,3.2.4,59.84324420034328,
Pictures/IA100_G40.bmp,Pictures/IA100_G40.bmp,Pictures/IA100.bmp,"

"Try your luck and gamble!"",1,risk,,,,,1,0,1,0,0,11,11,9,,,,,,,,,,,,,,,,,,,,,,,,,,,,,,,1816.3117117010988,None,1818.333709641127,1819.8543808071408,1819.8376627310645,None,1821.3917663050815,None,1,0.7812690050341189,1823.3636338231154,None,1823.3636338231154,None,1823.3636338231154,None,1824.249297568109,None,1824.249297568109,1825.2519338319544,1826.388266779948,None,1826.388266779948,None,right,0.23663314199075103,1826.388266779948,None,None,None,1826.67234483012,1828.376825174084,,,,,,,,,,,,,119,001,19,1,2020_Mar_04_1159,Test,3.2.4,59.84324420034328,
Pictures/IA75_G60.bmp,Pictures/IA75_G60.bmp,Pictures/IA75.bmp,"

"Make it exciting, take a chance!"",1,risk,,,,,1,0,1,0,0,12,12,5,,,,,,,,,,,,,,,,,,,,,,,,,,,,,,,1828.3935466790572,None,1830.4155446430668,1831.9361793841235,1831.919501213124,None,1833.4234685569536,None,1,0.4914503269828856,1835.4454536740668,None,1835.4454536740668,None,1835.4454536740668,None,1836.0804728639778,None,1836.0804728639778,1837.0831092430744,1838.1860203631222,None,1838.1860203631222,None,left,0.4468860870692879,1838.1860203631222,None,1838.6706240831409,1840.1745760720223,None,None,,,,,,,,,,,,,119,001,19,1,2020_Mar_04_1159,Test,3.2.4,59.84324420034328,
Pictures/IA75_L30.bmp,Pictures/IA75_L30.bmp,Pictures/IA75.bmp,"

"Hold back, stay with the safe choice."",0,safe,,,,,1,0,1,0,0,13,13,1,,,,,,,,,,,,,,,,,,,,,,,,,,,,,,,1840.1912992431317,None,1842.2133065140806,1843.7339664290193,1843.7172478369903,None,1845.2880655659828,None,1,0.5736981499940157,1847.2432062239386,None,1847.2432062239386,None,1847.2432062239386,None,1847.9450221189763,None,1847.9450221189763,1848.947692089947,1850.0506025280338,None,1850.0506025280338,None,right,0.43029248202219605,1850.0506025280338,None,None,None,1850.5185098410584,1852.0391774470918,,,,,,,,,,,,,119,001,19,1,2020_Mar_04_1159,Test,3.2.4,59.84324420034328,
Pictures/IA25_L10.bmp,Pictures/IA25_L10.bmp,Pictures/IA25.bmp,"

"Dont be afraid to take the risk!"",1,risk,,,,,1,0,1,0,0,14,14,6,,,,,,,,,,,,,,,,,,,,,,,,,,,,,,,1852.0558817789424,None,1854.077879962977,1855.598583141109,1855.5818527350202,None,1857.1526460091118,None,1,0.725090981926769,1859.1078167969827,None,1859.1078167969827,None,1859.1078167969827,None,1859.960045152111,None,1859.960045152111,1860.9626830639318,1862.0655942980666,None,1862.0655942980666,None,right,0.44730117497965693,1862.0655942980666,None,None,None,1862.5502025450114,1864.0541720909532,,,,,,,,,,,,,119,001,19,1,2020_Mar_04_1159,Test,3.2.4,59.84324420034328,
Pictures/IA110_55_L95p.bmp,Pictures/IA110_55_L95p.bmp,Pictures/IA110.bmp,"

"Trust me, gamble!"",1,risk,,,,,1,0,1,0,0,15,15,12,,,,,,,,,,,,,,,,,,,,,,,,,,,,,,,1864.0708801900037,None,1866.0928696310148,1867.6135409860872,1867.596845580032,None,1869.1509253501426,None,1,0.6301055308431387,1871.1227914821357,None,1871.1227914821357,None,1871.1227914821357,None,1871.8580735491123,None,1871.8580735491123,1872.8607091710437,1873.96362000308,None,1873.96362000308,None,right,0.4852749118581414,1873.96362000308,None,None,None,1874.4983482060488,1875.9688883470371,,,,,,,,,,,,,119,001,19,1,2020_Mar_04_1159,Test,3.2.4,59.84324420034328,
Pictures/IA25_L5.bmp,Pictures/IA25_L5.bmp,Pictures/IA25.bmp,"

"It would be smarter to choose the safe option."",0,safe,,,,,1,0,1,0,0,16,16,16,,,,,,,,,,,,,,,,,,,,,,,,,,,,,,,1875.9856113309506,None,1878.0076065920293,1879.5282822530717,1879.5115615651011,None,1881.0823767541442,None,1,0.7073943549767137,1883.0375166619197,None,1883.0375166619197,None,1883.0375166619197,None,1883.8897626490798,None,1883.8897626490798,1884.892401864985,1886.0120216079522,None,1886.0120216079522,None,left,0.4928716190624982,1886.0120216079522,None,1886.546772344038,1888.0173137290403,None,None,,,,,,,,,,,,,119,001,19,1,2020_Mar_04_1159,Test,3.2.4,59.84324420034328,
Pictures/IA80_40_G95p.bmp,Pictures/IA80_40_G95p.bmp,Pictures/IA80.bmp,"

"Think of the payoff, gamble!"",1,risk,,,,,1,0,1,0,0,17,17,18,,,,,,,,,,,,,,,,,,,,,,,,,,,,,,,1888.0340119919274,None,1890.0560069209896,1891.5766805489548,1891.5599853771273,None,1893.0806457900908,None,1,0.818977819988504,1895.08593136305,None,1895.08593136305,None,1895.08593136305,None,1896.038451841101,None,1896.038451841101,1897.041087575024,1898.1439995679539,None,1898.1439995679539,None,left,0.9528942280448973,1898.1439995679539,None,1899.146630986128,None,None,None,,,,,,,,,,,,,119,001,19,1,2020_Mar_04_1159,Test,3.2.4,59.84324420034328,
Pictures/IA100_L20.bmp,Pictures/IA100_L20.bmp,Pictures/IA100.bmp,"

"Try to win as much money as you can, gamble!"",1,risk,,,,,1,0,1,0,0,18,18,17,,,,,,,,,,,,,,,,,,,,,,,,,,,,,,,1900.1659885179251,None,1902.1879846919328,1903.7086590491235,1903.6919382619672,None,1905.262753806077,None,1,0.9989812849089503,1907.217910923995,None,1907.217910923995,None,1907.217910923995,None,1908.354232369922,None,1908.354232369922,1909.3568702631164,1910.4764939949382,None,1910.4764939949382,None,right,0.532407762017101,1910.4764939949382,None,None,None,1911.044642261928,1912.4817734530661,,,,,,,,,,,,,119,001,19,1,2020_Mar_04_1159,Test,3.2.4,59.84324420034328,
Pictures/IA100_L80.bmp,Pictures/IA100_L80.bmp,Pictures/IA100.bmp,"

"Go all in!"",1,risk,,,,,1,0,1,0,0,19,19,19,,,,,,,,,,,,,,,,,,,,,,,,,,,,,,,1912.4984716761392,None,1914.5204675770365,1916.041139716981,1916.0244443861302,None,1917.5451693420764,None,1,0.46651508705690503,1919.5503891319968,None,1919.5503891319968,None,1919.5503891319968,None,1920.08514211094,None,1920.08514211094,1921.0877801431343,1922.2074102750048,None,1922.2074102750048,None,left,0.4494776751380414,1922.2074102750048,None,1922.6920096820686,1924.1959597610403,None,None,,,,,,,,,,,,,119,001,19,1,2020_Mar_04_1159,Test,3.2.4,59.84324420034328,
,,,,,,,,,,1,0,1,0,,,,,,,,,,,,,,,,,,,,,,,,,,,,,,,,,,,,,,,,,,,,,,,,,,,,,,,,,,,,,,,,,,,,,,,,,1924.3630477781408,None,return,16.709843205986544,1924.3630477781408,None,119,001,19,1,2020_Mar_04_1159,Test,3.2.4,59.84324420034328,
Pictures/IA75_G45.bmp,Pictures/IA75_G45.bmp,Pictures/IA75.bmp,"

"Don't gamble for this one."",0,safe,,,,,2,0,2,0,0,0,0,10,,,,,,,,,,,,,1941.224173545139,None,1941.224173545139,None,1941.224173545139,None,left,0.9607154531404376,1941.224173545139,None,1941.224173545139,None,1941.224173545139,None,return,2.0484816189855337,1941.224173545139,None,1943.3297095429152,None,1945.3350046090782,1946.8556816270575,1946.8389569539577,None,1948.3429191389587,None,1,0.7007053308188915,1950.348205307033,None,1950.348205307033,None,1950.348205307033,None,1951.1503270389512,None,1951.1503270389512,1952.1529641870875,1953.2558758971281,None,1953.2558758971281,None,left,0.33702256297692657,1953.2558758971281,None,1953.640218493063,1955.244448048994,None,None,,,,,,,,,,,,,119,001,19,1,2020_Mar_04_1159,Test,3.2.4,59.84324420034328,
Pictures/IA50_G40.bmp,Pictures/IA50_G40.bmp,Pictures/IA50.bmp,"

"It would probably be best to play it safe."",0,safe,,,,,2,0,2,0,0,1,1,6,,,,,,,,,,,,,,,,,,,,,,,,,,,,,,,1955.2611458289903,None,1957.2831426621415,1958.803815154126,1958.787119727116,None,1960.3411987710278,None,1,0.5998341490048915,1962.3130623500329,None,1962.3130623500329,None,1962.3130623500329,None,1963.0483433189802,None,1963.0483433189802,1964.050983594032,1965.1538923580665,None,1965.1538923580665,None,left,1.0390068080741912,1965.1538923580665,None,1966.2400837580208,None,None,None,,,,,,,,,,,,,119,001,19,1,2020_Mar_04_1159,Test,3.2.4,59.84324420034328,
Pictures/IA20_10_L95p.bmp,Pictures/IA20_10_L95p.bmp,Pictures/IA20.bmp,"

"Don't be tempted to gamble."",0,safe,,,,,2,0,2,0,0,2,2,7,,,,,,,,,,,,,,,,,,,,,,,,,,,,,,,1967.15917696408,None,1969.1811695510987,1970.7018402109388,1970.6851218310185,None,1972.255950249033,None,1,0.5738163061905652,1974.211087064119,None,1974.211087064119,None,1974.211087064119,None,1974.8962176549248,None,1974.8962176549248,1975.898855338106,1977.0017667119391,None,1977.0017667119391,None,left,0.4711338148918003,1977.0017667119391,None,1977.5198544550221,1978.990334419068,None,None,,,,,,,,,,,,,119,001,19,1,2020_Mar_04_1159,Test,3.2.4,59.84324420034328,
Pictures/IA75_L45.bmp,Pictures/IA75_L45.bmp,Pictures/IA75.bmp,"

"Don't gamble for this one, play it safe."",0,safe,,,,,2,0,2,0,0,3,3,18,,,,,,,,,,,,,,,,,,,,,,,,,,,,,,,1979.0070613201242,None,1981.0290567579214,1982.5497240710538,1982.5330081151333,None,1984.070401980076,None,1,0.7819354839157313,1986.0589641870465,None,1986.0589641870465,None,1986.0589641870465,None,1986.9613123720046,None,1986.9613123720046,1987.9639781001024,1989.066891625058,None,1989.066891625058,None,left,0.6459973210003227,1989.066891625058,None,1989.7520265120547,1991.0554687040858,None,None,,,,,,,,,,,,,119,001,19,1,2020_Mar_04_1159,Test,3.2.4,59.84324420034328,
Pictures/IA100_G20.bmp,Pictures/IA100_G20.bmp,Pictures/IA100.bmp,"

"Go ahead and gamble!"",1,risk,,,,,2,0,2,0,0,4,4,1,,,,,,,,,,,,,,,,,,,,,,,,,,,,,,,1991.0721690920182,None,1993.0941644159611,1994.6148367980495,1994.5981443000492,None,1996.1020904339384,None,1,0.5328067131340504,1998.1240976590198,None,1998.1240976590198,None,1998.1240976590198,None,1998.7423829280306,None,1998.7423829280306,1999.7450193399563,2000.8479314269498,None,2000.8479314269498,None,right,0.2969769570045173,2000.8479314269498,None,None,None,2001.1821516740602,2002.836510014953,,,,,,,,,,,,,119,001,19,1,2020_Mar_04_1159,Test,3.2.4,59.84324420034328,
Pictures/IA110_55_L95p.bmp,Pictures/IA110_55_L95p.bmp,Pictures/IA110.bmp,"

"Trust me, gamble!"",1,risk,,,,,2,0,2,0,0,5,5,0,,,,,,,,,,,,,,,,,,,,,,,,,,,,,,,2002.8532112720422,None,2004.875204833923,2006.3791781479958,2006.3624615059234,None,2007.8998466820922,None,1,0.43977493583224714,2009.90513234213,None,2009.90513234213,None,2009.90513234213,None,2010.4398658429272,None,2010.4398658429272,2011.442507655127,2012.5454254650977,None,2012.5454254650977,None,right,0.5994670100044459,2012.5454254650977,None,None,None,2013.180431239074,2014.5506993199233,,,,,,,,,,,,,119,001,19,1,2020_Mar_04_1159,Test,3.2.4,59.84324420034328,
Pictures/IA75_G15.bmp,Pictures/IA75_G15.bmp,Pictures/IA75.bmp,"

"Take a chance!"",1,risk,,,,,2,0,2,0,0,6,6,2,,,,,,,,,,,,,,,,,,,,,,,,,,,,,,,2014.5674259611405,None,2016.5894159141462,2018.1100887819193,2018.0933731829282,None,2019.597342788009,None,1,0.7735780470538884,2021.6193284229375,None,2021.6193284229375,None,2021.6193284229375,None,2022.4882818139158,None,2022.4882818139158,2023.4909201930277,2024.5938325801399,None,2024.5938325801399,None,right,0.3590664640069008,2024.5938325801399,None,None,None,2024.9948969071265,2026.5991212769877,,,,,,,,,,,,,119,001,19,1,2020_Mar_04_1159,Test,3.2.4,59.84324420034328,
Pictures/IA100_L80.bmp,Pictures/IA100_L80.bmp,Pictures/IA100.bmp,"

"Go all in!"",1,risk,,,,,2,0,2,0,0,7,7,19,,,,,,,,,,,,,,,,,,,,,,,,,,,,,,,2026.6158204050735,None,2028.6378208729438,2030.141793311108,2030.125071336981,None,2031.679165712092,None,1,0.7731561688706279,2033.6677498619538,None,2033.6677498619538,None,2033.6677498619538,None,2034.5199954321142,None,2034.5199954321142,2035.5226336680353,2036.675675380975,None,2036.675675380975,None,None,,2036.675675380975,None,None,None,None,None,,,,,,,,,,,,,119,001,19,1,2020_Mar_04_1159,Test,3.2.4,59.84324420034328,
Pictures/IA75_L60.bmp,Pictures/IA75_L60.bmp,Pictures/IA75.bmp,"

"Why not take the gamble?"",1,risk,,,,,2,0,2,0,0,8,8,5,,,,,,,,,,,,,,,,,,,,,,,,,,,,,,,2038.6809545441065,None,2040.7029513290618,2042.2236235530581,2042.2069164221175,None,2043.7275886191055,None,1,0.5240360971074551,2045.7328730190638,None,2045.7328730190638,None,2045.7328730190638,None,2046.3678682069294,None,2046.3678682069294,2047.370505338069,2048.4734181631356,None,2048.4734181631356,None,left,1.3754813829436898,2048.4734181631356,None,2049.893822322134,None,None,None,,,,,,,,,,,,,119,001,19,1,2020_Mar_04_1159,Test,3.2.4,59.84324420034328,
Pictures/IA100_G60.bmp,Pictures/IA100_G60.bmp,Pictures/IA100.bmp,"

"Be cautious, don't gamble for this one."",0,safe,,,,,2,0,2,0,0,9,9,11,,,,,,,,,,,,,,,,,,,,,,,,,,,,,,,2050.4786956510507,None,2052.5006912669633,2054.0213646709453,2054.00466660806,None,2055.558749523014,None,1,0.5582925609778613,2057.5306152570993,None,2057.5306152570993,None,2057.5306152570993,None,2058.2324717119336,None,2058.2324717119336,2059.2351129739545,2060.338024944067,None,2060.338024944067,None,left,0.35088191693648696,2060.338024944067,None,2060.722369571915,2062.3265898590907,None,None,,,,,,,,,,,,,119,001,19,1,2020_Mar_04_1159,Test,3.2.4,59.84324420034328,
Pictures/IA80_40_G95p.bmp,Pictures/IA80_40_G95p.bmp,Pictures/IA80.bmp,"

"Think of the payoff, gamble!"",1,risk,,,,,2,0,2,0,0,10,10,13,,,,,,,,,,,,,,,,,,,,,,,,,,,,,,,2062.3432945651,None,2064.3652857670095,2065.885958898114,2065.869261955144,None,2067.4066317379475,None,1,0.8056900920346379,2069.395220199134,None,2069.395220199134,None,2069.395220199134,None,2070.331017822027,None,2070.331017822027,2071.333657037001,2072.4365679679904,None,2072.4365679679904,None,right,0.9403280259575695,2072.4365679679904,None,None,None,2073.4224946131,None,,,,,,,,,,,,,119,001,19,1,2020_Mar_04_1159,Test,3.2.4,59.84324420034328,
Pictures/IA25_G5.bmp,Pictures/IA25_G5.bmp,Pictures/IA25.bmp,"

"Let's stay with the certain option."",0,safe,,,,,2,0,2,0,0,11,11,3,,,,,,,,,,,,,,,,,,,,,,,,,,,,,,,2074.4418369180057,None,2076.4638306829147,2077.9845023369417,2077.967810604954,None,2079.5051789749414,None,1,0.8431402819696814,2081.493763698032,None,2081.493763698032,None,2081.493763698032,None,2082.4629876450635,None,2082.4629876450635,2083.465620751027,2084.568533611018,None,2084.568533611018,None,left,0.48836479894816875,2084.568533611018,None,2085.1032618461177,2086.5738011309877,None,None,,,,,,,,,,,,,119,001,19,1,2020_Mar_04_1159,Test,3.2.4,59.84324420034328,
Pictures/IA25_L20.bmp,Pictures/IA25_L20.bmp,Pictures/IA25.bmp,"

"Don't be tempted to gamble."",0,safe,,,,,2,0,2,0,0,12,12,12,,,,,,,,,,,,,,,,,,,,,,,,,,,,,,,2086.5905236760154,None,2088.6125196390785,2090.133189948974,2090.1164743399713,None,2091.6371553160716,None,1,0.48646426713094115,2093.642444839934,None,2093.642444839934,None,2093.642444839934,None,2094.2440154349897,None,2094.2440154349897,2095.246651483001,2096.3495632680133,None,2096.3495632680133,None,left,0.5153259509243071,2096.3495632680133,None,2096.9010120970197,2098.338130216114,None,None,,,,,,,,,,,,,119,001,19,1,2020_Mar_04_1159,Test,3.2.4,59.84324420034328,
Pictures/IA100_L60.bmp,Pictures/IA100_L60.bmp,Pictures/IA100.bmp,"

"You'd have a lot to lose, don't gamble."",0,safe,,,,,2,0,2,0,0,13,13,4,,,,,,,,,,,,,,,,,,,,,,,,,,,,,,,2098.354852504097,None,2100.3768480571453,2101.8808023640886,2101.8641038979404,None,2103.401487675961,None,1,0.6661294419318438,2105.406771100126,None,2105.406771100126,None,2105.406771100126,None,2106.208882054081,None,2106.208882054081,2107.2115218869876,2108.3144222421106,None,2108.3144222421106,None,None,,2108.3144222421106,None,None,None,None,None,,,,,,,,,,,,,119,001,19,1,2020_Mar_04_1159,Test,3.2.4,59.84324420034328,
Pictures/IA25_L15.bmp,Pictures/IA25_L15.bmp,Pictures/IA25.bmp,"

"There's not much on the line here, gamble!"",1,risk,,,,,2,0,2,0,0,14,14,16,,,,,,,,,,,,,,,,,,,,,,,,,,,,,,,2110.3197000301443,None,2112.3416971920524,2113.8623720479663,2113.8456768670585,None,2115.366337609943,None,1,0.613280741032213,2117.371622581035,None,2117.371622581035,None,2117.371622581035,None,2118.140310489107,None,2118.140310489107,2119.1429481850937,2120.262571108062,None,2120.262571108062,None,left,1.0183287430554628,2120.262571108062,None,2121.315341752954,None,None,None,,,,,,,,,,,,,119,001,19,1,2020_Mar_04_1159,Test,3.2.4,59.84324420034328,
Pictures/IA50_L10.bmp,Pictures/IA50_L10.bmp,Pictures/IA50.bmp,"

"Play it safe, don’t gamble!"",0,safe,,,,,2,0,2,0,0,15,15,15,,,,,,,,,,,,,,,,,,,,,,,,,,,,,,,2122.26785137807,None,2124.2898471651133,2125.810518729035,2125.7938207250554,None,2127.3144858030137,None,1,0.41712976596318185,2129.31977284397,None,2129.31977284397,None,2129.31977284397,None,2129.854509731056,None,2129.854509731056,2130.8571475469507,2131.9600595720112,None,2131.9600595720112,None,left,0.7048383858054876,2131.9600595720112,None,2132.712035696022,2133.948637783993,None,None,,,,,,,,,,,,,119,001,19,1,2020_Mar_04_1159,Test,3.2.4,59.84324420034328,
Pictures/IA25_L5.bmp,Pictures/IA25_L5.bmp,Pictures/IA25.bmp,"

"It would be smarter to choose the safe option."",0,safe,,,,,2,0,2,0,0,16,16,14,,,,,,,,,,,,,,,,,,,,,,,,,,,,,,,2133.965340600116,None,2135.987333717989,2137.5080046330113,2137.491308042081,None,2138.995259277057,None,1,0.9196292229462415,2141.0172703550197,None,2141.0172703550197,None,2141.0172703550197,None,2142.086741504958,None,2142.086741504958,2143.0893784889486,2144.19229148305,None,2144.19229148305,None,right,1.6806051039602607,2144.19229148305,None,None,None,2145.9134859370533,None,,,,,,,,,,,,,119,001,19,1,2020_Mar_04_1159,Test,3.2.4,59.84324420034328,
Pictures/IA110_55_G95p.bmp,Pictures/IA110_55_G95p.bmp,Pictures/IA110.bmp,"

"Take a chance!"",1,risk,,,,,2,0,2,0,0,17,17,8,,,,,,,,,,,,,,,,,,,,,,,,,,,,,,,2146.197579683969,None,2148.2195774139836,2149.723526370013,2149.706827880116,None,2151.2609231129754,None,1,0.3754200330004096,2153.2494874601252,None,2153.2494874601252,None,2153.2494874601252,None,2153.7173823621124,None,2153.7173823621124,2154.7200220129453,2155.822934536962,None,2155.822934536962,None,left,0.23396498383954167,2155.822934536962,None,2156.090313134948,2157.828226845013,None,None,,,,,,,,,,,,,119,001,19,1,2020_Mar_04_1159,Test,3.2.4,59.84324420034328,
Pictures/IA100_L40.bmp,Pictures/IA100_L40.bmp,Pictures/IA100.bmp,"

"Think of the payoff, gamble!"",1,risk,,,,,2,0,2,0,0,18,18,9,,,,,,,,,,,,,,,,,,,,,,,,,,,,,,,2157.8449218301103,None,2159.866919629043,2161.3875886069145,2161.3708946239203,None,2162.891556177987,None,1,0.7040608879178762,2164.896842173068,None,2164.896842173068,None,2164.896842173068,None,2165.732374595944,None,2165.732374595944,2166.735012297053,2167.837919496931,None,2167.837919496931,None,right,0.36296852002851665,2167.837919496931,None,None,None,2168.2389888509642,2169.8432124401443,,,,,,,,,,,,,119,001,19,1,2020_Mar_04_1159,Test,3.2.4,59.84324420034328,
Pictures/IA50_L40.bmp,Pictures/IA50_L40.bmp,Pictures/IA50.bmp,"

"That gamble doesn't sound too good, play it safe."",0,safe,,,,,2,0,2,0,0,19,19,17,,,,,,,,,,,,,,,,,,,,,,,,,,,,,,,2169.8599136611447,None,2171.8819080521353,2173.4025826000143,2173.3858870449476,None,2174.9399674909655,None,1,0.47307594190351665,2176.911831211997,None,2176.911831211997,None,2176.911831211997,None,2177.5468371810857,None,2177.5468371810857,2178.5494780291338,2179.6523873149417,None,2179.6523873149417,None,left,1.1085103978402913,2179.6523873149417,None,2180.80542152212,None,None,None,,,,,,,,,,,,,119,001,19,1,2020_Mar_04_1159,Test,3.2.4,59.84324420034328,
,,,,,,,,,,2,0,2,0,,,,,,,,,,,,,,,,,,,,,,,,,,,,,,,,,,,,,,,,,,,,,,,,,,,,,,,,,,,,,,,,,,,,,,,,,2181.8080860779155,None,return,11.928810918005183,2181.8080860779155,None,119,001,19,1,2020_Mar_04_1159,Test,3.2.4,59.84324420034328,
Pictures/IA25_G15.bmp,Pictures/IA25_G15.bmp,Pictures/IA25.bmp,"

"I think you should take a gamble."",1,risk,,,,,3,0,3,0,0,0,0,1,,,,,,,,,,,,,2193.8899087600876,None,2193.8899087600876,None,2193.8899087600876,None,left,2.2229918490629643,2193.8899087600876,None,2193.8899087600876,None,2193.8899087600876,None,return,4.710765576921403,2193.8899087600876,None,2198.652444466017,None,2200.6577440700494,2202.178411838133,2202.161695873132,None,2203.7324973300565,None,1,0.5939647741615772,2205.6709421840496,None,2205.6709421840496,None,2205.6709421840496,None,2206.3895091449376,None,2206.3895091449376,2207.3921481841244,2208.4950634171255,None,2208.4950634171255,None,right,0.27383150602690876,2208.4950634171255,None,None,None,2208.812560315011,2210.4836312159896,,,,,,,,,,,,,119,001,19,1,2020_Mar_04_1159,Test,3.2.4,59.84324420034328,
Pictures/IA100_L80.bmp,Pictures/IA100_L80.bmp,Pictures/IA100.bmp,"

"Go all in!"",1,risk,,,,,3,0,3,0,0,1,1,8,,,,,,,,,,,,,,,,,,,,,,,,,,,,,,,2210.5003285179846,None,2212.5223242160864,2214.0429978631437,2214.0263023390435,None,2215.530250550946,None,1,0.7125667599029839,2217.5523200859316,None,2217.5523200859316,None,2217.5523200859316,None,2218.3376648949925,None,2218.3376648949925,2219.340297197923,2220.476631930098,None,2220.476631930098,None,left,0.31626315182074904,2220.476631930098,None,2220.827550871996,2222.4819434599485,None,None,,,,,,,,,,,,,119,001,19,1,2020_Mar_04_1159,Test,3.2.4,59.84324420034328,
Pictures/IA50_G10.bmp,Pictures/IA50_G10.bmp,Pictures/IA50.bmp,"

"Go with the safe option here!"",0,safe,,,,,3,0,3,0,0,2,2,10,,,,,,,,,,,,,,,,,,,,,,,,,,,,,,,2222.49861600413,None,2224.5206052409485,2226.0413054069504,2226.024587220978,None,2227.578663313994,None,1,0.4823681500274688,2229.550528125139,None,2229.550528125139,None,2229.550528125139,None,2230.1354067861103,None,2230.1354067861103,2231.1380407600664,2232.2576604739297,None,2232.2576604739297,None,left,0.19125560601241887,2232.2576604739297,None,2232.491617501946,2234.2629397150595,None,None,,,,,,,,,,,,,119,001,19,1,2020_Mar_04_1159,Test,3.2.4,59.84324420034328,
Pictures/IA75_G15.bmp,Pictures/IA75_G15.bmp,Pictures/IA75.bmp,"

"Take a chance!"",1,risk,,,,,3,0,3,0,0,3,3,15,,,,,,,,,,,,,,,,,,,,,,,,,,,,,,,2234.279662441928,None,2236.301657920005,2237.805623248918,2237.7889225641266,None,2239.343005948933,None,1,0.6453376859426498,2241.3315668881405,None,2241.3315668881405,None,2241.3315668881405,None,2242.066837184131,None,2242.066837184131,2243.069476285018,2244.172387831146,None,2244.172387831146,None,left,1.3965038449969143,2244.172387831146,None,2245.6095148751047,None,None,None,,,,,,,,,,,,,119,001,19,1,2020_Mar_04_1159,Test,3.2.4,59.84324420034328,
Pictures/IA20_10_G95p.bmp,Pictures/IA20_10_G95p.bmp,Pictures/IA20.bmp,"

"Take a leap, I think you should gamble."",1,risk,,,,,3,0,3,0,0,4,4,13,,,,,,,,,,,,,,,,,,,,,,,,,,,,,,,2246.194389380049,None,2248.216390816029,2249.7203327140305,2249.703638462117,None,2251.2577331170905,None,1,0.5786203839816153,2253.246297135949,None,2253.246297135949,None,2253.246297135949,None,2253.9648579300847,None,2253.9648579300847,2254.9674922139384,2256.0871135790367,None,2256.0871135790367,None,None,,2256.0871135790367,None,None,None,None,None,,,,,,,,,,,,,119,001,19,1,2020_Mar_04_1159,Test,3.2.4,59.84324420034328,
Pictures/IA75_L45.bmp,Pictures/IA75_L45.bmp,Pictures/IA75.bmp,"

"Don't gamble for this one, play it safe."",0,safe,,,,,3,0,3,0,0,5,5,3,,,,,,,,,,,,,,,,,,,,,,,,,,,,,,,2258.0923933549784,None,2260.1143948601093,2261.6350614191033,2261.6183725940064,None,2263.122320627095,None,1,1.064585531130433,2265.1443275569472,None,2265.1443275569472,None,2265.1443275569472,None,2266.3474790570326,None,2266.3474790570326,2267.3501224599313,2268.4697409640066,None,2268.4697409640066,None,left,0.4031624379567802,2268.4697409640066,None,2268.9209262640215,2270.4583096019924,None,None,,,,,,,,,,,,,119,001,19,1,2020_Mar_04_1159,Test,3.2.4,59.84324420034328,
Pictures/IA50_L10.bmp,Pictures/IA50_L10.bmp,Pictures/IA50.bmp,"

"Play it safe, don’t gamble!"",0,safe,,,,,3,0,3,0,0,6,6,17,,,,,,,,,,,,,,,,,,,,,,,,,,,,,,,2270.4750307949726,None,2272.497028528014,2274.017701679142,2274.000979997916,None,2275.5383731019683,None,1,0.49789179814979434,2277.5269956591073,None,2277.5269956591073,None,2277.5269956591073,None,2278.1285401750356,None,2278.1285401750356,2279.1311702679377,2280.2340839600656,None,2280.2340839600656,None,right,0.44681008788757026,2280.2340839600656,None,None,None,2280.718687894987,2282.222650490934,,,,,,,,,,,,,119,001,19,1,2020_Mar_04_1159,Test,3.2.4,59.84324420034328,
Pictures/IA100_L40.bmp,Pictures/IA100_L40.bmp,Pictures/IA100.bmp,"

"Think of the payoff, gamble!"",1,risk,,,,,3,0,3,0,0,7,7,4,,,,,,,,,,,,,,,,,,,,,,,,,,,,,,,2282.2393605241086,None,2284.261359767057,2285.765307478141,2285.7486105740536,None,2287.2692847689614,None,1,0.813633079873398,2289.29126459104,None,2289.29126459104,None,2289.29126459104,None,2290.227065900108,None,2290.227065900108,2291.229705122998,2292.332616687985,None,2292.332616687985,None,right,0.5402792410459369,2292.332616687985,None,None,None,2292.917486980092,2294.32118466706,,,,,,,,,,,,,119,001,19,1,2020_Mar_04_1159,Test,3.2.4,59.84324420034328,
Pictures/IA50_L40.bmp,Pictures/IA50_L40.bmp,Pictures/IA50.bmp,"

"That gamble doesn't sound too good, play it safe."",0,safe,,,,,3,0,3,0,0,8,8,19,,,,,,,,,,,,,,,,,,,,,,,,,,,,,,,2294.3379055301193,None,2296.3599045891315,2297.8805761691183,2297.8638560851105,None,2299.3678296450526,None,1,1.187083174008876,2301.389815829927,None,2301.389815829927,None,2301.389815829927,None,2302.7433906970546,None,2302.7433906970546,2303.746026569046,2304.8823612760752,None,2304.8823612760752,None,left,0.4305366550106555,2304.8823612760752,None,2305.350243210094,2306.887628081953,None,None,,,,,,,,,,,,,119,001,19,1,2020_Mar_04_1159,Test,3.2.4,59.84324420034328,
Pictures/IA25_L15.bmp,Pictures/IA25_L15.bmp,Pictures/IA25.bmp,"

"There's not much on the line here, gamble!"",1,risk,,,,,3,0,3,0,0,9,9,12,,,,,,,,,,,,,,,,,,,,,,,,,,,,,,,2306.9043549529742,None,2308.9263464480173,2310.447023903951,2310.4303008390125,None,2311.934274066938,None,1,0.6606470479164273,2313.956258427119,None,2313.956258427119,None,2313.956258427119,None,2314.758379854029,None,2314.758379854029,2315.761020537,2316.8639319271315,None,2316.8639319271315,None,left,0.424962640972808,2316.8639319271315,None,2317.3318153431173,2318.8692005791236,None,None,,,,,,,,,,,,,119,001,19,1,2020_Mar_04_1159,Test,3.2.4,59.84324420034328,
Pictures/IA75_G30.bmp,Pictures/IA75_G30.bmp,Pictures/IA75.bmp,"

"Be bold, gamble!"",1,risk,,,,,3,0,3,0,0,10,10,0,,,,,,,,,,,,,,,,,,,,,,,,,,,,,,,2318.8859194670804,None,2320.907924212981,2322.4285867139697,2322.4118736940436,None,2323.9826855780557,None,1,0.8230374080594629,2325.9378589440603,None,2325.9378589440603,None,2325.9378589440603,None,2326.8569464141037,None,2326.8569464141037,2327.8595668850467,2328.9792238769587,None,2328.9792238769587,None,right,0.22970332810655236,2328.9792238769587,None,None,None,2329.2465682299808,2330.984464999987,,,,,,,,,,,,,119,001,19,1,2020_Mar_04_1159,Test,3.2.4,59.84324420034328,
Pictures/IA110_55_L95p.bmp,Pictures/IA110_55_L95p.bmp,Pictures/IA110.bmp,"

"Trust me, gamble!"",1,risk,,,,,3,0,3,0,0,11,11,2,,,,,,,,,,,,,,,,,,,,,,,,,,,,,,,2331.0011640221346,None,2333.023196858121,2334.5271511720493,2334.5104140229523,None,2336.048527325969,None,1,0.8336363539565355,2338.0552773780655,None,2338.0552773780655,None,2338.0552773780655,None,2338.9889420319814,None,2338.9889420319814,2340.0519682699814,2341.445386962965,None,2341.445386962965,None,right,0.48347494495101273,2341.445386962965,None,None,None,2341.963545188075,2343.461332004983,,,,,,,,,,,,,119,001,19,1,2020_Mar_04_1159,Test,3.2.4,59.84324420034328,
Pictures/IA25_G10.bmp,Pictures/IA25_G10.bmp,Pictures/IA25.bmp,"

"What's life without a little risk?"",1,risk,,,,,3,0,3,0,0,12,12,14,,,,,,,,,,,,,,,,,,,,,,,,,,,,,,,2343.4903127269354,None,2345.6063563530333,2347.127890242962,2347.113940658048,None,2348.8337269350886,None,1,0.7841989470180124,2350.552711165976,None,2350.552711165976,None,2350.552711165976,None,2351.4890371579677,None,2351.4890371579677,2352.4911574861035,2353.6274682569783,None,2353.6274682569783,None,right,0.34144872799515724,2353.6274682569783,None,None,None,2354.0119142609183,2355.618809645064,,,,,,,,,,,,,119,001,19,1,2020_Mar_04_1159,Test,3.2.4,59.84324420034328,
Pictures/IA50_G40.bmp,Pictures/IA50_G40.bmp,Pictures/IA50.bmp,"

"It would probably be best to play it safe."",0,safe,,,,,3,0,3,0,0,13,13,18,,,,,,,,,,,,,,,,,,,,,,,,,,,,,,,2355.6494627860375,None,2357.6881645531394,2359.192161164945,2359.1586969129276,None,2360.729518688051,None,1,0.6122623519040644,2362.6846520239487,None,2362.6846520239487,None,2362.6846520239487,None,2363.4533745660447,None,2363.4533745660447,2364.4560052091256,2365.592333636945,None,2365.592333636945,None,right,0.4725661901757121,2365.592333636945,None,None,None,2366.1103812989313,2367.58715351508,,,,,,,,,,,,,119,001,19,1,2020_Mar_04_1159,Test,3.2.4,59.84324420034328,
Pictures/IA100_G40.bmp,Pictures/IA100_G40.bmp,Pictures/IA100.bmp,"

"Try your luck and gamble!"",1,risk,,,,,3,0,3,0,0,14,14,5,,,,,,,,,,,,,,,,,,,,,,,,,,,,,,,2367.5975736749824,None,2369.6363435329404,2371.1403076029383,2371.1068470219616,None,2372.6943884019274,None,1,0.5033765740226954,2374.649530979106,None,2374.649530979106,None,2374.649530979106,None,2375.267812984064,None,2375.267812984064,2376.2704694850836,2377.390087981941,None,2377.390087981941,None,right,0.3468044239562005,2377.390087981941,None,None,None,2377.7744612779934,2379.3786521479487,,,,,,,,,,,,,119,001,19,1,2020_Mar_04_1159,Test,3.2.4,59.84324420034328,
Pictures/IA100_G80.bmp,Pictures/IA100_G80.bmp,Pictures/IA100.bmp,"

"Why not gamble?"",1,risk,,,,,3,0,3,0,0,15,15,9,,,,,,,,,,,,,,,,,,,,,,,,,,,,,,,2379.395377089968,None,2381.417371062096,2382.93803773704,2382.9213579720818,None,2384.4921062320936,None,1,0.9296318429987878,2386.4472719319165,None,2386.4472719319165,None,2386.4472719319165,None,2387.466611728072,None,2387.466611728072,2388.4692504489794,2389.5888754699845,None,2389.5888754699845,None,right,0.38802241696976125,2389.5888754699845,None,None,None,2390.023355724057,2391.5941527681425,,,,,,,,,,,,,119,001,19,1,2020_Mar_04_1159,Test,3.2.4,59.84324420034328,
Pictures/IA75_L30.bmp,Pictures/IA75_L30.bmp,Pictures/IA75.bmp,"

"Hold back, stay with the safe choice."",0,safe,,,,,3,0,3,0,0,16,16,7,,,,,,,,,,,,,,,,,,,,,,,,,,,,,,,2391.610871687066,None,2393.649579262128,2395.170253351098,2395.1535359250847,None,2396.7075950370636,None,1,0.5461152489297092,2398.6627972319257,None,2398.6627972319257,None,2398.6627972319257,None,2399.347927808063,None,2399.347927808063,2400.3505656321067,2401.4534768250305,None,2401.4534768250305,None,left,0.32342058792710304,2401.4534768250305,None,2401.821098070126,2403.458758936031,None,None,,,,,,,,,,,,,119,001,19,1,2020_Mar_04_1159,Test,3.2.4,59.84324420034328,
Pictures/IA80_40_G95p.bmp,Pictures/IA80_40_G95p.bmp,Pictures/IA80.bmp,"

"Think of the payoff, gamble!"",1,risk,,,,,3,0,3,0,0,17,17,16,,,,,,,,,,,,,,,,,,,,,,,,,,,,,,,2403.4754588219803,None,2405.514163362095,2407.0348349839915,2407.0181381891016,None,2408.555520711001,None,1,0.8895229438785464,2410.527384873014,None,2410.527384873014,None,2410.527384873014,None,2411.5467369339895,None,2411.5467369339895,2412.5493623639923,2413.6522796850186,None,2413.6522796850186,None,right,0.9406167599372566,2413.6522796850186,None,None,None,2414.6382028569933,None,,,,,,,,,,,,,119,001,19,1,2020_Mar_04_1159,Test,3.2.4,59.84324420034328,
Pictures/IA40_20_L95p.bmp,Pictures/IA40_20_L95p.bmp,Pictures/IA40.bmp,"

"Trust me, gamble!"",1,risk,,,,,3,0,3,0,0,18,18,11,,,,,,,,,,,,,,,,,,,,,,,,,,,,,,,2415.6575649930164,None,2417.712984116981,2419.2169402709696,2419.2002389640547,None,2420.754332480952,None,1,1.0114327718038112,2422.7094734380953,None,2422.7094734380953,None,2422.7094734380953,None,2423.812382664066,None,2423.812382664066,2424.8150142410304,2425.9513534000143,None,2425.9513534000143,None,right,0.33755208598449826,2425.9513534000143,None,None,None,2426.335690974025,2427.93991529895,,,,,,,,,,,,,119,001,19,1,2020_Mar_04_1159,Test,3.2.4,59.84324420034328,
Pictures/IA25_L20.bmp,Pictures/IA25_L20.bmp,Pictures/IA25.bmp,"

"Don't be tempted to gamble."",0,safe,,,,,3,0,3,0,0,19,19,6,,,,,,,,,,,,,,,,,,,,,,,,,,,,,,,2427.956640064018,None,2429.9786320750136,2431.499308536062,2431.4825864881277,None,2433.053406449966,None,1,0.7603572958614677,2435.008545525139,None,2435.008545525139,None,2435.008545525139,None,2435.877514166059,None,2435.877514166059,2436.8801492939238,2437.98306498304,None,2437.98306498304,None,left,0.28982826182618737,2437.98306498304,None,2438.31726116105,2439.988328780979,None,None,,,,,,,,,,,,,119,001,19,1,2020_Mar_04_1159,Test,3.2.4,59.84324420034328,
,,,,,,,,,,3,0,3,0,,,,,,,,,,,,,,,,,,,,,,,,,,,,,,,,,,,,,,,,,,,,,,,,,,,,,,,,,,,,,,,,,,,,,,,,,2440.155449809972,None,return,11.469441895140335,2440.155449809972,None,119,001,19,1,2020_Mar_04_1159,Test,3.2.4,59.84324420034328,
Pictures/IA25_L10.bmp,Pictures/IA25_L10.bmp,Pictures/IA25.bmp,"

"Dont be afraid to take the risk!"",1,risk,,,,,4,0,4,0,0,0,0,17,,,,,,,,,,,,,2451.8028035180178,None,2451.8028035180178,None,2451.8028035180178,None,left,1.9740851330570877,2451.8028035180178,None,2451.8028035180178,None,2451.8028035180178,None,return,3.1978883701376617,2451.8028035180178,None,2455.061380604049,None,2457.066676073009,2458.587344529107,2458.5706281790044,None,2460.1080132899806,None,1,0.9770327338483185,2462.07987449714,None,2462.07987449714,None,2462.07987449714,None,2463.182778934017,None,2463.182778934017,2464.1854174579494,2465.2883302450646,None,2465.2883302450646,None,right,0.8885647819843143,2465.2883302450646,None,None,None,2466.2241437730845,2467.293619821081,,,,,,,,,,,,,119,001,19,1,2020_Mar_04_1159,Test,3.2.4,59.84324420034328,
Pictures/IA75_L45.bmp,Pictures/IA75_L45.bmp,Pictures/IA75.bmp,"

"Don't gamble for this one, play it safe."",0,safe,,,,,4,0,4,0,0,1,1,9,,,,,,,,,,,,,,,,,,,,,,,,,,,,,,,2467.3103179901373,None,2469.3323140591383,2470.8529862919822,2470.8362897580955,None,2472.3903781101108,None,1,0.6946782430168241,2474.3622365810443,None,2474.3622365810443,None,2474.3622365810443,None,2475.1977816380095,None,2475.1977816380095,2476.2004195330665,2477.3033299830277,None,2477.3033299830277,None,left,0.0895644431002438,2477.3033299830277,None,2477.4370017880574,2479.3085989251267,None,None,,,,,,,,,,,,,119,001,19,1,2020_Mar_04_1159,Test,3.2.4,59.84324420034328,
Pictures/IA25_G10.bmp,Pictures/IA25_G10.bmp,Pictures/IA25.bmp,"

"What's life without a little risk?"",1,risk,,,,,4,0,4,0,0,2,2,13,,,,,,,,,,,,,,,,,,,,,,,,,,,,,,,2479.3253205420915,None,2481.347314415034,2482.8679894339293,2482.851271561114,None,2484.3552437180188,None,1,0.0156716532073915,2486.3772354910616,None,2486.3772354910616,None,2486.3772354910616,None,2486.5109130491037,None,2486.5109130491037,2487.5135531360283,2488.6164607550018,None,2488.6164607550018,None,None,,2488.6164607550018,None,None,None,None,None,,,,,,,,,,,,,119,001,19,1,2020_Mar_04_1159,Test,3.2.4,59.84324420034328,
Pictures/IA75_L30.bmp,Pictures/IA75_L30.bmp,Pictures/IA75.bmp,"

"Hold back, stay with the safe choice."",0,safe,,,,,4,0,4,0,0,3,3,12,,,,,,,,,,,,,,,,,,,,,,,,,,,,,,,2490.6217429479584,None,2492.643735784106,2494.1644115510862,2494.1477174351458,None,2495.6516647010576,None,1,0.4792212110478431,2497.6736741689965,None,2497.6736741689965,None,2497.6736741689965,None,2498.2919649269897,None,2498.2919649269897,2499.294602405047,2500.4142270460725,None,2500.4142270460725,None,left,0.6506680520251393,2500.4142270460725,None,2501.099358333042,2502.419468478067,None,None,,,,,,,,,,,,,119,001,19,1,2020_Mar_04_1159,Test,3.2.4,59.84324420034328,
Pictures/IA100_L40.bmp,Pictures/IA100_L40.bmp,Pictures/IA100.bmp,"

"Think of the payoff, gamble!"",1,risk,,,,,4,0,4,0,0,4,4,5,,,,,,,,,,,,,,,,,,,,,,,,,,,,,,,2502.436204780126,None,2504.4582020689268,2505.978871996049,2505.962176271947,None,2507.5329686021432,None,1,0.6567813199944794,2509.488132196013,None,2509.488132196013,None,2509.488132196013,None,2510.273524242919,None,2510.273524242919,2511.2761626429856,2512.3957832609303,None,2512.3957832609303,None,right,1.4371031988412142,2512.3957832609303,None,None,None,2513.866329959128,None,,,,,,,,,,,,,119,001,19,1,2020_Mar_04_1159,Test,3.2.4,59.84324420034328,
Pictures/IA25_L5.bmp,Pictures/IA25_L5.bmp,Pictures/IA25.bmp,"

"It would be smarter to choose the safe option."",0,safe,,,,,4,0,4,0,0,5,5,14,,,,,,,,,,,,,,,,,,,,,,,,,,,,,,,2514.417773287976,None,2516.4397708210163,2517.9604469700716,2517.9437450349797,None,2519.4978279529605,None,1,1.5152045139111578,2521.469692762941,None,2521.469692762941,None,2521.469692762941,None,2523.124049957143,None,2523.124049957143,2524.1266876701266,2525.2295999049675,None,2525.2295999049675,None,right,0.6272926989477128,2525.2295999049675,None,None,None,2525.8980355509557,2527.234898573952,,,,,,,,,,,,,119,001,19,1,2020_Mar_04_1159,Test,3.2.4,59.84324420034328,
Pictures/IA50_G20.bmp,Pictures/IA50_G20.bmp,Pictures/IA50.bmp,"

"Let's venture and take a risk!"",1,risk,,,,,4,0,4,0,0,6,6,6,,,,,,,,,,,,,,,,,,,,,,,,,,,,,,,2527.2515884321183,None,2529.2735909731127,2530.7942568131257,2530.7775632219855,None,2532.348366362974,None,1,0.6173849629703909,2534.303517128108,None,2534.303517128108,None,2534.303517128108,None,2535.038786791032,None,2535.038786791032,2536.041423704941,2537.161056227982,None,2537.161056227982,None,right,1.2958390628919005,2537.161056227982,None,None,None,2538.4978879629634,None,,,,,,,,,,,,,119,001,19,1,2020_Mar_04_1159,Test,3.2.4,59.84324420034328,
Pictures/IA40_20_G95p.bmp,Pictures/IA40_20_G95p.bmp,Pictures/IA40.bmp,"

"Hold back, stay with the safe choice."",0,safe,,,,,4,0,4,0,0,7,7,18,,,,,,,,,,,,,,,,,,,,,,,,,,,,,,,2539.1830410039984,None,2541.2050458400045,2542.725704917917,2542.7089881810825,None,2544.279805083992,None,1,0.6539573648478836,2546.2349457959644,None,2546.2349457959644,None,2546.2349457959644,None,2547.0370696960017,None,2547.0370696960017,2548.03972361912,2549.159328544978,None,2549.159328544978,None,left,0.3535728419665247,2549.159328544978,None,2549.5603742159437,2551.16459561605,None,None,,,,,,,,,,,,,119,001,19,1,2020_Mar_04_1159,Test,3.2.4,59.84324420034328,
Pictures/IA50_G10.bmp,Pictures/IA50_G10.bmp,Pictures/IA50.bmp,"

"Go with the safe option here!"",0,safe,,,,,4,0,4,0,0,8,8,10,,,,,,,,,,,,,,,,,,,,,,,,,,,,,,,2551.1813168691006,None,2553.203321996145,2554.7239849080797,2554.7072676289827,None,2556.2613736831117,None,1,0.7436677208170295,2558.2332374739926,None,2558.2332374739926,None,2558.2332374739926,None,2559.085480398964,None,2559.085480398964,2560.0881169959903,2561.1910306890495,None,2561.1910306890495,None,left,0.09787342185154557,2561.1910306890495,None,2561.3247001399286,2563.196306741098,None,None,,,,,,,,,,,,,119,001,19,1,2020_Mar_04_1159,Test,3.2.4,59.84324420034328,
Pictures/IA40_20_L95p.bmp,Pictures/IA40_20_L95p.bmp,Pictures/IA40.bmp,"

"Trust me, gamble!"",1,risk,,,,,4,0,4,0,0,9,9,2,,,,,,,,,,,,,,,,,,,,,,,,,,,,,,,2563.21301987092,None,2565.2350041819736,2566.755675919121,2566.738981968956,None,2568.2429306779522,None,1,0.8959601039532572,2570.2649394399486,None,2570.2649394399486,None,2570.2649394399486,None,2571.2675686769653,None,2571.2675686769653,2572.2702045440674,2573.3898277669214,None,2573.3898277669214,None,right,0.37906612316146493,2573.3898277669214,None,None,None,2573.8075915870722,2575.3784054231364,,,,,,,,,,,,,119,001,19,1,2020_Mar_04_1159,Test,3.2.4,59.84324420034328,
Pictures/IA50_L20.bmp,Pictures/IA50_L20.bmp,Pictures/IA50.bmp,"

"Certainty is boring, take a risk!"",1,risk,,,,,4,0,4,0,0,10,10,0,,,,,,,,,,,,,,,,,,,,,,,,,,,,,,,2575.3951056520455,None,2577.4170991310384,2578.937777463114,2578.921077392064,None,2580.4918732231017,None,1,1.1778632991481572,2582.447040186031,None,2582.447040186031,None,2582.447040186031,None,2583.750466488069,None,2583.750466488069,2584.7531075109728,2585.856020095991,None,2585.856020095991,None,right,0.41687626112252474,2585.856020095991,None,None,None,2586.30720497109,2587.8445859199855,,,,,,,,,,,,,119,001,19,1,2020_Mar_04_1159,Test,3.2.4,59.84324420034328,
Pictures/IA50_L30.bmp,Pictures/IA50_L30.bmp,Pictures/IA50.bmp,"

"Take a leap, I think you should gamble."",1,risk,,,,,4,0,4,0,0,11,11,3,,,,,,,,,,,,,,,,,,,,,,,,,,,,,,,2587.861287454143,None,2589.8832819180097,2591.387254004134,2591.370537108043,None,2592.9580501720775,None,1,0.6476862258277833,2594.9132139689755,None,2594.9132139689755,None,2594.9132139689755,None,2595.6986185749993,None,2595.6986185749993,2596.7012542579323,2597.804166798014,None,2597.804166798014,None,right,0.5887255580164492,2597.804166798014,None,None,None,2598.439158373978,2599.8094458319247,,,,,,,,,,,,,119,001,19,1,2020_Mar_04_1159,Test,3.2.4,59.84324420034328,
Pictures/IA100_G20.bmp,Pictures/IA100_G20.bmp,Pictures/IA100.bmp,"

"Go ahead and gamble!"",1,risk,,,,,4,0,4,0,0,12,12,8,,,,,,,,,,,,,,,,,,,,,,,,,,,,,,,2599.8261456689797,None,2601.848143568961,2603.368815275142,2603.352117482107,None,2604.9062048650812,None,1,0.4668412609025836,2606.8780625211075,None,2606.8780625211075,None,2606.8780625211075,None,2607.429526807973,None,2607.429526807973,2608.4321644851007,2609.5350769949146,None,2609.5350769949146,None,None,,2609.5350769949146,None,None,None,None,None,,,,,,,,,,,,,119,001,19,1,2020_Mar_04_1159,Test,3.2.4,59.84324420034328,
Pictures/IA80_40_G95p.bmp,Pictures/IA80_40_G95p.bmp,Pictures/IA80.bmp,"

"Think of the payoff, gamble!"",1,risk,,,,,4,0,4,0,0,13,13,7,,,,,,,,,,,,,,,,,,,,,,,,,,,,,,,2611.5403545349836,None,2613.562351464061,2615.0830238049384,2615.066310639959,None,2616.570279608015,None,1,0.5126375060062855,2618.5922646890394,None,2618.5922646890394,None,2618.5922646890394,None,2619.2272680229507,None,2619.2272680229507,2620.229910101043,2621.3328175151255,None,2621.3328175151255,None,right,1.092082877876237,2621.3328175151255,None,None,None,2622.469150338089,None,,,,,,,,,,,,,119,001,19,1,2020_Mar_04_1159,Test,3.2.4,59.84324420034328,
Pictures/IA75_G60.bmp,Pictures/IA75_G60.bmp,Pictures/IA75.bmp,"

"Make it exciting, take a chance!"",1,risk,,,,,4,0,4,0,0,14,14,1,,,,,,,,,,,,,,,,,,,,,,,,,,,,,,,2623.3548068781383,None,2625.3768027101178,2626.8974743930157,2626.8807770530693,None,2628.4849894249346,None,1,0.6101527810096741,2630.4067548480816,None,2630.4067548480816,None,2630.4067548480816,None,2631.1420062941033,None,2631.1420062941033,2632.1446439919528,2633.2475558200385,None,2633.2475558200385,None,right,0.3133317760657519,2633.2475558200385,None,None,None,2633.5984791989904,2635.236142930109,,,,,,,,,,,,,119,001,19,1,2020_Mar_04_1159,Test,3.2.4,59.84324420034328,
Pictures/IA25_L15.bmp,Pictures/IA25_L15.bmp,Pictures/IA25.bmp,"

"There's not much on the line here, gamble!"",1,risk,,,,,4,0,4,0,0,15,15,16,,,,,,,,,,,,,,,,,,,,,,,,,,,,,,,2635.2528347161133,None,2637.2748309639283,2638.7955021229573,2638.7787940269336,None,2640.3328943371307,None,1,1.4081556349992752,2642.3047524669673,None,2642.3047524669673,None,2642.3047524669673,None,2643.858847805066,None,2643.858847805066,2644.861483172979,2645.964396618074,None,2645.964396618074,None,right,0.9405128660146147,2645.964396618074,None,None,None,2646.950323196128,None,,,,,,,,,,,,,119,001,19,1,2020_Mar_04_1159,Test,3.2.4,59.84324420034328,
Pictures/IA100_L60.bmp,Pictures/IA100_L60.bmp,Pictures/IA100.bmp,"

"You'd have a lot to lose, don't gamble."",0,safe,,,,,4,0,4,0,0,16,16,19,,,,,,,,,,,,,,,,,,,,,,,,,,,,,,,2647.969662640011,None,2649.9916601630393,2651.512333295075,2651.495635957923,None,2653.049719586037,None,1,0.5713253661524504,2655.021580737084,None,2655.021580737084,None,2655.021580737084,None,2655.740140696056,None,2655.740140696056,2656.7427807559725,2657.845691859955,None,2657.845691859955,None,right,1.539210109040141,2657.845691859955,None,None,None,2659.4332042250317,None,,,,,,,,,,,,,119,001,19,1,2020_Mar_04_1159,Test,3.2.4,59.84324420034328,
Pictures/IA50_G40.bmp,Pictures/IA50_G40.bmp,Pictures/IA50.bmp,"

"It would probably be best to play it safe."",0,safe,,,,,4,0,4,0,0,17,17,11,,,,,,,,,,,,,,,,,,,,,,,,,,,,,,,2659.8509806820657,None,2661.872980060056,2663.3936477331445,2663.3769573790487,None,2664.897610841086,None,1,0.6260243779979646,2666.9028980841395,None,2666.9028980841395,None,2666.9028980841395,None,2667.6715787949506,None,2667.6715787949506,2668.674219161039,2669.793841133127,None,2669.793841133127,None,right,0.4230682710185647,2669.793841133127,None,None,None,2670.2617456759326,2671.799130565021,,,,,,,,,,,,,119,001,19,1,2020_Mar_04_1159,Test,3.2.4,59.84324420034328,
Pictures/IA100_G60.bmp,Pictures/IA100_G60.bmp,Pictures/IA100.bmp,"

"Be cautious, don't gamble for this one."",0,safe,,,,,4,0,4,0,0,18,18,15,,,,,,,,,,,,,,,,,,,,,,,,,,,,,,,2671.8158283929806,None,2673.837823711103,2675.35850035795,2675.3417997050565,None,2676.895885603968,None,1,0.5411605909466743,2678.867747683078,None,2678.867747683078,None,2678.867747683078,None,2679.5361751390155,None,2679.5361751390155,2680.5388113991357,2681.6417241219897,None,2681.6417241219897,None,left,0.27118766703642905,2681.6417241219897,None,2681.9592232371215,2683.6302895939443,None,None,,,,,,,,,,,,,119,001,19,1,2020_Mar_04_1159,Test,3.2.4,59.84324420034328,
Pictures/IA25_L20.bmp,Pictures/IA25_L20.bmp,Pictures/IA25.bmp,"

"Don't be tempted to gamble."",0,safe,,,,,4,0,4,0,0,19,19,4,,,,,,,,,,,,,,,,,,,,,,,,,,,,,,,2683.6470122390892,None,2685.669007437071,2687.1896797420923,2687.1729625000153,None,2688.676936279051,None,1,0.6539881590288132,2690.6989217370283,None,2690.6989217370283,None,2690.6989217370283,None,2691.4676227890886,None,2691.4676227890886,2692.470261478098,2693.573172267992,None,2693.573172267992,None,left,0.49172246805392206,2693.573172267992,None,2694.107902660966,2695.5784412550274,None,None,,,,,,,,,,,,,119,001,19,1,2020_Mar_04_1159,Test,3.2.4,59.84324420034328,
,,,,,,,,,,4,0,4,0,,,,,,,,,,,,,,,,,,,,,,,,,,,,,,,,,,,,,,,,,,,,,,,,,,,,,,,,,,,,,,,,,,,,,,,,,2695.762272838969,None,return,6.718630015850067,2695.762272838969,None,119,001,19,1,2020_Mar_04_1159,Test,3.2.4,59.84324420034328,
Pictures/IA75_G30.bmp,Pictures/IA75_G30.bmp,Pictures/IA75.bmp,"

"Be bold, gamble!"",1,risk,,,,,5,0,5,0,0,0,0,14,,,,,,,,,,,,,2702.6470807299484,None,2702.6470807299484,None,2702.6470807299484,None,left,0.8498063429724425,2702.6470807299484,None,2702.6470807299484,None,2702.6470807299484,None,return,1.6975977248512208,2702.6470807299484,None,2704.4016887419857,None,2706.4069973051082,2707.9276569250505,2707.910937245004,None,2709.4483200251125,None,2,0.4927415531128645,2711.4201847231016,None,2711.4201847231016,None,2711.4201847231016,None,None,None,None,None,2712.0719119401183,None,2712.0719119401183,None,left,0.8809892470017076,2712.0719119401183,None,2712.990996641107,2714.060483373003,None,None,,,,,,,,,,,,,119,001,19,1,2020_Mar_04_1159,Test,3.2.4,59.84324420034328,
Pictures/IA25_G10.bmp,Pictures/IA25_G10.bmp,Pictures/IA25.bmp,"

"What's life without a little risk?"",1,risk,,,,,5,0,5,0,0,1,1,4,,,,,,,,,,,,,,,,,,,,,,,,,,,,,,,2714.077186048031,None,2716.099180919118,2717.619848834118,2717.603152683936,None,2719.1405250120442,None,2,0.7677915811073035,2721.129109950969,None,2721.129109950969,None,2721.129109950969,None,None,None,None,None,2722.064898571931,None,2722.064898571931,None,left,1.344000302022323,2722.064898571931,None,2723.4518828259315,None,None,None,,,,,,,,,,,,,119,001,19,1,2020_Mar_04_1159,Test,3.2.4,59.84324420034328,
Pictures/IA100_G80.bmp,Pictures/IA100_G80.bmp,Pictures/IA100.bmp,"

"Why not gamble?"",1,risk,,,,,5,0,5,0,0,2,2,3,,,,,,,,,,,,,,,,,,,,,,,,,,,,,,,2724.070190598024,None,2726.092184677953,2727.596161524998,2727.5793941679876,None,2729.116814501118,None,2,0.5988064110279083,2731.122099792119,None,2731.122099792119,None,2731.122099792119,None,None,None,None,None,2731.8908006779384,None,2731.8908006779384,None,right,1.6140925989020616,2731.8908006779384,None,None,None,2733.5451585070696,None,,,,,,,,,,,,,119,001,19,1,2020_Mar_04_1159,Test,3.2.4,59.84324420034328,
Pictures/IA80_40_G95p.bmp,Pictures/IA80_40_G95p.bmp,Pictures/IA80.bmp,"

"Think of the payoff, gamble!"",1,risk,,,,,5,0,5,0,0,3,3,15,,,,,,,,,,,,,,,,,,,,,,,,,,,,,,,2733.896071319934,None,2735.918062353041,2737.438736574957,2737.4220408990514,None,2738.9594112669583,None,2,0.7729134941473603,2740.9479965721257,None,2740.9479965721257,None,2740.9479965721257,None,None,None,None,None,2741.9338974431157,None,2741.9338974431157,None,left,1.0509990009013563,2741.9338974431157,None,2743.020119586028,None,None,None,,,,,,,,,,,,,119,001,19,1,2020_Mar_04_1159,Test,3.2.4,59.84324420034328,
Pictures/IA75_L15.bmp,Pictures/IA75_L15.bmp,Pictures/IA75.bmp,"

"Trust me–gamble!"",1,risk,,,,,5,0,5,0,0,4,4,1,,,,,,,,,,,,,,,,,,,,,,,,,,,,,,,2743.9392089890316,None,2745.961203132989,2747.481875470141,2747.4651537621394,None,2749.019254982937,None,2,0.4177761939354241,2750.9911267540883,None,2750.9911267540883,None,2750.9911267540883,None,None,None,None,None,2751.559290312929,None,2751.559290312929,None,right,1.1456034700386226,2751.559290312929,None,None,None,2752.7457448230125,None,,,,,,,,,,,,,119,001,19,1,2020_Mar_04_1159,Test,3.2.4,59.84324420034328,
Pictures/IA25_L10.bmp,Pictures/IA25_L10.bmp,Pictures/IA25.bmp,"

"Dont be afraid to take the risk!"",1,risk,,,,,5,0,5,0,0,5,5,5,,,,,,,,,,,,,,,,,,,,,,,,,,,,,,,2753.564557982143,None,2755.586555554997,2757.1072261650115,2757.0905335920397,None,2758.594479514053,None,2,0.4884269011672586,2760.6164886909537,None,2760.6164886909537,None,2760.6164886909537,None,None,None,None,None,2761.31832559593,None,2761.31832559593,None,right,0.8345716700423509,2761.31832559593,None,None,None,2762.187288805144,2763.3068969401065,,,,,,,,,,,,,119,001,19,1,2020_Mar_04_1159,Test,3.2.4,59.84324420034328,
Pictures/IA50_L20.bmp,Pictures/IA50_L20.bmp,Pictures/IA50.bmp,"

"Certainty is boring, take a risk!"",1,risk,,,,,5,0,5,0,0,6,6,8,,,,,,,,,,,,,,,,,,,,,,,,,,,,,,,2763.3236169170123,None,2765.3456108530518,2766.8662835410796,2766.8495664161164,None,2768.370214424096,None,2,0.04937442601658404,2770.3755329889245,None,2770.3755329889245,None,2770.3755329889245,None,None,None,None,None,2770.5927767460234,None,2770.5927767460234,None,right,0.8481229399330914,2770.5927767460234,None,None,None,2771.4784365470987,2772.581331606023,,,,,,,,,,,,,119,001,19,1,2020_Mar_04_1159,Test,3.2.4,59.84324420034328,
Pictures/IA25_L5.bmp,Pictures/IA25_L5.bmp,Pictures/IA25.bmp,"

"It would be smarter to choose the safe option."",0,safe,,,,,5,0,5,0,0,7,7,6,,,,,,,,,,,,,,,,,,,,,,,,,,,,,,,2772.598055259092,None,2774.6200528820045,2776.140722597949,2776.124006651109,None,2777.6279791039415,None,2,0.2149436150211841,2779.649961103918,None,2779.649961103918,None,2779.649961103918,None,None,None,None,None,2780.0343002099544,None,2780.0343002099544,None,right,0.6546033439226449,2780.0343002099544,None,None,None,2780.7361627460923,2782.0228731739335,,,,,,,,,,,,,119,001,19,1,2020_Mar_04_1159,Test,3.2.4,59.84324420034328,
Pictures/IA75_L30.bmp,Pictures/IA75_L30.bmp,Pictures/IA75.bmp,"

"Hold back, stay with the safe choice."",0,safe,,,,,5,0,5,0,0,8,8,17,,,,,,,,,,,,,,,,,,,,,,,,,,,,,,,2782.0395971830003,None,2784.0615936310496,2785.5822645761073,2785.5655476360116,None,2787.086231456138,None,2,1.38139238813892,2789.091516026063,None,2789.091516026063,None,2789.091516026063,None,None,None,None,None,2790.645609249128,None,2790.645609249128,None,left,1.235297580016777,2790.645609249128,None,2791.9156183379237,None,None,None,,,,,,,,,,,,,119,001,19,1,2020_Mar_04_1159,Test,3.2.4,59.84324420034328,
Pictures/IA100_L20.bmp,Pictures/IA100_L20.bmp,Pictures/IA100.bmp,"

"Try to win as much money as you can, gamble!"",1,risk,,,,,5,0,5,0,0,9,9,0,,,,,,,,,,,,,,,,,,,,,,,,,,,,,,,2792.650888903998,None,2794.6728865159675,2796.1768397621345,2796.1601382941008,None,2797.730944056064,None,2,0.7060939108487219,2799.7028090350796,None,2799.7028090350796,None,2799.7028090350796,None,None,None,None,None,2800.6051865210757,None,2800.6051865210757,None,None,,2800.6051865210757,None,None,None,None,None,,,,,,,,,,,,,119,001,19,1,2020_Mar_04_1159,Test,3.2.4,59.84324420034328,
Pictures/IA25_G20.bmp,Pictures/IA25_G20.bmp,Pictures/IA25.bmp,"

"I wouldn't gamble for this one. "",0,safe,,,,,5,0,5,0,0,10,10,7,,,,,,,,,,,,,,,,,,,,,,,,,,,,,,,2802.6104630781338,None,2804.6324496150482,2806.1531368771102,2806.136427931022,None,2807.7239281800576,None,1,1.2025230498984456,2809.662373036146,None,2809.662373036146,None,2809.662373036146,None,2810.982527279062,None,2810.982527279062,2811.985167850973,2813.0880762219895,None,2813.0880762219895,None,left,1.440818949835375,2813.0880762219895,None,2814.5753243409563,None,None,None,,,,,,,,,,,,,119,001,19,1,2020_Mar_04_1159,Test,3.2.4,59.84324420034328,
Pictures/IA110_55_L95p.bmp,Pictures/IA110_55_L95p.bmp,Pictures/IA110.bmp,"

"Trust me, gamble!"",1,risk,,,,,5,0,5,0,0,11,11,16,,,,,,,,,,,,,,,,,,,,,,,,,,,,,,,2815.093355003046,None,2817.148772357963,2818.6527225731406,2818.636027222965,None,2820.1734163491055,None,2,1.0636348030529916,2822.1452730579767,None,2822.1452730579767,None,2822.1452730579767,None,None,None,None,None,2823.3651448269375,None,2823.3651448269375,None,right,0.4197577419690788,2823.3651448269375,None,None,None,2823.8330503890757,2825.370432042051,,,,,,,,,,,,,119,001,19,1,2020_Mar_04_1159,Test,3.2.4,59.84324420034328,
Pictures/IA50_G30.bmp,Pictures/IA50_G30.bmp,Pictures/IA50.bmp,"

"I think you should gamble."",1,risk,,,,,5,0,5,0,0,12,12,12,,,,,,,,,,,,,,,,,,,,,,,,,,,,,,,2825.3871367729735,None,2827.409130289918,2828.9298015760724,2828.9131108189467,None,2830.4838974799495,None,2,1.6418412001803517,2832.439064999111,None,2832.439064999111,None,2832.439064999111,None,None,None,None,None,2834.243820599979,None,2834.243820599979,None,left,0.6210795419756323,2834.243820599979,None,2834.9122333740816,2836.2490879790857,None,None,,,,,,,,,,,,,119,001,19,1,2020_Mar_04_1159,Test,3.2.4,59.84324420034328,
Pictures/IA100_L60.bmp,Pictures/IA100_L60.bmp,Pictures/IA100.bmp,"

"You'd have a lot to lose, don't gamble."",0,safe,,,,,5,0,5,0,0,13,13,18,,,,,,,,,,,,,,,,,,,,,,,,,,,,,,,2836.265808457043,None,2838.2878048860002,2839.8084754589945,2839.791758534033,None,2841.312457585009,None,2,1.5391830711159855,2843.317725942936,None,2843.317725942936,None,2843.317725942936,None,None,None,None,None,2845.0389301339164,None,2845.0389301339164,None,left,1.4019607559312135,2845.0389301339164,None,2846.476033162093,None,None,None,,,,,,,,,,,,,119,001,19,1,2020_Mar_04_1159,Test,3.2.4,59.84324420034328,
Pictures/IA100_G40.bmp,Pictures/IA100_G40.bmp,Pictures/IA100.bmp,"

"Try your luck and gamble!"",1,risk,,,,,5,0,5,0,0,14,14,13,,,,,,,,,,,,,,,,,,,,,,,,,,,,,,,2847.0609072321095,None,2849.0829022531398,2850.6035752780735,2850.5868846070953,None,2852.124256683048,None,1,1.472058905987069,2854.1128405830823,None,2854.1128405830823,None,2854.1128405830823,None,2855.700355862966,None,2855.700355862966,2856.7029883570503,2857.8226114560384,None,2857.8226114560384,None,right,0.5062898970209062,2857.8226114560384,None,None,None,2858.374061702052,2859.8111687279306,,,,,,,,,,,,,119,001,19,1,2020_Mar_04_1159,Test,3.2.4,59.84324420034328,
Pictures/IA25_L15.bmp,Pictures/IA25_L15.bmp,Pictures/IA25.bmp,"

"There's not much on the line here, gamble!"",1,risk,,,,,5,0,5,0,0,15,15,19,,,,,,,,,,,,,,,,,,,,,,,,,,,,,,,2859.8278908960056,None,2861.8498839449603,2863.3705577650107,2863.3538419529796,None,2864.8578148889355,None,2,1.6011051300447434,2866.879797871923,None,2866.879797871923,None,2866.879797871923,None,None,None,None,None,2868.6678131839726,None,2868.6678131839726,None,right,0.5810879289638251,2868.6678131839726,None,None,None,2869.2861448191106,2870.65641058702,,,,,,,,,,,,,119,001,19,1,2020_Mar_04_1159,Test,3.2.4,59.84324420034328,
Pictures/IA50_G10.bmp,Pictures/IA50_G10.bmp,Pictures/IA50.bmp,"

"Go with the safe option here!"",0,safe,,,,,5,0,5,0,0,16,16,9,,,,,,,,,,,,,,,,,,,,,,,,,,,,,,,2870.6731339299586,None,2872.6951298329514,2874.215798618039,2874.1990977050737,None,2875.7197535349987,None,2,0.9158572151791304,2877.7250410141423,None,2877.7250410141423,None,2877.7250410141423,None,None,None,None,None,2878.8112405890133,None,2878.8112405890133,None,left,0.5576668591238558,2878.8112405890133,None,2879.4128268549684,2880.8165260229725,None,None,,,,,,,,,,,,,119,001,19,1,2020_Mar_04_1159,Test,3.2.4,59.84324420034328,
Pictures/IA40_20_G95p.bmp,Pictures/IA40_20_G95p.bmp,Pictures/IA40.bmp,"

"Hold back, stay with the safe choice."",0,safe,,,,,5,0,5,0,0,17,17,2,,,,,,,,,,,,,,,,,,,,,,,,,,,,,,,2880.833224500995,None,2882.85521974694,2884.375895245932,2884.359196437057,None,2885.8965698289685,None,2,0.8757453139405698,2887.8851568079554,None,2887.8851568079554,None,2887.8851568079554,None,None,None,None,None,2888.95464072912,None,2888.95464072912,None,left,0.5822714250534773,2888.95464072912,None,2889.572932010051,2890.943201027112,None,None,,,,,,,,,,,,,119,001,19,1,2020_Mar_04_1159,Test,3.2.4,59.84324420034328,
Pictures/IA75_G45.bmp,Pictures/IA75_G45.bmp,Pictures/IA75.bmp,"

"Don't gamble for this one."",0,safe,,,,,5,0,5,0,0,18,18,11,,,,,,,,,,,,,,,,,,,,,,,,,,,,,,,2890.9599186291452,None,2892.981915086042,2894.502586468123,2894.485869053984,None,2896.039971898077,None,2,1.1090612770058215,2898.0118421029765,None,2898.0118421029765,None,2898.0118421029765,None,None,None,None,None,2899.2818547440693,None,2899.2818547440693,None,right,0.40704573201946914,2899.2818547440693,None,None,None,2899.7330389891285,2901.2704216260463,,,,,,,,,,,,,119,001,19,1,2020_Mar_04_1159,Test,3.2.4,59.84324420034328,
Pictures/IA75_G60.bmp,Pictures/IA75_G60.bmp,Pictures/IA75.bmp,"

"Make it exciting, take a chance!"",1,risk,,,,,5,0,5,0,0,19,19,10,,,,,,,,,,,,,,,,,,,,,,,,,,,,,,,2901.287123755086,None,2903.3091149639804,2904.8297873409465,2904.8130906729493,None,2906.3170410799794,None,2,2.0458533479832113,2908.339049590053,None,2908.339049590053,None,2908.339049590053,None,None,None,None,None,2910.5615702020004,None,2910.5615702020004,None,left,0.32733062701299787,2910.5615702020004,None,2910.929191627074,2912.5501420060173,None,None,,,,,,,,,,,,,119,001,19,1,2020_Mar_04_1159,Test,3.2.4,59.84324420034328,
,,,,,,,,,,5,0,5,0,,,,,,,,,,,,,,,,,,,,,,,,,,,,,,,,,,,,,,,,,,,,,,,,,,,,,,,,,,,,,,,,,,,,,,,,,2912.71724009607,None,return,12.459650849923491,2912.71724009607,None,119,001,19,1,2020_Mar_04_1159,Test,3.2.4,59.84324420034328,
Pictures/IA40_20_G95p.bmp,Pictures/IA40_20_G95p.bmp,Pictures/IA40.bmp,"

"Hold back, stay with the safe choice."",0,safe,,,,,6,0,6,0,0,0,0,8,,,,,,,,,,,,,2925.3338302460033,None,2925.3338302460033,None,2925.3338302460033,None,left,0.9790670990478247,2925.3338302460033,None,2925.3338302460033,None,2925.3338302460033,None,return,1.7389285189565271,2925.3338302460033,None,2927.121843280969,None,2929.143866962986,2930.6645355229266,2930.6478203721344,None,2932.1350678130984,None,1,0.26782102906145155,2934.1570767350495,None,2934.1570767350495,None,2934.1570767350495,None,2934.574841510039,None,2934.574841510039,2935.577480660053,2936.680391410133,None,2936.680391410133,None,left,0.3365055548492819,2936.680391410133,None,2937.0647323019803,2938.685656955,None,None,,,,,,,,,,,,,119,001,19,1,2020_Mar_04_1159,Test,3.2.4,59.84324420034328,
Pictures/IA80_40_G95p.bmp,Pictures/IA80_40_G95p.bmp,Pictures/IA80.bmp,"

"Think of the payoff, gamble!"",1,risk,,,,,6,0,6,0,0,1,1,14,,,,,,,,,,,,,,,,,,,,,,,,,,,,,,,2938.70237886603,None,2940.724375016056,2942.2450483310968,2942.2283326610923,None,2943.73230268294,None,1,0.31061141891404986,2945.7542884720024,None,2945.7542884720024,None,2945.7542884720024,None,2946.1887656350154,None,2946.1887656350154,2947.1914019929245,2948.2943166280165,None,2948.2943166280165,None,left,1.330587008036673,2948.2943166280165,None,2949.6645967329387,None,None,None,,,,,,,,,,,,,119,001,19,1,2020_Mar_04_1159,Test,3.2.4,59.84324420034328,
Pictures/IA110_55_L95p.bmp,Pictures/IA110_55_L95p.bmp,Pictures/IA110.bmp,"

"Trust me, gamble!"",1,risk,,,,,6,0,6,0,0,2,2,9,,,,,,,,,,,,,,,,,,,,,,,,,,,,,,,2950.3163161519915,None,2952.3383091951255,2953.858982610982,2953.8422677970957,None,2955.346241817111,None,1,0.6326767201535404,2957.368221163051,None,2957.368221163051,None,2957.368221163051,None,2958.086795561947,None,2958.086795561947,2959.089428677922,2960.19234162895,None,2960.19234162895,None,right,0.3045552698895335,2960.19234162895,None,None,None,2960.543260257924,2962.180908018956,,,,,,,,,,,,,119,001,19,1,2020_Mar_04_1159,Test,3.2.4,59.84324420034328,
Pictures/IA25_G5.bmp,Pictures/IA25_G5.bmp,Pictures/IA25.bmp,"

"Let's stay with the certain option."",0,safe,,,,,6,0,6,0,0,3,3,2,,,,,,,,,,,,,,,,,,,,,,,,,,,,,,,2962.1976049200166,None,2964.219615336973,2965.7402774619404,2965.723586163949,None,2967.277662465116,None,1,1.0393790409434587,2969.2495285070036,None,2969.2495285070036,None,2969.2495285070036,None,2970.4192762409803,None,2970.4192762409803,2971.42191541614,2972.5582465620246,None,2972.5582465620246,None,left,0.37065060483291745,2972.5582465620246,None,2972.9760124951135,2974.5468243600335,None,None,,,,,,,,,,,,,119,001,19,1,2020_Mar_04_1159,Test,3.2.4,59.84324420034328,
Pictures/IA100_G40.bmp,Pictures/IA100_G40.bmp,Pictures/IA100.bmp,"

"Try your luck and gamble!"",1,risk,,,,,6,0,6,0,0,4,4,10,,,,,,,,,,,,,,,,,,,,,,,,,,,,,,,2974.5635256229434,None,2976.585521481,2978.106194996042,2978.089498647023,None,2979.59344655904,None,1,0.5294378979597241,2981.615458216984,None,2981.615458216984,None,2981.615458216984,None,2982.250453924993,None,2982.250453924993,2983.2530884391163,2984.3559979309794,None,2984.3559979309794,None,right,0.8689288750756532,2984.3559979309794,None,None,None,2985.2583834179677,2986.3612800601404,,,,,,,,,,,,,119,001,19,1,2020_Mar_04_1159,Test,3.2.4,59.84324420034328,
Pictures/IA50_L30.bmp,Pictures/IA50_L30.bmp,Pictures/IA50.bmp,"

"Take a leap, I think you should gamble."",1,risk,,,,,6,0,6,0,0,5,5,17,,,,,,,,,,,,,,,,,,,,,,,,,,,,,,,2986.3779999690596,None,2988.3999954981264,2989.9206665789243,2989.9039497449994,None,2991.4246025721077,None,1,0.7950002590660006,2993.4299167511053,None,2993.4299167511053,None,2993.4299167511053,None,2994.365709535079,None,2994.365709535079,2995.3683418920264,2996.4712539270986,None,2996.4712539270986,None,right,0.46564010181464255,2996.4712539270986,None,None,None,2996.9725810410455,2998.4765430209227,,,,,,,,,,,,,119,001,19,1,2020_Mar_04_1159,Test,3.2.4,59.84324420034328,
Pictures/IA80_40_L95p.bmp,Pictures/IA80_40_L95p.bmp,Pictures/IA80.bmp,"

"Let's stay with the certain option."",0,safe,,,,,6,0,6,0,0,6,6,19,,,,,,,,,,,,,,,,,,,,,,,,,,,,,,,2998.493244477082,None,3000.515240831999,3002.0359108839184,3002.0192149539944,None,3003.5732996810693,None,1,0.5037428818177432,3005.5451628090814,None,3005.5451628090814,None,3005.5451628090814,None,3006.196877612965,None,3006.196877612965,3007.1995157219935,3008.3024267700966,None,3008.3024267700966,None,right,0.7864648560062051,3008.3024267700966,None,None,None,3009.137970190961,3010.3077055439353,,,,,,,,,,,,,119,001,19,1,2020_Mar_04_1159,Test,3.2.4,59.84324420034328,
Pictures/IA75_G45.bmp,Pictures/IA75_G45.bmp,Pictures/IA75.bmp,"

"Don't gamble for this one."",0,safe,,,,,6,0,6,0,0,7,7,3,,,,,,,,,,,,,,,,,,,,,,,,,,,,,,,3010.32442793902,None,3012.3464233460836,3013.8670942150056,3013.8503774930723,None,3015.3543509431183,None,1,0.8325909748673439,3017.376336195972,None,3017.376336195972,None,3017.376336195972,None,3018.312144174939,None,3018.312144174939,3019.3147814329714,3020.4344039431307,None,3020.4344039431307,None,left,0.38249154202640057,3020.4344039431307,None,3020.8521688370965,3022.422961634118,None,None,,,,,,,,,,,,,119,001,19,1,2020_Mar_04_1159,Test,3.2.4,59.84324420034328,
Pictures/IA50_L40.bmp,Pictures/IA50_L40.bmp,Pictures/IA50.bmp,"

"That gamble doesn't sound too good, play it safe."",0,safe,,,,,6,0,6,0,0,8,8,1,,,,,,,,,,,,,,,,,,,,,,,,,,,,,,,3022.43968249904,None,3024.4616809061263,3025.982350215083,3025.965632597916,None,3027.5364882519934,None,1,0.5573129751719534,3029.4915935799945,None,3029.4915935799945,None,3029.4915935799945,None,3030.210173987085,None,3030.210173987085,3031.212809456978,3032.3157103159465,None,3032.3157103159465,None,left,0.3971815889235586,3032.3157103159465,None,3032.750172737986,3034.3209887060802,None,None,,,,,,,,,,,,,119,001,19,1,2020_Mar_04_1159,Test,3.2.4,59.84324420034328,
Pictures/IA75_L45.bmp,Pictures/IA75_L45.bmp,Pictures/IA75.bmp,"

"Don't gamble for this one, play it safe."",0,safe,,,,,6,0,6,0,0,9,9,6,,,,,,,,,,,,,,,,,,,,,,,,,,,,,,,3034.337690412998,None,3036.3596849639434,3037.880358743947,3037.8636605190113,None,3039.401030784007,None,1,0.5872844189871103,3041.389622026123,None,3041.389622026123,None,3041.389622026123,None,3042.1248760460876,None,3042.1248760460876,3043.1275145499967,3044.230426307069,None,3044.230426307069,None,left,0.4344572729896754,3044.230426307069,None,3044.698332355125,3046.2357192800846,None,None,,,,,,,,,,,,,119,001,19,1,2020_Mar_04_1159,Test,3.2.4,59.84324420034328,
Pictures/IA75_L15.bmp,Pictures/IA75_L15.bmp,Pictures/IA75.bmp,"

"Trust me–gamble!"",1,risk,,,,,6,0,6,0,0,10,10,13,,,,,,,,,,,,,,,,,,,,,,,,,,,,,,,3046.2524151850957,None,3048.2744185710326,3049.795082271099,3049.778393244138,None,3051.31575860898,None,1,1.0085664670914412,3053.3043453891296,None,3053.3043453891296,None,3053.3043453891296,None,3054.4072519431356,None,3054.4072519431356,3055.409888389986,3056.5462224851362,None,3056.5462224851362,None,right,0.3506725018378347,3056.5462224851362,None,None,None,3056.9305626801215,3058.534788049059,,,,,,,,,,,,,119,001,19,1,2020_Mar_04_1159,Test,3.2.4,59.84324420034328,
Pictures/IA75_L30.bmp,Pictures/IA75_L30.bmp,Pictures/IA75.bmp,"

"Hold back, stay with the safe choice."",0,safe,,,,,6,0,6,0,0,11,11,0,,,,,,,,,,,,,,,,,,,,,,,,,,,,,,,3058.551487405086,None,3060.573482889915,3062.0941568869166,3062.07745982497,None,3063.5814125710167,None,1,0.6055018429178745,3065.60341738211,None,3065.60341738211,None,3065.60341738211,None,3066.3553973780945,None,3066.3553973780945,3067.3580356759485,3068.460947901942,None,3068.460947901942,None,left,1.8759443829767406,3068.460947901942,None,3070.382671698928,None,None,None,,,,,,,,,,,,,119,001,19,1,2020_Mar_04_1159,Test,3.2.4,59.84324420034328,
Pictures/IA75_G30.bmp,Pictures/IA75_G30.bmp,Pictures/IA75.bmp,"

"Be bold, gamble!"",1,risk,,,,,6,0,6,0,0,12,12,5,,,,,,,,,,,,,,,,,,,,,,,,,,,,,,,3070.4662162000313,None,3072.4882101269905,3074.008882293012,3073.9921906010713,None,3075.5295584460255,None,1,0.8827659620437771,3077.518144414993,None,3077.518144414993,None,3077.518144414993,None,3078.5040737451054,None,3078.5040737451054,3079.5067117859144,3080.609624427976,None,3080.609624427976,None,right,0.7752710999920964,3080.609624427976,None,None,None,3081.4284455860034,3082.614902450936,,,,,,,,,,,,,119,001,19,1,2020_Mar_04_1159,Test,3.2.4,59.84324420034328,
Pictures/IA25_L20.bmp,Pictures/IA25_L20.bmp,Pictures/IA25.bmp,"

"Don't be tempted to gamble."",0,safe,,,,,6,0,6,0,0,13,13,18,,,,,,,,,,,,,,,,,,,,,,,,,,,,,,,3082.631608186057,None,3084.653598306002,3086.1742713949643,3086.1575765470043,None,3087.795212022029,None,1,0.4853775871451944,3089.6835338799283,None,3089.6835338799283,None,3089.6835338799283,None,3090.285105922958,None,3090.285105922958,3091.287789328955,3092.4073746139184,None,3092.4073746139184,None,left,0.569525308907032,3092.4073746139184,None,3093.0256689970847,3094.395932713058,None,None,,,,,,,,,,,,,119,001,19,1,2020_Mar_04_1159,Test,3.2.4,59.84324420034328,
Pictures/IA25_G15.bmp,Pictures/IA25_G15.bmp,Pictures/IA25.bmp,"

"I think you should take a gamble."",1,risk,,,,,6,0,6,0,0,14,14,12,,,,,,,,,,,,,,,,,,,,,,,,,,,,,,,3094.4126558999997,None,3096.434650972951,3097.9552858050447,3097.9386098880786,None,3099.4927087000106,None,1,1.0403280998580158,3101.4645742599387,None,3101.4645742599387,None,3101.4645742599387,None,3102.6343212800566,None,3102.6343212800566,3103.636959701078,3104.739869798068,None,3104.739869798068,None,right,0.2930258261039853,3104.739869798068,None,None,None,3105.074073845055,3106.7451380740386,,,,,,,,,,,,,119,001,19,1,2020_Mar_04_1159,Test,3.2.4,59.84324420034328,
Pictures/IA100_G80.bmp,Pictures/IA100_G80.bmp,Pictures/IA100.bmp,"

"Why not gamble?"",1,risk,,,,,6,0,6,0,0,15,15,4,,,,,,,,,,,,,,,,,,,,,,,,,,,,,,,3106.7618604919408,None,3108.783858569106,3110.3045261311345,3110.287812207127,None,3111.825208780123,None,1,0.5231404299847782,3113.8137678839266,None,3113.8137678839266,None,3113.8137678839266,None,3114.4320718720555,None,3114.4320718720555,3115.434710487956,3116.5376245549414,None,3116.5376245549414,None,right,0.4472681600600481,3116.5376245549414,None,None,None,3117.0222284009214,3118.526193456957,,,,,,,,,,,,,119,001,19,1,2020_Mar_04_1159,Test,3.2.4,59.84324420034328,
Pictures/IA50_G10.bmp,Pictures/IA50_G10.bmp,Pictures/IA50.bmp,"

"Go with the safe option here!"",0,safe,,,,,6,0,6,0,0,16,16,16,,,,,,,,,,,,,,,,,,,,,,,,,,,,,,,3118.542894748971,None,3120.5648855820764,3122.0855586049147,3122.0688629820943,None,3123.5728080149274,None,1,2.254082710016519,3125.5948206540197,None,3125.5948206540197,None,3125.5948206540197,None,3127.967738965992,None,3127.967738965992,3128.970374753,3130.1067095960025,None,3130.1067095960025,None,left,0.5421864171512425,3130.1067095960025,None,3130.69158025505,3132.0952663400676,None,None,,,,,,,,,,,,,119,001,19,1,2020_Mar_04_1159,Test,3.2.4,59.84324420034328,
Pictures/IA75_G15.bmp,Pictures/IA75_G15.bmp,Pictures/IA75.bmp,"

"Take a chance!"",1,risk,,,,,6,0,6,0,0,17,17,11,,,,,,,,,,,,,,,,,,,,,,,,,,,,,,,3132.1119915710296,None,3134.1339835019317,3135.6546546900645,3135.637936853105,None,3137.20876048808,None,1,0.6529978679027408,3139.1639020619914,None,3139.1639020619914,None,3139.1639020619914,None,3139.9158887281083,None,3139.9158887281083,3140.9185172989964,3142.021624106914,None,3142.021624106914,None,right,0.4992604141589254,3142.021624106914,None,None,None,3142.5561743190046,3144.0267166669946,,,,,,,,,,,,,119,001,19,1,2020_Mar_04_1159,Test,3.2.4,59.84324420034328,
Pictures/IA25_L10.bmp,Pictures/IA25_L10.bmp,Pictures/IA25.bmp,"

"Dont be afraid to take the risk!"",1,risk,,,,,6,0,6,0,0,18,18,7,,,,,,,,,,,,,,,,,,,,,,,,,,,,,,,3144.043417632114,None,3146.0654098249506,3147.586083509028,3147.5694195970427,None,3149.0900488540065,None,1,0.8175786908250302,3151.095331923105,None,3151.095331923105,None,3151.095331923105,None,3152.0311359821353,None,3152.0311359821353,3153.0337677630596,3154.1701006020885,None,3154.1701006020885,None,right,0.6787930089049041,3154.1701006020885,None,None,None,3154.8886577850208,3156.1586706340313,,,,,,,,,,,,,119,001,19,1,2020_Mar_04_1159,Test,3.2.4,59.84324420034328,
Pictures/IA25_L5.bmp,Pictures/IA25_L5.bmp,Pictures/IA25.bmp,"

"It would be smarter to choose the safe option."",0,safe,,,,,6,0,6,0,0,19,19,15,,,,,,,,,,,,,,,,,,,,,,,,,,,,,,,3156.1753908109386,None,3158.197388601955,3159.7180598070845,3159.7013415079564,None,3161.2219874421135,None,1,0.8215908741112798,3163.2273132090922,None,3163.2273132090922,None,3163.2273132090922,None,3164.1965179450344,None,3164.1965179450344,3165.1991586310323,3166.3354881079867,None,3166.3354881079867,None,left,1.801406070124358,3166.3354881079867,None,3167.1543190649245,3168.324067275971,3167.18774242606,3168.223804515088,,,,,,,,,,,,,119,001,19,1,2020_Mar_04_1159,Test,3.2.4,59.84324420034328,
,,,,,,,,,,6,0,6,0,,,,,,,,,,,,,,,,,,,,,,,,,,,,,,,,,,,,,,,,,,,,,,,,,,,,,,,,,,,,,,,,,,,,,,,,,3168.491168972105,None,return,3.9097116459161043,3168.491168972105,None,119,001,19,1,2020_Mar_04_1159,Test,3.2.4,59.84324420034328,
Pictures/IA25_G20.bmp,Pictures/IA25_G20.bmp,Pictures/IA25.bmp,"

"I wouldn't gamble for this one. "",0,safe,,,,,7,0,7,0,0,0,0,4,,,,,,,,,,,,,3172.551886650035,None,3172.551886650035,None,3172.551886650035,None,left,1.03300607111305,3172.551886650035,None,3172.551886650035,None,3172.551886650035,None,return,2.1768177901394665,3172.551886650035,None,3174.7911134730093,None,3176.7963830200024,3178.3170555499382,3178.3003590051085,None,3179.821029913146,None,1,0.4553124320227653,3181.8095951969735,None,3181.8095951969735,None,3181.8095951969735,None,3182.394477605121,None,3182.394477605121,3183.397114695981,3184.500027056085,None,3184.500027056085,None,right,1.3648651060648263,3184.500027056085,None,None,None,3185.9037099019624,None,,,,,,,,,,,,,119,001,19,1,2020_Mar_04_1159,Test,3.2.4,59.84324420034328,
Pictures/IA20_10_L95p.bmp,Pictures/IA20_10_L95p.bmp,Pictures/IA20.bmp,"

"Don't be tempted to gamble."",0,safe,,,,,7,0,7,0,0,1,1,2,,,,,,,,,,,,,,,,,,,,,,,,,,,,,,,3186.522016590927,None,3188.560725178104,3190.0646754980553,3190.0479785080533,None,3191.602060581092,None,1,0.39497077092528343,3193.573924476048,None,3193.573924476048,None,3193.573924476048,None,3194.075262250146,None,3194.075262250146,3195.077894598013,3196.1808032060508,None,3196.1808032060508,None,left,0.22808602405712008,3196.1808032060508,None,3196.4481610241346,3198.186068268027,None,None,,,,,,,,,,,,,119,001,19,1,2020_Mar_04_1159,Test,3.2.4,59.84324420034328,
Pictures/IA110_55_L95p.bmp,Pictures/IA110_55_L95p.bmp,Pictures/IA110.bmp,"

"Trust me, gamble!"",1,risk,,,,,7,0,7,0,0,2,2,12,,,,,,,,,,,,,,,,,,,,,,,,,,,,,,,3198.202795750927,None,3200.2247965470888,3201.7454619279597,3201.728745013941,None,3203.2494263900444,None,1,0.5141906021162868,3205.254711705027,None,3205.254711705027,None,3205.254711705027,None,3205.873017672915,None,3205.873017672915,3206.875644359039,3207.97855935595,None,3207.97855935595,None,right,0.39833492296747863,3207.97855935595,None,None,None,3208.4130210371222,3209.9838350040372,,,,,,,,,,,,,119,001,19,1,2020_Mar_04_1159,Test,3.2.4,59.84324420034328,
Pictures/IA100_G60.bmp,Pictures/IA100_G60.bmp,Pictures/IA100.bmp,"

"Be cautious, don't gamble for this one."",0,safe,,,,,7,0,7,0,0,3,3,11,,,,,,,,,,,,,,,,,,,,,,,,,,,,,,,3210.0005343139637,None,3212.0225313510746,3213.543212830089,3213.526502080029,None,3215.047180954134,None,1,1.6044288570992649,3217.0524652649183,None,3217.0524652649183,None,3217.0524652649183,None,3218.80708759604,None,3218.80708759604,3219.8097227739636,3220.9126362870447,None,3220.9126362870447,None,left,1.8722612091805786,3220.9126362870447,None,3222.8343705579173,None,None,None,,,,,,,,,,,,,119,001,19,1,2020_Mar_04_1159,Test,3.2.4,59.84324420034328,
Pictures/IA25_G10.bmp,Pictures/IA25_G10.bmp,Pictures/IA25.bmp,"

"What's life without a little risk?"",1,risk,,,,,7,0,7,0,0,4,4,6,,,,,,,,,,,,,,,,,,,,,,,,,,,,,,,3222.9179044871125,None,3224.9399006410968,3226.4605712259654,3226.4438770860434,None,3227.981271107914,None,1,0.12706765602342784,3229.9698343940545,None,3229.9698343940545,None,3229.9698343940545,None,3230.2204856229946,None,3230.2204856229946,3231.223120761104,3232.3594542909414,None,3232.3594542909414,None,right,0.513439224101603,3232.3594542909414,None,None,None,3232.910900844028,3234.3480305999983,,,,,,,,,,,,,119,001,19,1,2020_Mar_04_1159,Test,3.2.4,59.84324420034328,
Pictures/IA100_G40.bmp,Pictures/IA100_G40.bmp,Pictures/IA100.bmp,"

