Choice,Choice2,Amount,AdviceVar1,GambleAdviceNum,GambleAdviceType,practice.thisRepN,practice.thisTrialN,practice.thisN,practice.thisIndex,trials_2.thisRepN,trials_2.thisTrialN,trials_2.thisN,trials_2.thisIndex,trials.thisRepN,trials.thisTrialN,trials.thisN,trials.thisIndex,text.started,text.stopped,key_resp_4.keys,key_resp_4.rt,key_resp_4.started,key_resp_4.stopped,instructions.started,instructions.stopped,space.keys,space.rt,space.started,space.stopped,chooseInst.started,chooseInst.stopped,Ad1.started,Ad1.stopped,Ad2.started,Ad2.stopped,key_resp_3.keys,key_resp_3.rt,key_resp_3.started,key_resp_3.stopped,Ad1pic.started,Ad1pic.stopped,Ad2pic.started,Ad2pic.stopped,enter.keys,enter.rt,enter.started,enter.stopped,iSi.started,iSi.stopped,receiveMoneyPicture.started,receiveMoneyPicture.stopped,ISI2.started,ISI2.stopped,ChoicePic.started,ChoicePic.stopped,response.keys,response.rt,response.started,response.stopped,yesNo.started,yesNo.stopped,ask.started,ask.stopped,getAdv.started,getAdv.stopped,textForCode.started,textForCode.stopped,blank.started,blank.stopped,ChoicePic2.started,ChoicePic2.stopped,resp.keys,resp.rt,resp.started,resp.stopped,checkL1.started,checkL1.stopped,checkR1.started,checkR1.stopped,EndPrac.started,EndPrac.stopped,key_resp.keys,key_resp.rt,key_resp.started,key_resp.stopped,endText.started,endText.stopped,key_resp_2.keys,key_resp_2.rt,key_resp_2.started,key_resp_2.stopped,participant,session,age,gender (0=male, 1 = female, 2 = other),date,expName,psychopyVersion,frameRate,
,,,,,,,,,,,,,,,,,,246.96645867615007,None,space,298.3223971349653,246.96645867615007,None,,,,,,,,,,,,,,,,,,,,,,,,,,,,,,,,,,,,,,,,,,,,,,,,,,,,,,,,,,,,,,,,,,,,,120,001,19,1,2020_Mar_09_1114,Test,3.2.4,59.84449269958372,
,,,,,,,,,,,,,,,,,,,,,,,,545.3188613741659,None,space,4.098001139005646,545.3188613741659,None,,,,,,,,,,,,,,,,,,,,,,,,,,,,,,,,,,,,,,,,,,,,,,,,,,,,,,,,,,,,,,,120,001,19,1,2020_Mar_09_1114,Test,3.2.4,59.84449269958372,
,,,,,,,,,,,,,,,,,,,,,,,,,,,,,,550.1315692511853,None,550.1315692511853,None,550.1315692511853,None,left,4.117280669976026,550.1315692511853,None,,,,,,,,,,,,,,,,,,,,,,,,,,,,,,,,,,,,,,,,,,,,,,,,,,,,,120,001,19,1,2020_Mar_09_1114,Test,3.2.4,59.84449269958372,
,,,,,,,,,,,,,,,,,,,,,,,,,,,,,,,,,,,,,,,,550.1315692511853,None,550.1315692511853,None,return,7.637134707998484,550.1315692511853,None,,,,,,,,,,,,,,,,,,,,,,,,,,,,,,,,,,,,,,,,,,,,,120,001,19,1,2020_Mar_09_1114,Test,3.2.4,59.84449269958372,
Pictures/IA50_G10.bmp,Pictures/IA50_G10.bmp,Pictures/IA50.bmp,"

"Go with the safe option here!"",0,safe,0,0,0,0,,,,,,,,,,,,,,,,,,,,,,,,,,,,,,,,,,,,,,,557.9020589550491,None,559.8572086440399,561.361159770051,561.3444635481574,None,562.865145541029,None,1,1.6948800380341709,564.9539829471614,None,564.9539829471614,None,564.9539829471614,None,566.7754502750468,None,566.7754502750468,567.7780780592002,568.981258149026,None,568.981258149026,None,left,1.3155934130772948,568.981258149026,None,570.3348218770698,None,None,None,,,,,,,,,,,,,120,001,19,1,2020_Mar_09_1114,Test,3.2.4,59.84449269958372,
Pictures/IA50_G30.bmp,Pictures/IA50_G30.bmp,Pictures/IA50.bmp,"

"I think you should gamble."",1,risk,0,1,1,2,,,,,,,,,,,,,,,,,,,,,,,,,,,,,,,,,,,,,,,570.9865544911008,None,573.0085409870371,574.5292201070115,574.512520771008,None,576.0666053469758,None,1,1.8023868470918387,578.0384739981964,None,578.0384739981964,None,578.0384739981964,None,579.9602176281624,None,579.9602176281624,580.9628585830797,582.0657724691555,None,582.0657724691555,None,right,0.8470759589690715,582.0657724691555,None,None,None,582.9514421510976,584.0543322791345,,,,,,,,,,,,,120,001,19,1,2020_Mar_09_1114,Test,3.2.4,59.84449269958372,
Pictures/IA100_G20.bmp,Pictures/IA100_G20.bmp,Pictures/IA100.bmp,"

"Go ahead and gamble!"",1,risk,0,2,2,4,,,,,,,,,,,,,,,,,,,,,,,,,,,,,,,,,,,,,,,584.0710599380545,None,586.1097652071621,587.6137176700868,587.5970220260788,None,589.1176481212024,None,2,1.8298890190199018,591.1229749531485,None,591.1229749531485,None,591.1229749531485,None,None,None,None,None,593.1115677240305,None,593.1115677240305,None,left,0.9612929690629244,593.1115677240305,None,594.1141972611658,None,None,None,,,,,,,,,,,,,120,001,19,1,2020_Mar_09_1114,Test,3.2.4,59.84449269958372,
Pictures/IA50_G40.bmp,Pictures/IA50_G40.bmp,Pictures/IA50.bmp,"

"It would probably be best to play it safe."",0,safe,0,3,3,3,,,,,,,,,,,,,,,,,,,,,,,,,,,,,,,,,,,,,,,595.1335512471851,None,597.1555471341126,598.6762223141268,598.6595267259981,None,600.2303265081719,None,2,0.975368051091209,602.1854936880991,None,602.1854936880991,None,602.1854936880991,None,None,None,None,None,603.3552477189805,None,603.3552477189805,None,left,0.7496029729954898,603.3552477189805,None,604.1406503231265,605.3605178920552,None,None,,,,,,,,,,,,,120,001,19,1,2020_Mar_09_1114,Test,3.2.4,59.84449269958372,
Pictures/IA50_G20.bmp,Pictures/IA50_G20.bmp,Pictures/IA50.bmp,"

"Let's venture and take a risk!"",1,risk,0,4,4,1,,,,,,,,,,,,,,,,,,,,,,,,,,,,,,,,,,,,,,,605.3772386540659,None,607.3992405321915,608.9199148430489,608.9031956112012,None,610.4740171621088,None,1,1.2517051389440894,612.4291593621019,None,612.4291593621019,None,612.4291593621019,None,613.7826987381559,None,613.7826987381559,614.7853719140403,615.8882811481599,None,615.8882811481599,None,left,0.640578085090965,615.8882811481599,None,616.5734182579909,617.8768673860468,None,None,,,,,,,,,,,,,120,001,19,1,2020_Mar_09_1114,Test,3.2.4,59.84449269958372,
Pictures/IA100_G40.bmp,Pictures/IA100_G40.bmp,Pictures/IA100.bmp,"

"Try your luck and gamble!"",1,risk,0,5,5,5,,,,,,,,,,,,,,,,,,,,,,,,,,,,,,,,,,,,,,,617.8935665050521,None,619.915564866038,621.4362407221925,621.4195500230417,None,622.9736316630151,None,2,1.1833750209771097,624.9455000360031,None,624.9455000360031,None,624.9455000360031,None,None,None,None,None,626.2823602980934,None,626.2823602980934,None,left,0.6304995869286358,626.2823602980934,None,626.9507980041672,628.2876531111542,None,None,,,,,,,,,,,,,120,001,19,1,2020_Mar_09_1114,Test,3.2.4,59.84449269958372,
,,,,,,,,,,,,,,,,,,,,,,,,,,,,,,,,,,,,,,,,,,,,,,,,,,,,,,,,,,,,,,,,,,,,,,,,,,,,,,,,628.3043544101529,None,space,18.352503574918956,628.3043544101529,None,,,,,,,120,001,19,1,2020_Mar_09_1114,Test,3.2.4,59.84449269958372,
Pictures/IA50_L30.bmp,Pictures/IA50_L30.bmp,Pictures/IA50.bmp,"

"Take a leap, I think you should gamble."",1,risk,,,,,0,0,0,0,0,0,0,5,,,,,,,,,,,,,646.8365591801703,None,646.8365591801703,None,646.8365591801703,None,left,3.700299693038687,646.8365591801703,None,646.8365591801703,None,646.8365591801703,None,return,5.516169046983123,646.8365591801703,None,652.4346607320476,None,654.4232375270221,655.9439065421466,655.9272109661251,None,657.481310255127,None,1,1.3964141439646482,659.4364553880878,None,659.4364553880878,None,659.4364553880878,None,660.9738573560026,None,660.9738573560026,661.9764957230072,663.0794092779979,None,663.0794092779979,None,right,0.5614551939070225,663.0794092779979,None,None,None,663.6809765901417,665.0679691520054,,,,,,,,,,,,,120,001,19,1,2020_Mar_09_1114,Test,3.2.4,59.84449269958372,
Pictures/IA50_G20.bmp,Pictures/IA50_G20.bmp,Pictures/IA50.bmp,"

"Let's venture and take a risk!"",1,risk,,,,,0,0,0,0,0,1,1,13,,,,,,,,,,,,,,,,,,,,,,,,,,,,,,,665.0846957371105,None,667.1066947360523,668.6273675640114,668.6106524670031,None,670.131338247098,None,2,0.5042409440502524,672.136626952095,None,672.136626952095,None,672.136626952095,None,None,None,None,None,672.8050580401905,None,672.8050580401905,None,right,0.8198026788886636,672.8050580401905,None,None,None,673.6740242091473,674.8103290679865,,,,,,,,,,,,,120,001,19,1,2020_Mar_09_1114,Test,3.2.4,59.84449269958372,
Pictures/IA50_G30.bmp,Pictures/IA50_G30.bmp,Pictures/IA50.bmp,"

"I think you should gamble."",1,risk,,,,,0,0,0,0,0,2,2,14,,,,,,,,,,,,,,,,,,,,,,,,,,,,,,,674.8270489440765,None,676.8490545470268,678.3697278040927,678.3530109040439,None,679.8736967300065,None,2,1.3138772489037365,681.8789866641164,None,681.8789866641164,None,681.8789866641164,None,None,None,None,None,683.3662464981899,None,683.3662464981899,None,left,0.7306256238371134,683.3662464981899,None,684.1349235330708,685.3548145911191,None,None,,,,,,,,,,,,,120,001,19,1,2020_Mar_09_1114,Test,3.2.4,59.84449269958372,
Pictures/IA75_L60.bmp,Pictures/IA75_L60.bmp,Pictures/IA75.bmp,"

"Why not take the gamble?"",1,risk,,,,,0,0,0,0,0,3,3,8,,,,,,,,,,,,,,,,,,,,,,,,,,,,,,,685.3715121841524,None,687.4102284540422,688.9309012989979,688.914205471985,None,690.4683024340775,None,1,1.4094138208311051,692.4234493770637,None,692.4234493770637,None,692.4234493770637,None,693.9441214120016,None,693.9441214120016,694.946764734108,696.0496801410336,None,696.0496801410336,None,left,1.2151727739255875,696.0496801410336,None,697.3029793340247,None,None,None,,,,,,,,,,,,,120,001,19,1,2020_Mar_09_1114,Test,3.2.4,59.84449269958372,
Pictures/IA25_L15.bmp,Pictures/IA25_L15.bmp,Pictures/IA25.bmp,"

"There's not much on the line here, gamble!"",1,risk,,,,,0,0,0,0,0,4,4,16,,,,,,,,,,,,,,,,,,,,,,,,,,,,,,,698.0549766980112,None,700.0936872910243,701.5976402480155,701.5809440840967,None,703.1517443570774,None,1,2.18196758790873,705.1069108331576,None,705.1069108331576,None,705.1069108331576,None,707.4297014852054,None,707.4297014852054,708.4323461111635,709.5519662271254,None,709.5519662271254,None,left,1.3848868699278682,709.5519662271254,None,710.9723766141105,None,None,None,,,,,,,,,,,,,120,001,19,1,2020_Mar_09_1114,Test,3.2.4,59.84449269958372,
Pictures/IA75_L30.bmp,Pictures/IA75_L30.bmp,Pictures/IA75.bmp,"

"Hold back, stay with the safe choice."",0,safe,,,,,0,0,0,0,0,5,5,17,,,,,,,,,,,,,,,,,,,,,,,,,,,,,,,711.5572482671123,None,713.5792536281515,715.099929803051,715.0832074270584,None,716.6707400551531,None,2,1.3196718839462847,718.609186276095,None,718.609186276095,None,718.609186276095,None,None,None,None,None,720.0964387841523,None,720.0964387841523,None,left,0.5844175929669291,720.0964387841523,None,720.7147367689759,722.0850032910239,None,None,,,,,,,,,,,,,120,001,19,1,2020_Mar_09_1114,Test,3.2.4,59.84449269958372,
Pictures/IA25_L20.bmp,Pictures/IA25_L20.bmp,Pictures/IA25.bmp,"

"Don't be tempted to gamble."",0,safe,,,,,0,0,0,0,0,6,6,19,,,,,,,,,,,,,,,,,,,,,,,,,,,,,,,722.101726872148,None,724.1237286771648,725.6444021130446,725.6276861731894,None,727.1985026430339,None,1,1.0632152101024985,729.1536502609961,None,729.1536502609961,None,729.1536502609961,None,730.3234131431673,None,730.3234131431673,731.326058523031,732.4456785051152,None,732.4456785051152,None,left,0.38718087901361287,732.4456785051152,None,732.880140888039,734.4509658250026,None,None,,,,,,,,,,,,,120,001,19,1,2020_Mar_09_1114,Test,3.2.4,59.84449269958372,
Pictures/IA75_L15.bmp,Pictures/IA75_L15.bmp,Pictures/IA75.bmp,"

"Trust me–gamble!"",1,risk,,,,,0,0,0,0,0,7,7,9,,,,,,,,,,,,,,,,,,,,,,,,,,,,,,,734.4676616510842,None,736.4896634251345,738.0103378121275,737.9936539251357,None,739.5644375791308,None,1,1.3451884090900421,741.5196659599897,None,741.5196659599897,None,741.5196659599897,None,742.9901588719804,None,742.9901588719804,743.992800955195,745.1291286621708,None,745.1291286621708,None,right,0.5277263591997325,745.1291286621708,None,None,None,745.697276817169,747.1344132001977,,,,,,,,,,,,,120,001,19,1,2020_Mar_09_1114,Test,3.2.4,59.84449269958372,
Pictures/IA50_G40.bmp,Pictures/IA50_G40.bmp,Pictures/IA50.bmp,"

"It would probably be best to play it safe."",0,safe,,,,,0,0,0,0,0,8,8,0,,,,,,,,,,,,,,,,,,,,,,,,,,,,,,,747.1511123930104,None,749.1731178811751,750.6937894911971,750.677093377104,None,752.1810495920945,None,1,0.8538059960119426,754.2030589890201,None,754.2030589890201,None,754.2030589890201,None,755.2056907680817,None,755.2056907680817,756.2083302140236,757.3112504710443,None,757.3112504710443,None,left,0.37760306778363883,757.3112504710443,None,757.7290095961653,759.2998309060931,None,None,,,,,,,,,,,,,120,001,19,1,2020_Mar_09_1114,Test,3.2.4,59.84449269958372,
Pictures/IA20_10_L95p.bmp,Pictures/IA20_10_L95p.bmp,Pictures/IA20.bmp,"

"Don't be tempted to gamble."",0,safe,,,,,0,0,0,0,0,9,9,2,,,,,,,,,,,,,,,,,,,,,,,,,,,,,,,759.3165295450017,None,761.3552440321073,762.8592180211563,762.8424994340166,None,764.3966083140112,None,2,1.4643849488347769,766.3684780681506,None,766.3684780681506,None,766.3684780681506,None,None,None,None,None,767.9894164961297,None,767.9894164961297,None,right,0.2754502999596298,767.9894164961297,None,None,None,768.3069081970025,769.9779819729738,,,,,,,,,,,,,120,001,19,1,2020_Mar_09_1114,Test,3.2.4,59.84449269958372,
Pictures/IA75_L45.bmp,Pictures/IA75_L45.bmp,Pictures/IA75.bmp,"

"Don't gamble for this one, play it safe."",0,safe,,,,,0,0,0,0,0,10,10,11,,,,,,,,,,,,,,,,,,,,,,,,,,,,,,,769.9947143699974,None,772.0167056571227,773.5373832040932,773.5206567151472,None,775.0747722531669,None,1,0.9462265879847109,777.0466405430343,None,777.0466405430343,None,777.0466405430343,None,778.1328371120617,None,778.1328371120617,779.1354778811801,780.2383982650936,None,780.2383982650936,None,left,0.5064686900004745,780.2383982650936,None,780.7898439860437,782.2269552331418,None,None,,,,,,,,,,,,,120,001,19,1,2020_Mar_09_1114,Test,3.2.4,59.84449269958372,
Pictures/IA50_G10.bmp,Pictures/IA50_G10.bmp,Pictures/IA50.bmp,"

"Go with the safe option here!"",0,safe,,,,,0,0,0,0,0,11,11,4,,,,,,,,,,,,,,,,,,,,,,,,,,,,,,,782.2436770030763,None,784.2656793831848,785.7863414890599,785.7696452629752,None,787.2903123921715,None,2,0.7852542840410024,789.2956021120772,None,789.2956021120772,None,789.2956021120772,None,None,None,None,None,790.2313999810722,None,790.2313999810722,None,right,0.31345999520272017,790.2313999810722,None,None,None,790.5823236410506,792.2199874790385,,,,,,,,,,,,,120,001,19,1,2020_Mar_09_1114,Test,3.2.4,59.84449269958372,
Pictures/IA100_L20.bmp,Pictures/IA100_L20.bmp,Pictures/IA100.bmp,"

"Try to win as much money as you can, gamble!"",1,risk,,,,,0,0,0,0,0,12,12,6,,,,,,,,,,,,,,,,,,,,,,,,,,,,,,,792.2366917191539,None,794.2586881520692,795.779366238974,795.7626682491973,None,797.333464021096,None,2,0.9042226050514728,799.2886388089973,None,799.2886388089973,None,799.2886388089973,None,None,None,None,None,800.3748344560154,None,800.3748344560154,None,right,0.27402375801466405,800.3748344560154,None,None,None,800.6923371991143,802.3801075981464,,,,,,,,,,,,,120,001,19,1,2020_Mar_09_1114,Test,3.2.4,59.84449269958372,
Pictures/IA50_L10.bmp,Pictures/IA50_L10.bmp,Pictures/IA50.bmp,"

"Play it safe, don’t gamble!"",0,safe,,,,,0,0,0,0,0,13,13,1,,,,,,,,,,,,,,,,,,,,,,,,,,,,,,,802.396828341065,None,804.4188306431752,805.9227821540553,805.9060920861084,None,807.4768970750738,None,1,0.6241030239034444,809.4487665880006,None,809.4487665880006,None,809.4487665880006,None,810.2007362591103,None,810.2007362591103,811.2033772950526,812.306290196022,None,812.306290196022,None,left,0.5745683368295431,812.306290196022,None,812.9245820660144,814.2948777421843,None,None,,,,,,,,,,,,,120,001,19,1,2020_Mar_09_1114,Test,3.2.4,59.84449269958372,
Pictures/IA25_L10.bmp,Pictures/IA25_L10.bmp,Pictures/IA25.bmp,"

"Dont be afraid to take the risk!"",1,risk,,,,,0,0,0,0,0,14,14,3,,,,,,,,,,,,,,,,,,,,,,,,,,,,,,,814.3115749151912,None,816.3335778641049,817.8542525100056,817.8375566022005,None,819.3916467481758,None,2,0.8373495859559625,821.3635117311496,None,821.3635117311496,None,821.3635117311496,None,None,None,None,None,822.3661541251931,None,822.3661541251931,None,right,0.2587162659037858,822.3661541251931,None,None,None,822.6669580070302,824.3714398310985,,,,,,,,,,,,,120,001,19,1,2020_Mar_09_1114,Test,3.2.4,59.84449269958372,
Pictures/IA100_G40.bmp,Pictures/IA100_G40.bmp,Pictures/IA100.bmp,"

"Try your luck and gamble!"",1,risk,,,,,0,0,0,0,0,15,15,7,,,,,,,,,,,,,,,,,,,,,,,,,,,,,,,824.3881652061827,None,826.4101740440819,827.9141206361819,827.8974222980905,None,829.434813096188,None,2,0.3447656068019569,831.4401003990788,None,831.4401003990788,None,831.4401003990788,None,None,None,None,None,832.0249765811022,None,832.0249765811022,None,right,0.27188274706713855,832.0249765811022,None,None,None,832.3424777342007,834.0135619451758,,,,,,,,,,,,,120,001,19,1,2020_Mar_09_1114,Test,3.2.4,59.84449269958372,
Pictures/IA100_G20.bmp,Pictures/IA100_G20.bmp,Pictures/IA100.bmp,"

"Go ahead and gamble!"",1,risk,,,,,0,0,0,0,0,16,16,10,,,,,,,,,,,,,,,,,,,,,,,,,,,,,,,834.0302576629911,None,836.0522499221843,837.5729266460985,837.5562313119881,None,839.060188776115,None,1,1.174667693907395,841.0821987080853,None,841.0821987080853,None,841.0821987080853,None,842.3522120700218,None,842.3522120700218,843.3548584091477,844.4577697641216,None,844.4577697641216,None,left,0.3910841620527208,844.4577697641216,None,844.8922317211982,846.4630560621154,None,None,,,,,,,,,,,,,120,001,19,1,2020_Mar_09_1114,Test,3.2.4,59.84449269958372,
Pictures/IA40_20_G95p.bmp,Pictures/IA40_20_G95p.bmp,Pictures/IA40.bmp,"

"Hold back, stay with the safe choice."",0,safe,,,,,0,0,0,0,0,17,17,12,,,,,,,,,,,,,,,,,,,,,,,,,,,,,,,846.4797539480496,None,848.5184656199999,850.0391402121168,850.0224477981683,None,851.5765492171049,None,1,1.5731837411876768,853.531689535128,None,853.531689535128,None,853.531689535128,None,855.2528942560311,None,855.2528942560311,856.2555352530908,857.3584493279923,None,857.3584493279923,None,left,0.354409916093573,857.3584493279923,None,857.7595142901409,859.3637469150126,None,None,,,,,,,,,,,,,120,001,19,1,2020_Mar_09_1114,Test,3.2.4,59.84449269958372,
Pictures/IA50_L40.bmp,Pictures/IA50_L40.bmp,Pictures/IA50.bmp,"

"That gamble doesn't sound too good, play it safe."",0,safe,,,,,0,0,0,0,0,18,18,18,,,,,,,,,,,,,,,,,,,,,,,,,,,,,,,859.3804445690475,None,861.4024486870039,862.9231279911473,862.9064277270809,None,864.4605112611316,None,1,0.6324832479003817,866.4323815961834,None,866.4323815961834,None,866.4323815961834,None,867.2177984351292,None,867.2177984351292,868.2204387141392,869.3233576139901,None,869.3233576139901,None,left,0.38150878297165036,869.3233576139901,None,869.741117432015,871.3119136770256,None,None,,,,,,,,,,,,,120,001,19,1,2020_Mar_09_1114,Test,3.2.4,59.84449269958372,
Pictures/IA80_40_L95p.bmp,Pictures/IA80_40_L95p.bmp,Pictures/IA80.bmp,"

"Let's stay with the certain option."",0,safe,,,,,0,0,0,0,0,19,19,15,,,,,,,,,,,,,,,,,,,,,,,,,,,,,,,871.3286425389815,None,873.3673548880033,874.8713035311084,874.8546078011859,None,876.4254070990719,None,2,0.7082865810953081,878.3805756680667,None,878.3805756680667,None,878.3805756680667,None,None,None,None,None,879.2662429499906,None,879.2662429499906,None,right,0.99861313495785,879.2662429499906,None,None,None,880.302294426132,None,,,,,,,,,,,,,120,001,19,1,2020_Mar_09_1114,Test,3.2.4,59.84449269958372,
,,,,,,,,,,0,0,0,0,,,,,,,,,,,,,,,,,,,,,,,,,,,,,,,,,,,,,,,,,,,,,,,,,,,,,,,,,,,,,,,,,,,,,,,,,881.5054740670603,None,return,7.367369530024007,881.5054740670603,None,120,001,19,1,2020_Mar_09_1114,Test,3.2.4,59.84449269958372,
Pictures/IA100_G40.bmp,Pictures/IA100_G40.bmp,Pictures/IA100.bmp,"

"Try your luck and gamble!"",1,risk,,,,,1,0,1,0,0,0,0,13,,,,,,,,,,,,,889.0253035640344,None,889.0253035640344,None,889.0253035640344,None,right,3.6075599438045174,889.0253035640344,None,889.0253035640344,None,889.0253035640344,None,return,6.071356440894306,889.0253035640344,None,895.1581559670158,None,897.1634374521673,898.6841109329835,898.6674179821275,None,900.1713833401445,None,1,1.080185916973278,902.1766742030159,None,902.1766742030159,None,902.1766742030159,None,903.3798488250468,None,903.3798488250468,904.3824821221642,905.5021119490266,None,905.5021119490266,None,right,0.40273780887946486,905.5021119490266,None,None,None,905.9533232999966,907.490686488105,,,,,,,,,,,,,120,001,19,1,2020_Mar_09_1114,Test,3.2.4,59.84449269958372,
Pictures/IA50_G30.bmp,Pictures/IA50_G30.bmp,Pictures/IA50.bmp,"

"I think you should gamble."",1,risk,,,,,1,0,1,0,0,1,1,11,,,,,,,,,,,,,,,,,,,,,,,,,,,,,,,907.5073867880274,None,909.5293930221815,911.0500614861958,911.0333682920318,None,912.554032222135,None,2,0.7375410769600421,914.5593220181763,None,914.5593220181763,None,914.5593220181763,None,None,None,None,None,915.4951312020421,None,915.4951312020421,None,left,0.27372522512450814,915.4951312020421,None,915.812624118058,917.4836981580593,None,None,,,,,,,,,,,,,120,001,19,1,2020_Mar_09_1114,Test,3.2.4,59.84449269958372,
Pictures/IA75_G60.bmp,Pictures/IA75_G60.bmp,Pictures/IA75.bmp,"

"Make it exciting, take a chance!"",1,risk,,,,,1,0,1,0,0,2,2,4,,,,,,,,,,,,,,,,,,,,,,,,,,,,,,,917.5004116341006,None,919.5224260729738,921.0430991940666,921.026382290991,None,922.5804900401272,None,1,0.3845062139444053,924.5523600601591,None,924.5523600601591,None,924.5523600601591,None,925.0703821701463,None,925.0703821701463,926.0730195969809,927.1759359191637,None,927.1759359191637,None,left,0.3209227491170168,927.1759359191637,None,927.5435831272043,929.1812201510184,None,None,,,,,,,,,,,,,120,001,19,1,2020_Mar_09_1114,Test,3.2.4,59.84449269958372,
Pictures/IA50_L30.bmp,Pictures/IA50_L30.bmp,Pictures/IA50.bmp,"

"Take a leap, I think you should gamble."",1,risk,,,,,1,0,1,0,0,3,3,9,,,,,,,,,,,,,,,,,,,,,,,,,,,,,,,929.1979466960765,None,931.2199467220344,932.7406221951824,932.7239018010441,None,934.2278784520458,None,1,1.1509890279266983,936.2498711631633,None,936.2498711631633,None,936.2498711631633,None,937.5365955040324,None,937.5365955040324,938.5392371201888,939.6421533890534,None,939.6421533890534,None,right,0.5747044768650085,939.6421533890534,None,None,None,940.2604441151489,941.6307375971228,,,,,,,,,,,,,120,001,19,1,2020_Mar_09_1114,Test,3.2.4,59.84449269958372,
Pictures/IA40_20_L95p.bmp,Pictures/IA40_20_L95p.bmp,Pictures/IA40.bmp,"

"Trust me, gamble!"",1,risk,,,,,1,0,1,0,0,4,4,7,,,,,,,,,,,,,,,,,,,,,,,,,,,,,,,941.6474353971425,None,943.6694382361602,945.1901152881328,945.1734207069967,None,946.7107939810958,None,1,0.30949334194883704,948.6993877030909,None,948.6993877030909,None,948.6993877030909,None,949.2174200050067,None,949.2174200050067,950.2200599759817,951.3396911020391,None,951.3396911020391,None,right,0.38115996890701354,951.3396911020391,None,None,None,951.7574533221778,953.3282460931223,,,,,,,,,,,,,120,001,19,1,2020_Mar_09_1114,Test,3.2.4,59.84449269958372,
Pictures/IA25_G20.bmp,Pictures/IA25_G20.bmp,Pictures/IA25.bmp,"

"I wouldn't gamble for this one. "",0,safe,,,,,1,0,1,0,0,5,5,10,,,,,,,,,,,,,,,,,,,,,,,,,,,,,,,953.3449755841866,None,955.3669747621752,956.8876485030632,956.8709331559949,None,958.441750704078,None,1,2.4919593778904527,960.3968976561446,None,960.3968976561446,None,960.3968976561446,None,963.0205006899778,None,963.0205006899778,964.023136517033,965.1260537451599,None,965.1260537451599,None,left,0.4108155220746994,965.1260537451599,None,965.5772609340493,967.114625752205,None,None,,,,,,,,,,,,,120,001,19,1,2020_Mar_09_1114,Test,3.2.4,59.84449269958372,
Pictures/IA25_L15.bmp,Pictures/IA25_L15.bmp,Pictures/IA25.bmp,"

"There's not much on the line here, gamble!"",1,risk,,,,,1,0,1,0,0,6,6,3,,,,,,,,,,,,,,,,,,,,,,,,,,,,,,,967.131328479154,None,969.1533269670326,970.6740008210763,970.6573079461232,None,972.1779707120731,None,2,2.4016031159553677,974.1832620841451,None,974.1832620841451,None,974.1832620841451,None,None,None,None,None,976.7734386050142,None,976.7734386050142,None,right,0.45142157399095595,976.7734386050142,None,None,None,977.2747484981082,978.7787257151213,,,,,,,,,,,,,120,001,19,1,2020_Mar_09_1114,Test,3.2.4,59.84449269958372,
Pictures/IA110_55_G95p.bmp,Pictures/IA110_55_G95p.bmp,Pictures/IA110.bmp,"

"Take a chance!"",1,risk,,,,,1,0,1,0,0,7,7,2,,,,,,,,,,,,,,,,,,,,,,,,,,,,,,,978.7954254581127,None,980.8341375691816,982.3381150739733,982.3213945711032,None,983.892219362082,None,1,0.569500386947766,985.8473649669904,None,985.8473649669904,None,985.8473649669904,None,986.5157927831169,None,986.5157927831169,987.5184336730745,988.6213466459885,None,988.6213466459885,None,None,,988.6213466459885,None,None,None,None,None,,,,,,,,,,,,,120,001,19,1,2020_Mar_09_1114,Test,3.2.4,59.84449269958372,
Pictures/IA75_L45.bmp,Pictures/IA75_L45.bmp,Pictures/IA75.bmp,"

"Don't gamble for this one, play it safe."",0,safe,,,,,1,0,1,0,0,8,8,8,,,,,,,,,,,,,,,,,,,,,,,,,,,,,,,990.6266340829898,None,992.6486344910227,994.1693118561525,994.1526161620859,None,995.6565683609806,None,1,0.962323198094964,997.6785700151231,None,997.6785700151231,None,997.6785700151231,None,998.7815033900551,None,998.7815033900551,999.7841325940099,1000.9037564941682,None,1000.9037564941682,None,left,0.36109713301993906,1000.9037564941682,None,1001.3048001499847,1002.9090318090748,None,None,,,,,,,,,,,,,120,001,19,1,2020_Mar_09_1114,Test,3.2.4,59.84449269958372,
Pictures/IA50_G10.bmp,Pictures/IA50_G10.bmp,Pictures/IA50.bmp,"

"Go with the safe option here!"",0,safe,,,,,1,0,1,0,0,9,9,19,,,,,,,,,,,,,,,,,,,,,,,,,,,,,,,1002.9257558770478,None,1004.9477564461995,1006.4684318040963,1006.4517141131219,None,1007.9724014631938,None,2,1.4231650799047202,1009.9777009980753,None,1009.9777009980753,None,1009.9777009980753,None,None,None,None,None,1011.5819399890024,None,1011.5819399890024,None,left,0.6829039470758289,1011.5819399890024,None,1012.3004714080598,1013.5704888931941,None,None,,,,,,,,,,,,,120,001,19,1,2020_Mar_09_1114,Test,3.2.4,59.84449269958372,
Pictures/IA75_L60.bmp,Pictures/IA75_L60.bmp,Pictures/IA75.bmp,"

"Why not take the gamble?"",1,risk,,,,,1,0,1,0,0,10,10,17,,,,,,,,,,,,,,,,,,,,,,,,,,,,,,,1013.5872122661676,None,1015.6092171680648,1017.1298887101002,1017.1131746300962,None,1018.6338590390515,None,1,0.9137065678369254,1020.6391512029804,None,1020.6391512029804,None,1020.6391512029804,None,1021.6752158161253,None,1021.6752158161253,1022.6778617040254,1023.7807715861127,None,1023.7807715861127,None,right,0.7080871679354459,1023.7807715861127,None,None,None,1024.5327512300573,1025.786055942066,,,,,,,,,,,,,120,001,19,1,2020_Mar_09_1114,Test,3.2.4,59.84449269958372,
Pictures/IA100_G60.bmp,Pictures/IA100_G60.bmp,Pictures/IA100.bmp,"

"Be cautious, don't gamble for this one."",0,safe,,,,,1,0,1,0,0,11,11,5,,,,,,,,,,,,,,,,,,,,,,,,,,,,,,,1025.8027553809807,None,1027.8248004009947,1029.345466701081,1029.3287701820955,None,1030.89953848999,None,1,0.770135757047683,1032.8547224500217,None,1032.8547224500217,None,1032.8547224500217,None,1033.7905476761516,None,1033.7905476761516,1034.7931581169832,1035.9462163930293,None,1035.9462163930293,None,left,0.5506319049745798,1035.9462163930293,None,1036.5310689341277,1037.9347668751143,None,None,,,,,,,,,,,,,120,001,19,1,2020_Mar_09_1114,Test,3.2.4,59.84449269958372,
Pictures/IA75_L15.bmp,Pictures/IA75_L15.bmp,Pictures/IA75.bmp,"

"Trust me–gamble!"",1,risk,,,,,1,0,1,0,0,12,12,1,,,,,,,,,,,,,,,,,,,,,,,,,,,,,,,1037.9515199691523,None,1039.973488566,1041.494556615129,1041.4774640051182,None,1043.5997602490243,None,2,0.973404168849811,1045.0034531671554,None,1045.0034531671554,None,1045.0034531671554,None,None,None,None,None,1046.5595154049806,None,1046.5595154049806,None,left,0.441340273944661,1046.5595154049806,None,1047.0424241609871,1048.5628411441576,None,None,,,,,,,,,,,,,120,001,19,1,2020_Mar_09_1114,Test,3.2.4,59.84449269958372,
Pictures/IA20_10_G95p.bmp,Pictures/IA20_10_G95p.bmp,Pictures/IA20.bmp,"

"Take a leap, I think you should gamble."",1,risk,,,,,1,0,1,0,0,13,13,18,,,,,,,,,,,,,,,,,,,,,,,,,,,,,,,1048.5798821581993,None,1050.6352424591314,1052.1389368581586,1052.122238281183,None,1053.6930282860994,None,2,1.0253833611495793,1055.6314827350434,None,1055.6314827350434,None,1055.6314827350434,None,None,None,None,None,1056.90149681014,None,1056.90149681014,None,right,0.25936565501615405,1056.90149681014,None,None,None,1057.2022787029855,1058.8900435930118,,,,,,,,,,,,,120,001,19,1,2020_Mar_09_1114,Test,3.2.4,59.84449269958372,
Pictures/IA75_G15.bmp,Pictures/IA75_G15.bmp,Pictures/IA75.bmp,"

"Take a chance!"",1,risk,,,,,1,0,1,0,0,14,14,15,,,,,,,,,,,,,,,,,,,,,,,,,,,,,,,1058.9067959859967,None,1060.9455146091059,1062.4494616170414,1062.432716610143,None,1063.9534199410118,None,1,1.1221601478755474,1065.958713375032,None,1065.958713375032,None,1065.958713375032,None,1067.17858861899,None,1067.17858861899,1068.1812906879932,1069.3342977720313,None,1069.3342977720313,None,right,0.34654737589880824,1069.3342977720313,None,None,None,1069.7186509000603,1071.3228215691634,,,,,,,,,,,,,120,001,19,1,2020_Mar_09_1114,Test,3.2.4,59.84449269958372,
Pictures/IA75_G45.bmp,Pictures/IA75_G45.bmp,Pictures/IA75.bmp,"

"Don't gamble for this one."",0,safe,,,,,1,0,1,0,0,15,15,0,,,,,,,,,,,,,,,,,,,,,,,,,,,,,,,1071.3395922821946,None,1073.37829935411,1074.8823141190223,1074.8488818909973,None,1076.4364489940926,None,1,0.5613672670442611,1078.3915227511898,None,1078.3915227511898,None,1078.3915227511898,None,1079.0766288170125,None,1079.0766288170125,1080.0792721400503,1081.2657574710902,None,1081.2657574710902,None,left,0.3510964310262352,1081.2657574710902,None,1081.6668187191244,1083.2543226659764,None,None,,,,,,,,,,,,,120,001,19,1,2020_Mar_09_1114,Test,3.2.4,59.84449269958372,
Pictures/IA100_L60.bmp,Pictures/IA100_L60.bmp,Pictures/IA100.bmp,"

"You'd have a lot to lose, don't gamble."",0,safe,,,,,1,0,1,0,0,16,16,12,,,,,,,,,,,,,,,,,,,,,,,,,,,,,,,1083.2710392051376,None,1085.3264570881147,1086.8304325691424,1086.8137288521975,None,1088.3678094351199,None,1,0.7658841668162495,1090.32298192312,None,1090.32298192312,None,1090.32298192312,None,1091.2253531261813,None,1091.2253531261813,1092.227991042193,1093.3309072291013,None,1093.3309072291013,None,right,1.6299562361091375,1093.3309072291013,None,None,None,1095.0019999160431,None,,,,,,,,,,,,,120,001,19,1,2020_Mar_09_1114,Test,3.2.4,59.84449269958372,
Pictures/IA50_G20.bmp,Pictures/IA50_G20.bmp,Pictures/IA50.bmp,"

"Let's venture and take a risk!"",1,risk,,,,,1,0,1,0,0,17,17,14,,,,,,,,,,,,,,,,,,,,,,,,,,,,,,,1095.3529049020726,None,1097.3916237100493,1098.8955995440483,1098.878878123127,None,1100.4497003201395,None,2,0.38802094594575465,1102.4048478300683,None,1102.4048478300683,None,1102.4048478300683,None,None,None,None,None,1102.973023897037,None,1102.973023897037,None,right,0.25983426510356367,1102.973023897037,None,None,None,1103.2738030101173,1104.961602965137,,,,,,,,,,,,,120,001,19,1,2020_Mar_09_1114,Test,3.2.4,59.84449269958372,
Pictures/IA25_L20.bmp,Pictures/IA25_L20.bmp,Pictures/IA25.bmp,"

"Don't be tempted to gamble."",0,safe,,,,,1,0,1,0,0,18,18,16,,,,,,,,,,,,,,,,,,,,,,,,,,,,,,,1104.9783009761013,None,1107.0170156180393,1108.5209903721698,1108.5042757519986,None,1110.075097171124,None,1,0.4106150669977069,1112.0302463441622,None,1112.0302463441622,None,1112.0302463441622,None,1112.5649873681832,None,1112.5649873681832,1113.5676288551185,1114.6705458341166,None,1114.6705458341166,None,left,0.8343087378889322,1114.6705458341166,None,1115.5395121241454,1116.6758491131477,None,None,,,,,,,,,,,,,120,001,19,1,2020_Mar_09_1114,Test,3.2.4,59.84449269958372,
Pictures/IA25_G15.bmp,Pictures/IA25_G15.bmp,Pictures/IA25.bmp,"

"I think you should take a gamble."",1,risk,,,,,1,0,1,0,0,19,19,6,,,,,,,,,,,,,,,,,,,,,,,,,,,,,,,1116.692544465186,None,1118.7145463281777,1120.2352295801975,1120.2185279370751,None,1121.7893303621095,None,2,0.4803513060323894,1123.7445060811006,None,1123.7445060811006,None,1123.7445060811006,None,None,None,None,None,1124.4129309521522,None,1124.4129309521522,None,left,0.299927223008126,1124.4129309521522,None,1124.747089587152,1126.4182073271368,None,None,,,,,,,,,,,,,120,001,19,1,2020_Mar_09_1114,Test,3.2.4,59.84449269958372,
,,,,,,,,,,1,0,1,0,,,,,,,,,,,,,,,,,,,,,,,,,,,,,,,,,,,,,,,,,,,,,,,,,,,,,,,,,,,,,,,,,,,,,,,,,1126.585331786191,None,return,7.143511679954827,1126.585331786191,None,120,001,19,1,2020_Mar_09_1114,Test,3.2.4,59.84449269958372,
Pictures/IA50_G40.bmp,Pictures/IA50_G40.bmp,Pictures/IA50.bmp,"

"It would probably be best to play it safe."",0,safe,,,,,2,0,2,0,0,0,0,16,,,,,,,,,,,,,1133.9213459701277,None,1133.9213459701277,None,1133.9213459701277,None,right,3.0315001469571143,1133.9213459701277,None,1133.9213459701277,None,1133.9213459701277,None,return,6.431378707988188,1133.9213459701277,None,1140.3884096120019,None,1142.4104080870748,1143.931086653145,1143.9143920501228,None,1145.4517806731164,None,1,0.5692324850242585,1147.423652155092,None,1147.423652155092,None,1147.423652155092,None,1148.1589258799795,None,1148.1589258799795,1149.1615643650293,1150.2644872909877,None,1150.2644872909877,None,left,0.3923687341157347,1150.2644872909877,None,1150.6989503721707,1152.2697680720594,None,None,,,,,,,,,,,,,120,001,19,1,2020_Mar_09_1114,Test,3.2.4,59.84449269958372,
Pictures/IA50_L10.bmp,Pictures/IA50_L10.bmp,Pictures/IA50.bmp,"

"Play it safe, don’t gamble!"",0,safe,,,,,2,0,2,0,0,1,1,15,,,,,,,,,,,,,,,,,,,,,,,,,,,,,,,1152.2864680890925,None,1154.3084728040267,1155.829148553079,1155.8124571950175,None,1157.366555257002,None,2,0.35043288697488606,1159.3384283061605,None,1159.3384283061605,None,1159.3384283061605,None,None,None,None,None,1159.8731753199827,None,1159.8731753199827,None,left,0.2156788189895451,1159.8731753199827,None,1160.1238318241667,1161.8617493649945,None,None,,,,,,,,,,,,,120,001,19,1,2020_Mar_09_1114,Test,3.2.4,59.84449269958372,
Pictures/IA100_L80.bmp,Pictures/IA100_L80.bmp,Pictures/IA100.bmp,"

"Go all in!"",1,risk,,,,,2,0,2,0,0,2,2,12,,,,,,,,,,,,,,,,,,,,,,,,,,,,,,,1161.878447634168,None,1163.900453346083,1165.4211296581198,1165.4044357251842,None,1166.9752338181715,None,1,0.24645464797504246,1168.9304091841914,None,1168.9304091841914,None,1168.9304091841914,None,1169.2646217120346,None,1169.2646217120346,1170.2672650211025,1171.370180292055,None,1171.370180292055,None,right,0.37467103893868625,1171.370180292055,None,None,None,1171.7879506021272,1173.3587438820396,,,,,,,,,,,,,120,001,19,1,2020_Mar_09_1114,Test,3.2.4,59.84449269958372,
Pictures/IA50_G30.bmp,Pictures/IA50_G30.bmp,Pictures/IA50.bmp,"

"I think you should gamble."",1,risk,,,,,2,0,2,0,0,3,3,7,,,,,,,,,,,,,,,,,,,,,,,,,,,,,,,1173.3754694540985,None,1175.397472604178,1176.9181520990096,1176.9014336972032,None,1178.438833868131,None,2,0.5494488270487636,1180.42740736017,None,1180.42740736017,None,1180.42740736017,None,None,None,None,None,1181.1626821411774,None,1181.1626821411774,None,left,0.2301698208320886,1181.1626821411774,None,1181.4300618350971,1183.167978966143,None,None,,,,,,,,,,,,,120,001,19,1,2020_Mar_09_1114,Test,3.2.4,59.84449269958372,
Pictures/IA50_L30.bmp,Pictures/IA50_L30.bmp,Pictures/IA50.bmp,"

"Take a leap, I think you should gamble."",1,risk,,,,,2,0,2,0,0,4,4,17,,,,,,,,,,,,,,,,,,,,,,,,,,,,,,,1183.1846774481237,None,1185.2066837870516,1186.7273608960677,1186.7106681161094,None,1188.2647538091987,None,1,0.868238362018019,1190.2366292411461,None,1190.2366292411461,None,1190.2366292411461,None,1191.2392843591515,None,1191.2392843591515,1192.2419250709936,1193.3448416530155,None,1193.3448416530155,None,right,0.2640144359320402,1193.3448416530155,None,None,None,1193.6456178680528,1195.3501361170784,,,,,,,,,,,,,120,001,19,1,2020_Mar_09_1114,Test,3.2.4,59.84449269958372,
Pictures/IA75_L15.bmp,Pictures/IA75_L15.bmp,Pictures/IA75.bmp,"

"Trust me–gamble!"",1,risk,,,,,2,0,2,0,0,5,5,1,,,,,,,,,,,,,,,,,,,,,,,,,,,,,,,1195.3668404330965,None,1197.3888461000752,1198.9095230051316,1198.8928050950635,None,1200.4302061940543,None,2,0.3180899720173329,1202.4187797000632,None,1202.4187797000632,None,1202.4187797000632,None,None,None,None,None,1202.9034035350196,None,1202.9034035350196,None,left,0.17745215585455298,1202.9034035350196,None,1203.1206380180083,1204.891979149077,None,None,,,,,,,,,,,,,120,001,19,1,2020_Mar_09_1114,Test,3.2.4,59.84449269958372,
Pictures/IA100_G40.bmp,Pictures/IA100_G40.bmp,Pictures/IA100.bmp,"

"Try your luck and gamble!"",1,risk,,,,,2,0,2,0,0,6,6,19,,,,,,,,,,,,,,,,,,,,,,,,,,,,,,,1204.908679323038,None,1206.9306835541502,1208.4513620790094,1208.4346676710993,None,1209.988763610134,None,1,0.2322371918708086,1211.960626551183,None,1211.960626551183,None,1211.960626551183,None,1212.311563380994,None,1212.311563380994,1213.3142072991468,1214.417124407133,None,1214.417124407133,None,right,0.23172437795437872,1214.417124407133,None,None,None,1214.6844787651207,1216.4224095470272,,,,,,,,,,,,,120,001,19,1,2020_Mar_09_1114,Test,3.2.4,59.84449269958372,
Pictures/IA25_G20.bmp,Pictures/IA25_G20.bmp,Pictures/IA25.bmp,"

"I wouldn't gamble for this one. "",0,safe,,,,,2,0,2,0,0,7,7,10,,,,,,,,,,,,,,,,,,,,,,,,,,,,,,,1216.43910813611,None,1218.461116152117,1219.965094264131,1219.9483749622013,None,1221.5024766260758,None,2,0.34178822999820113,1223.4910761401989,None,1223.4910761401989,None,1223.4910761401989,None,None,None,None,None,1224.0091063061263,None,1224.0091063061263,None,left,0.19175285892561078,1224.0091063061263,None,1224.2430402641185,1225.9976941810455,None,None,,,,,,,,,,,,,120,001,19,1,2020_Mar_09_1114,Test,3.2.4,59.84449269958372,
Pictures/IA20_10_L95p.bmp,Pictures/IA20_10_L95p.bmp,Pictures/IA20.bmp,"

"Don't be tempted to gamble."",0,safe,,,,,2,0,2,0,0,8,8,5,,,,,,,,,,,,,,,,,,,,,,,,,,,,,,,1226.0143821251113,None,1228.0530982450582,1229.5570753200445,1229.5403582840227,None,1231.111181742046,None,1,0.8865410040598363,1233.0663321351167,None,1233.0663321351167,None,1233.0663321351167,None,1234.0689900361467,None,1234.0689900361467,1235.0716320481151,1236.174548806157,None,1236.174548806157,None,left,0.2743037261534482,1236.174548806157,None,1236.4920468081255,1238.1631255340762,None,None,,,,,,,,,,,,,120,001,19,1,2020_Mar_09_1114,Test,3.2.4,59.84449269958372,
Pictures/IA50_L20.bmp,Pictures/IA50_L20.bmp,Pictures/IA50.bmp,"

"Certainty is boring, take a risk!"",1,risk,,,,,2,0,2,0,0,9,9,9,,,,,,,,,,,,,,,,,,,,,,,,,,,,,,,1238.179823297076,None,1240.2018302690703,1241.7225085690152,1241.7058121480513,None,1243.2766108051874,None,1,1.4410804230719805,1245.2317854051944,None,1245.2317854051944,None,1245.2317854051944,None,1246.8025976161007,None,1246.8025976161007,1247.8052393461112,1248.908156372141,None,1248.908156372141,None,right,0.30068992590531707,1248.908156372141,None,None,None,1249.242355342023,1250.913431057008,,,,,,,,,,,,,120,001,19,1,2020_Mar_09_1114,Test,3.2.4,59.84449269958372,
Pictures/IA80_40_G95p.bmp,Pictures/IA80_40_G95p.bmp,Pictures/IA80.bmp,"

"Think of the payoff, gamble!"",1,risk,,,,,2,0,2,0,0,10,10,6,,,,,,,,,,,,,,,,,,,,,,,,,,,,,,,1250.930156446062,None,1252.9688703040592,1254.4895486710593,1254.4728310331702,None,1256.0436406880617,None,2,1.6027678740210831,1257.9820907411631,None,1257.9820907411631,None,1257.9820907411631,None,None,None,None,None,1259.7701563599985,None,1259.7701563599985,None,right,0.7826958238147199,1259.7701563599985,None,None,None,1260.5889821180608,1261.7587228750344,,,,,,,,,,,,,120,001,19,1,2020_Mar_09_1114,Test,3.2.4,59.84449269958372,
Pictures/IA75_G60.bmp,Pictures/IA75_G60.bmp,Pictures/IA75.bmp,"

"Make it exciting, take a chance!"",1,risk,,,,,2,0,2,0,0,11,11,2,,,,,,,,,,,,,,,,,,,,,,,,,,,,,,,1261.7754495060071,None,1263.7974495941307,1265.3181297790725,1265.3014096701518,None,1266.855526281055,None,2,0.2774654240347445,1268.8273963481188,None,1268.8273963481188,None,1268.8273963481188,None,None,None,None,None,1269.2785879389849,None,1269.2785879389849,None,left,0.18627145886421204,1269.2785879389849,None,1269.51252126717,1271.2838749960065,None,None,,,,,,,,,,,,,120,001,19,1,2020_Mar_09_1114,Test,3.2.4,59.84449269958372,
Pictures/IA75_L45.bmp,Pictures/IA75_L45.bmp,Pictures/IA75.bmp,"

"Don't gamble for this one, play it safe."",0,safe,,,,,2,0,2,0,0,12,12,0,,,,,,,,,,,,,,,,,,,,,,,,,,,,,,,1271.3005743341055,None,1273.322581912158,1274.843258892186,1274.8265631871764,None,1276.3806518120691,None,1,0.2563426059205085,1278.3525249911472,None,1278.3525249911472,None,1278.3525249911472,None,1278.7535997619852,None,1278.7535997619852,1279.7562377380673,1280.8591548411641,None,1280.8591548411641,None,None,,1280.8591548411641,None,None,None,None,None,,,,,,,,,,,,,120,001,19,1,2020_Mar_09_1114,Test,3.2.4,59.84449269958372,
Pictures/IA25_L5.bmp,Pictures/IA25_L5.bmp,Pictures/IA25.bmp,"

"It would be smarter to choose the safe option."",0,safe,,,,,2,0,2,0,0,13,13,4,,,,,,,,,,,,,,,,,,,,,,,,,,,,,,,1282.8644409081899,None,1284.8864483770449,1286.4071265340317,1286.3904071741272,None,1287.9445235060994,None,2,0.8444689880125225,1289.9163964120671,None,1289.9163964120671,None,1289.9163964120671,None,None,None,None,None,1290.9357493040152,None,1290.9357493040152,None,left,0.20110069192014635,1290.9357493040152,None,1291.186411804054,1292.924327597022,None,None,,,,,,,,,,,,,120,001,19,1,2020_Mar_09_1114,Test,3.2.4,59.84449269958372,
Pictures/IA100_L20.bmp,Pictures/IA100_L20.bmp,Pictures/IA100.bmp,"

"Try to win as much money as you can, gamble!"",1,risk,,,,,2,0,2,0,0,14,14,14,,,,,,,,,,,,,,,,,,,,,,,,,,,,,,,1292.9410275351256,None,1294.9630332521629,1296.483710482018,1296.4670189861208,None,1298.0211047001649,None,2,0.2878555830102414,1299.9930032279808,None,1299.9930032279808,None,1299.9930032279808,None,None,None,None,None,1300.4776030641515,None,1300.4776030641515,None,left,0.2432596329599619,1300.4776030641515,None,1300.7616806961596,1302.4661704751197,None,None,,,,,,,,,,,,,120,001,19,1,2020_Mar_09_1114,Test,3.2.4,59.84449269958372,
Pictures/IA25_L15.bmp,Pictures/IA25_L15.bmp,Pictures/IA25.bmp,"

"There's not much on the line here, gamble!"",1,risk,,,,,2,0,2,0,0,15,15,11,,,,,,,,,,,,,,,,,,,,,,,,,,,,,,,1302.4828904960304,None,1304.5048922640271,1306.00885680411,1305.9921626141295,None,1307.5629693099763,None,1,0.2660208579618484,1309.534842689056,None,1309.534842689056,None,1309.534842689056,None,1309.9358863860834,None,1309.9358863860834,1310.9385288371705,1312.0414472559933,None,1312.0414472559933,None,right,0.3114069029688835,1312.0414472559933,None,None,None,1312.3923670609947,1314.0300376531668,,,,,,,,,,,,,120,001,19,1,2020_Mar_09_1114,Test,3.2.4,59.84449269958372,
Pictures/IA75_L60.bmp,Pictures/IA75_L60.bmp,Pictures/IA75.bmp,"

"Why not take the gamble?"",1,risk,,,,,2,0,2,0,0,16,16,13,,,,,,,,,,,,,,,,,,,,,,,,,,,,,,,1314.0467343199998,None,1316.0687385720666,1317.5894252641592,1317.5727228149772,None,1319.126813491108,None,1,0.3901772059034556,1321.0986874101218,None,1321.0986874101218,None,1321.0986874101218,None,1321.616725759115,None,1321.616725759115,1322.6193724810146,1323.722288790159,None,1323.722288790159,None,right,0.9985778010450304,1323.722288790159,None,None,None,1324.7583450020757,None,,,,,,,,,,,,,120,001,19,1,2020_Mar_09_1114,Test,3.2.4,59.84449269958372,
Pictures/IA110_55_L95p.bmp,Pictures/IA110_55_L95p.bmp,Pictures/IA110.bmp,"

"Trust me, gamble!"",1,risk,,,,,2,0,2,0,0,17,17,8,,,,,,,,,,,,,,,,,,,,,,,,,,,,,,,1325.7442810120992,None,1327.7829978950322,1329.3036698950455,1329.286977312062,None,1330.8410773649812,None,1,0.7726384978741407,1332.796228232095,None,1332.796228232095,None,1332.796228232095,None,1333.6818977540825,None,1333.6818977540825,1334.6845402449835,1335.7874571210705,None,1335.7874571210705,None,right,0.30941087403334677,1335.7874571210705,None,None,None,1336.1383804650977,1337.776049542008,,,,,,,,,,,,,120,001,19,1,2020_Mar_09_1114,Test,3.2.4,59.84449269958372,
Pictures/IA75_G15.bmp,Pictures/IA75_G15.bmp,Pictures/IA75.bmp,"

"Take a chance!"",1,risk,,,,,2,0,2,0,0,18,18,18,,,,,,,,,,,,,,,,,,,,,,,,,,,,,,,1337.7927449790295,None,1339.8147502921056,1341.3354297711048,1341.3187361070886,None,1342.822696735151,None,2,1.3081575259566307,1344.8447073330171,None,1344.8447073330171,None,1344.8447073330171,None,None,None,None,None,1346.331966299098,None,1346.331966299098,None,right,0.19689461193047464,1346.331966299098,None,None,None,1346.5659022261389,1348.3372562080622,,,,,,,,,,,,,120,001,19,1,2020_Mar_09_1114,Test,3.2.4,59.84449269958372,
Pictures/IA100_G20.bmp,Pictures/IA100_G20.bmp,Pictures/IA100.bmp,"

"Go ahead and gamble!"",1,risk,,,,,2,0,2,0,0,19,19,3,,,,,,,,,,,,,,,,,,,,,,,,,,,,,,,1348.353959477041,None,1350.3759682520758,1351.8966395200696,1351.879944215063,None,1353.4340328071266,None,1,0.3469506858382374,1355.4059098251164,None,1355.4059098251164,None,1355.4059098251164,None,1355.8570954001043,None,1355.8570954001043,1356.8597413331736,1357.9793669651262,None,1357.9793669651262,None,right,0.1974867640528828,1357.9793669651262,None,None,None,1358.213324203156,1359.9846530130599,,,,,,,,,,,,,120,001,19,1,2020_Mar_09_1114,Test,3.2.4,59.84449269958372,
,,,,,,,,,,2,0,2,0,,,,,,,,,,,,,,,,,,,,,,,,,,,,,,,,,,,,,,,,,,,,,,,,,,,,,,,,,,,,,,,,,,,,,,,,,1360.1517432520632,None,return,6.2571023418568075,1360.1517432520632,None,120,001,19,1,2020_Mar_09_1114,Test,3.2.4,59.84449269958372,
Pictures/IA75_G60.bmp,Pictures/IA75_G60.bmp,Pictures/IA75.bmp,"

"Make it exciting, take a chance!"",1,risk,,,,,3,0,3,0,0,0,0,8,,,,,,,,,,,,,1366.5687131690793,None,1366.5687131690793,None,1366.5687131690793,None,left,0.968140953918919,1366.5687131690793,None,1366.5687131690793,None,1366.5687131690793,None,return,2.127953658811748,1366.5687131690793,None,1368.757811957039,None,1370.76311975508,1372.2837980720215,1372.267077445984,None,1373.7543357661925,None,2,0.32051896979101,1375.7763555161655,None,1375.7763555161655,None,1375.7763555161655,None,None,None,None,None,1376.277663483983,None,1376.277663483983,None,left,0.2271870009135455,1376.277663483983,None,1376.5450448810589,1378.2829664039891,None,None,,,,,,,,,,,,,120,001,19,1,2020_Mar_09_1114,Test,3.2.4,59.84449269958372,
Pictures/IA50_L40.bmp,Pictures/IA50_L40.bmp,Pictures/IA50.bmp,"

"That gamble doesn't sound too good, play it safe."",0,safe,,,,,3,0,3,0,0,1,1,18,,,,,,,,,,,,,,,,,,,,,,,,,,,,,,,1378.2996634691954,None,1380.3216687331442,1381.842348779086,1381.8256555721164,None,1383.3964521151502,None,1,0.521233462030068,1385.351633412065,None,1385.351633412065,None,1385.351633412065,None,1386.0367563001346,None,1386.0367563001346,1387.039400051115,1388.1423152079806,None,1388.1423152079806,None,left,0.28253930900245905,1388.1423152079806,None,1388.4598159091547,1390.1308939079754,None,None,,,,,,,,,,,,,120,001,19,1,2020_Mar_09_1114,Test,3.2.4,59.84449269958372,
Pictures/IA100_G60.bmp,Pictures/IA100_G60.bmp,Pictures/IA100.bmp,"

"Be cautious, don't gamble for this one."",0,safe,,,,,3,0,3,0,0,2,2,16,,,,,,,,,,,,,,,,,,,,,,,,,,,,,,,1390.1476203240454,None,1392.1696210850496,1393.6903013631236,1393.6735815419815,None,1395.2276965761557,None,2,0.8332965048030019,1397.1995675761718,None,1397.1995675761718,None,1397.1995675761718,None,None,None,None,None,1398.2022035701666,None,1398.2022035701666,None,left,0.1986493559088558,1398.2022035701666,None,1398.436163059203,1400.2074905370828,None,None,,,,,,,,,,,,,120,001,19,1,2020_Mar_09_1114,Test,3.2.4,59.84449269958372,
Pictures/IA100_G80.bmp,Pictures/IA100_G80.bmp,Pictures/IA100.bmp,"

"Why not gamble?"",1,risk,,,,,3,0,3,0,0,3,3,5,,,,,,,,,,,,,,,,,,,,,,,,,,,,,,,1400.22421335103,None,1402.2462189481594,1403.7669014930725,1403.7501825590152,None,1405.3210030309856,None,2,0.3327127620577812,1407.2761525120586,None,1407.2761525120586,None,1407.2761525120586,None,None,None,None,None,1407.760774660157,None,1407.760774660157,None,left,0.22409475897438824,1407.760774660157,None,1408.0281384121627,1409.7660510821734,None,None,,,,,,,,,,,,,120,001,19,1,2020_Mar_09_1114,Test,3.2.4,59.84449269958372,
Pictures/IA75_L15.bmp,Pictures/IA75_L15.bmp,Pictures/IA75.bmp,"

"Trust me–gamble!"",1,risk,,,,,3,0,3,0,0,4,4,7,,,,,,,,,,,,,,,,,,,,,,,,,,,,,,,1409.782776799053,None,1411.8047819971107,1413.3254616840277,1413.3087418361101,None,1414.8294347890187,None,2,0.2861340830568224,1416.8347306151409,None,1416.8347306151409,None,1416.8347306151409,None,None,None,None,None,1417.2859077351168,None,1417.2859077351168,None,left,0.21894166502170265,1417.2859077351168,None,1417.553293006029,1419.2912084420677,None,None,,,,,,,,,,,,,120,001,19,1,2020_Mar_09_1114,Test,3.2.4,59.84449269958372,
Pictures/IA100_L40.bmp,Pictures/IA100_L40.bmp,Pictures/IA100.bmp,"

"Think of the payoff, gamble!"",1,risk,,,,,3,0,3,0,0,5,5,1,,,,,,,,,,,,,,,,,,,,,,,,,,,,,,,1419.3079076809809,None,1421.3299131591339,1422.850591266062,1422.8338977249805,None,1424.4047002550215,None,1,0.2809891940560192,1426.359871281078,None,1426.359871281078,None,1426.359871281078,None,1426.7442170782015,None,1426.7442170782015,1427.7468598890118,1428.8664874061942,None,1428.8664874061942,None,right,0.8143662649672478,1428.8664874061942,None,None,None,1429.7187319381628,1430.8550665660296,,,,,,,,,,,,,120,001,19,1,2020_Mar_09_1114,Test,3.2.4,59.84449269958372,
Pictures/IA100_L80.bmp,Pictures/IA100_L80.bmp,Pictures/IA100.bmp,"

"Go all in!"",1,risk,,,,,3,0,3,0,0,6,6,13,,,,,,,,,,,,,,,,,,,,,,,,,,,,,,,1430.8717687360477,None,1432.8937689100858,1434.4144516710658,1434.3977572401054,None,1435.901711563114,None,1,0.27712770109064877,1437.9237331009936,None,1437.9237331009936,None,1437.9237331009936,None,1438.274653071072,None,1438.274653071072,1439.2772959931754,1440.3802114520222,None,1440.3802114520222,None,right,0.2766448720358312,1440.3802114520222,None,None,None,1440.6977126861457,1442.368789975997,,,,,,,,,,,,,120,001,19,1,2020_Mar_09_1114,Test,3.2.4,59.84449269958372,
Pictures/IA25_G10.bmp,Pictures/IA25_G10.bmp,Pictures/IA25.bmp,"

"What's life without a little risk?"",1,risk,,,,,3,0,3,0,0,7,7,11,,,,,,,,,,,,,,,,,,,,,,,,,,,,,,,1442.3854879459832,None,1444.4074946250767,1445.928173976019,1445.91147805308,None,1447.4655667741317,None,1,0.7794254838954657,1449.4374404971022,None,1449.4374404971022,None,1449.4374404971022,None,1450.3398188971914,None,1450.3398188971914,1451.3424748710822,1452.44538074499,None,1452.44538074499,None,right,0.33146885107271373,1452.44538074499,None,None,None,1452.8130246810615,1454.4506691771094,,,,,,,,,,,,,120,001,19,1,2020_Mar_09_1114,Test,3.2.4,59.84449269958372,
Pictures/IA80_40_G95p.bmp,Pictures/IA80_40_G95p.bmp,Pictures/IA80.bmp,"

"Think of the payoff, gamble!"",1,risk,,,,,3,0,3,0,0,8,8,9,,,,,,,,,,,,,,,,,,,,,,,,,,,,,,,1454.4673903540242,None,1456.4893962081987,1458.0100830090232,1457.9933664731216,None,1459.4973380551673,None,2,0.561469609849155,1461.5193946191575,None,1461.5193946191575,None,1461.5193946191575,None,None,None,None,None,1462.2379048899747,None,1462.2379048899747,None,left,0.2749535241164267,1462.2379048899747,None,1462.5554064069875,1464.2264854121022,None,None,,,,,,,,,,,,,120,001,19,1,2020_Mar_09_1114,Test,3.2.4,59.84449269958372,
Pictures/IA50_G20.bmp,Pictures/IA50_G20.bmp,Pictures/IA50.bmp,"

"Let's venture and take a risk!"",1,risk,,,,,3,0,3,0,0,9,9,14,,,,,,,,,,,,,,,,,,,,,,,,,,,,,,,1464.2431826679967,None,1466.2651950770523,1467.7858678551856,1467.7691724440083,None,1469.3065522180405,None,2,0.48971768701449037,1471.29514738312,None,1471.29514738312,None,1471.29514738312,None,None,None,None,None,1471.946853139205,None,1471.946853139205,None,right,0.20600491715595126,1471.946853139205,None,None,None,1472.1975173940882,1473.9354321809951,,,,,,,,,,,,,120,001,19,1,2020_Mar_09_1114,Test,3.2.4,59.84449269958372,
Pictures/IA100_G40.bmp,Pictures/IA100_G40.bmp,Pictures/IA100.bmp,"

"Try your luck and gamble!"",1,risk,,,,,3,0,3,0,0,10,10,6,,,,,,,,,,,,,,,,,,,,,,,,,,,,,,,1473.9521568370983,None,1475.974162394181,1477.4948428361677,1477.4781211300287,None,1478.9821027270518,None,1,0.2847611610777676,1481.00409799302,None,1481.00409799302,None,1481.00409799302,None,1481.4051702572033,None,1481.4051702572033,1482.4078098251484,1483.5441472199745,None,1483.5441472199745,None,right,0.36871307506226003,1483.5441472199745,None,None,None,1483.9619123570155,1485.5327235560399,,,,,,,,,,,,,120,001,19,1,2020_Mar_09_1114,Test,3.2.4,59.84449269958372,
Pictures/IA75_G15.bmp,Pictures/IA75_G15.bmp,Pictures/IA75.bmp,"

"Take a chance!"",1,risk,,,,,3,0,3,0,0,11,11,2,,,,,,,,,,,,,,,,,,,,,,,,,,,,,,,1485.5494240561966,None,1487.5714285611175,1489.0921066391747,1489.0754122780636,None,1490.6127898711711,None,2,0.7114869749639183,1492.6013862141408,None,1492.6013862141408,None,1492.6013862141408,None,None,None,None,None,1493.4703455811832,None,1493.4703455811832,None,right,0.2105223631951958,1493.4703455811832,None,None,None,1493.7210033661686,1495.4589103939943,,,,,,,,,,,,,120,001,19,1,2020_Mar_09_1114,Test,3.2.4,59.84449269958372,
Pictures/IA25_L5.bmp,Pictures/IA25_L5.bmp,Pictures/IA25.bmp,"

"It would be smarter to choose the safe option."",0,safe,,,,,3,0,3,0,0,12,12,4,,,,,,,,,,,,,,,,,,,,,,,,,,,,,,,1495.4756362210028,None,1497.4976422961336,1499.0183216719888,1499.0016081740614,None,1500.5055848672055,None,2,0.2893011257983744,1502.5275754481554,None,1502.5275754481554,None,1502.5275754481554,None,None,None,None,None,1502.9954962600023,None,1502.9954962600023,None,left,0.22136860294267535,1502.9954962600023,None,1503.2628457311075,1505.0007757481653,None,None,,,,,,,,,,,,,120,001,19,1,2020_Mar_09_1114,Test,3.2.4,59.84449269958372,
Pictures/IA80_40_L95p.bmp,Pictures/IA80_40_L95p.bmp,Pictures/IA80.bmp,"

"Let's stay with the certain option."",0,safe,,,,,3,0,3,0,0,13,13,10,,,,,,,,,,,,,,,,,,,,,,,,,,,,,,,1505.0174915820826,None,1507.039494163124,1508.5601717901882,1508.54345806106,None,1510.0975683561992,None,2,0.5474365230184048,1512.0694414211903,None,1512.0694414211903,None,1512.0694414211903,None,None,None,None,None,1512.788003730122,None,1512.788003730122,None,right,0.15684766718186438,1512.788003730122,None,None,None,1512.9885292639956,1514.7932484240737,,,,,,,,,,,,,120,001,19,1,2020_Mar_09_1114,Test,3.2.4,59.84449269958372,
Pictures/IA50_L20.bmp,Pictures/IA50_L20.bmp,Pictures/IA50.bmp,"

"Certainty is boring, take a risk!"",1,risk,,,,,3,0,3,0,0,14,14,0,,,,,,,,,,,,,,,,,,,,,,,,,,,,,,,1514.8100046690088,None,1516.832008992089,1518.35268742498,1518.335971225053,None,1519.8733716520946,None,1,0.23492621397599578,1521.8619434670545,None,1521.8619434670545,None,1521.8619434670545,None,1522.2128693331033,None,1522.2128693331033,1523.2155111650936,1524.318428090075,None,1524.318428090075,None,right,0.41843027295544744,1524.318428090075,None,None,None,1524.7863415221218,1526.3237285630312,,,,,,,,,,,,,120,001,19,1,2020_Mar_09_1114,Test,3.2.4,59.84449269958372,
Pictures/IA50_L30.bmp,Pictures/IA50_L30.bmp,Pictures/IA50.bmp,"

"Take a leap, I think you should gamble."",1,risk,,,,,3,0,3,0,0,15,15,17,,,,,,,,,,,,,,,,,,,,,,,,,,,,,,,1526.340426785173,None,1528.3624349951278,1529.8831132550258,1529.8664181130007,None,1531.387085928116,None,1,0.7444854381028563,1533.3923780820332,None,1533.3923780820332,None,1533.3923780820332,None,1534.2780493930914,None,1534.2780493930914,1535.2806912211236,1536.3836098201573,None,1536.3836098201573,None,right,0.31324262102134526,1536.3836098201573,None,None,None,1536.7345345001668,1538.3721983269788,,,,,,,,,,,,,120,001,19,1,2020_Mar_09_1114,Test,3.2.4,59.84449269958372,
Pictures/IA25_L10.bmp,Pictures/IA25_L10.bmp,Pictures/IA25.bmp,"

"Dont be afraid to take the risk!"",1,risk,,,,,3,0,3,0,0,16,16,15,,,,,,,,,,,,,,,,,,,,,,,,,,,,,,,1538.3888960101176,None,1540.4109031781554,1541.9315805130173,1541.9148870790377,None,1543.4689793540165,None,2,0.5679804899264127,1545.4408630891703,None,1545.4408630891703,None,1545.4408630891703,None,None,None,None,None,1546.159421869088,None,1546.159421869088,None,left,0.2094355709850788,1546.159421869088,None,1546.4100824890193,1548.148004075978,None,None,,,,,,,,,,,,,120,001,19,1,2020_Mar_09_1114,Test,3.2.4,59.84449269958372,
Pictures/IA20_10_L95p.bmp,Pictures/IA20_10_L95p.bmp,Pictures/IA20.bmp,"

"Don't be tempted to gamble."",0,safe,,,,,3,0,3,0,0,17,17,12,,,,,,,,,,,,,,,,,,,,,,,,,,,,,,,1548.1647421871312,None,1550.1867060610093,1551.70739052305,1551.690690650139,None,1553.2113579690922,None,1,0.9042153880000114,1555.2166538371239,None,1555.2166538371239,None,1555.2166538371239,None,1556.2527233671863,None,1556.2527233671863,1557.2553649120964,1558.3917049611919,None,1558.3917049611919,None,right,0.27315187198109925,1558.3917049611919,None,None,None,1558.7092023980804,1560.3802789140027,,,,,,,,,,,,,120,001,19,1,2020_Mar_09_1114,Test,3.2.4,59.84449269958372,
Pictures/IA25_G15.bmp,Pictures/IA25_G15.bmp,Pictures/IA25.bmp,"

"I think you should take a gamble."",1,risk,,,,,3,0,3,0,0,18,18,3,,,,,,,,,,,,,,,,,,,,,,,,,,,,,,,1560.3970015030354,None,1562.419016533997,1563.9396880401764,1563.922974494053,None,1565.4436601961497,None,1,0.9759108610451221,1567.4489541479852,None,1567.4489541479852,None,1567.4489541479852,None,1568.5518676191568,None,1568.5518676191568,1569.5545080101583,1570.674135689158,None,1570.674135689158,None,right,0.5507134301587939,1570.674135689158,None,None,None,1571.2590097039938,1572.6627130419947,,,,,,,,,,,,,120,001,19,1,2020_Mar_09_1114,Test,3.2.4,59.84449269958372,
Pictures/IA75_G45.bmp,Pictures/IA75_G45.bmp,Pictures/IA75.bmp,"

"Don't gamble for this one."",0,safe,,,,,3,0,3,0,0,19,19,19,,,,,,,,,,,,,,,,,,,,,,,,,,,,,,,1572.679412271129,None,1574.7014230170753,1576.2220952601638,1576.205399560975,None,1577.7260714571457,None,2,1.0534949710126966,1579.7313669261057,None,1579.7313669261057,None,1579.7313669261057,None,None,None,None,None,1580.9512633371633,None,1580.9512633371633,None,left,0.7775972560048103,1580.9512633371633,None,1581.7700868190732,1582.939831861062,None,None,,,,,,,,,,,,,120,001,19,1,2020_Mar_09_1114,Test,3.2.4,59.84449269958372,
,,,,,,,,,,3,0,3,0,,,,,,,,,,,,,,,,,,,,,,,,,,,,,,,,,,,,,,,,,,,,,,,,,,,,,,,,,,,,,,,,,,,,,,,,,1583.1069550600369,None,return,3.9818927810993046,1583.1069550600369,None,120,001,19,1,2020_Mar_09_1114,Test,3.2.4,59.84449269958372,
Pictures/IA100_G80.bmp,Pictures/IA100_G80.bmp,Pictures/IA100.bmp,"

"Why not gamble?"",1,risk,,,,,4,0,4,0,0,0,0,1,,,,,,,,,,,,,1587.2512265490368,None,1587.2512265490368,None,1587.2512265490368,None,left,1.0696201319806278,1587.2512265490368,None,1587.2512265490368,None,1587.2512265490368,None,return,2.6294077979400754,1587.2512265490368,None,1589.9249401951674,None,1591.9469400821254,1593.4676206461154,1593.4509238030296,None,1594.9381844201125,None,2,0.36068856390193105,1596.960175135173,None,1596.960175135173,None,1596.960175135173,None,None,None,None,None,1597.4949219110422,None,1597.4949219110422,None,left,0.19393467996269464,1597.4949219110422,None,1597.7288805530407,1599.5002100681886,None,None,,,,,,,,,,,,,120,001,19,1,2020_Mar_09_1114,Test,3.2.4,59.84449269958372,
Pictures/IA50_G10.bmp,Pictures/IA50_G10.bmp,Pictures/IA50.bmp,"

"Go with the safe option here!"",0,safe,,,,,4,0,4,0,0,1,1,16,,,,,,,,,,,,,,,,,,,,,,,,,,,,,,,1599.5169410791714,None,1601.5389384489972,1603.0596178621054,1603.0428980931174,None,1604.597013436025,None,2,0.3839689448941499,1606.568887726171,None,1606.568887726171,None,1606.568887726171,None,None,None,None,None,1607.1203405121341,None,1607.1203405121341,None,right,0.2085206499323249,1607.1203405121341,None,None,None,1607.3709983429871,1609.1089215241373,,,,,,,,,,,,,120,001,19,1,2020_Mar_09_1114,Test,3.2.4,59.84449269958372,
Pictures/IA50_G30.bmp,Pictures/IA50_G30.bmp,Pictures/IA50.bmp,"

"I think you should gamble."",1,risk,,,,,4,0,4,0,0,2,2,5,,,,,,,,,,,,,,,,,,,,,,,,,,,,,,,1609.1256176650058,None,1611.1476279981434,1612.6683021981735,1612.6516130759846,None,1614.188987800153,None,2,0.791291638975963,1616.177585039055,None,1616.177585039055,None,1616.177585039055,None,None,None,None,None,1617.146798765054,None,1617.146798765054,None,left,0.17406566115096211,1617.146798765054,None,1617.3640369081404,1619.135385811096,None,None,,,,,,,,,,,,,120,001,19,1,2020_Mar_09_1114,Test,3.2.4,59.84449269958372,
Pictures/IA40_20_G95p.bmp,Pictures/IA40_20_G95p.bmp,Pictures/IA40.bmp,"

"Hold back, stay with the safe choice."",0,safe,,,,,4,0,4,0,0,3,3,2,,,,,,,,,,,,,,,,,,,,,,,,,,,,,,,1619.1520843880717,None,1621.1908033920918,1622.7114802950528,1622.6947867712006,None,1624.2321754130535,None,1,1.2448136110324413,1626.2040509991348,None,1626.2040509991348,None,1626.2040509991348,None,1627.5910528241657,None,1627.5910528241657,1628.5936929411255,1629.6966072770301,None,1629.6966072770301,None,left,0.25625198101624846,1629.6966072770301,None,1629.997390249977,1631.7018915100489,None,None,,,,,,,,,,,,,120,001,19,1,2020_Mar_09_1114,Test,3.2.4,59.84449269958372,
Pictures/IA25_L15.bmp,Pictures/IA25_L15.bmp,Pictures/IA25.bmp,"

"There's not much on the line here, gamble!"",1,risk,,,,,4,0,4,0,0,4,4,8,,,,,,,,,,,,,,,,,,,,,,,,,,,,,,,1631.7185900141485,None,1633.7405981190968,1635.261275707977,1635.2445821580477,None,1636.7819605951663,None,1,0.7502989149652421,1638.7705592650454,None,1638.7705592650454,None,1638.7705592650454,None,1639.672940256074,None,1639.672940256074,1640.675577832153,1641.9288947160821,None,1641.9288947160821,None,right,0.3279600408859551,1641.9288947160821,None,None,None,1642.296514022164,1643.9341823121067,,,,,,,,,,,,,120,001,19,1,2020_Mar_09_1114,Test,3.2.4,59.84449269958372,
Pictures/IA50_G40.bmp,Pictures/IA50_G40.bmp,Pictures/IA50.bmp,"

"It would probably be best to play it safe."",0,safe,,,,,4,0,4,0,0,5,5,14,,,,,,,,,,,,,,,,,,,,,,,,,,,,,,,1643.950880103046,None,1645.9728857080918,1647.4935642019846,1647.4768747661728,None,1648.9975479890127,None,2,0.32603137101978064,1651.002833376173,None,1651.002833376173,None,1651.002833376173,None,None,None,None,None,1651.5208792120684,None,1651.5208792120684,None,left,0.19197513489052653,1651.5208792120684,None,1651.7548180941958,1653.526165620191,None,None,,,,,,,,,,,,,120,001,19,1,2020_Mar_09_1114,Test,3.2.4,59.84449269958372,
Pictures/IA110_55_G95p.bmp,Pictures/IA110_55_G95p.bmp,Pictures/IA110.bmp,"

"Take a chance!"",1,risk,,,,,4,0,4,0,0,6,6,9,,,,,,,,,,,,,,,,,,,,,,,,,,,,,,,1653.5428684239741,None,1655.5648744630162,1657.0855530411936,1657.0688578761183,None,1658.6229519571643,None,2,1.2460431070066988,1660.5948213401716,None,1660.5948213401716,None,1660.5948213401716,None,None,None,None,None,1662.0319471231196,None,1662.0319471231196,None,left,0.20091381901875138,1662.0319471231196,None,1662.282611276023,1664.0205554980785,None,None,,,,,,,,,,,,,120,001,19,1,2020_Mar_09_1114,Test,3.2.4,59.84449269958372,
Pictures/IA25_G20.bmp,Pictures/IA25_G20.bmp,Pictures/IA25.bmp,"

"I wouldn't gamble for this one. "",0,safe,,,,,4,0,4,0,0,7,7,15,,,,,,,,,,,,,,,,,,,,,,,,,,,,,,,1664.0372489171568,None,1666.0592534621246,1667.5632241130807,1667.5464869791176,None,1669.0838942371774,None,2,0.36767688603140414,1671.0891893929802,None,1671.0891893929802,None,1671.0891893929802,None,None,None,None,None,1671.6406562069897,None,1671.6406562069897,None,left,0.2161917199846357,1671.6406562069897,None,1671.8913149300497,1673.629234392196,None,None,,,,,,,,,,,,,120,001,19,1,2020_Mar_09_1114,Test,3.2.4,59.84449269958372,
Pictures/IA40_20_L95p.bmp,Pictures/IA40_20_L95p.bmp,Pictures/IA40.bmp,"

"Trust me, gamble!"",1,risk,,,,,4,0,4,0,0,8,8,6,,,,,,,,,,,,,,,,,,,,,,,,,,,,,,,1673.6459384441841,None,1675.6679437931161,1677.1886186799966,1677.1719266481232,None,1678.7260129160713,None,2,0.43097508884966373,1680.6978886560537,None,1680.6978886560537,None,1680.6978886560537,None,None,None,None,None,1681.282775965985,None,1681.282775965985,None,right,0.11808330402709544,1681.282775965985,None,None,None,1681.4498727240134,1683.2880650870502,,,,,,,,,,,,,120,001,19,1,2020_Mar_09_1114,Test,3.2.4,59.84449269958372,
Pictures/IA100_G20.bmp,Pictures/IA100_G20.bmp,Pictures/IA100.bmp,"

"Go ahead and gamble!"",1,risk,,,,,4,0,4,0,0,9,9,3,,,,,,,,,,,,,,,,,,,,,,,,,,,,,,,1683.3047644051258,None,1685.3267699850257,1686.847453363007,1686.8307562211994,None,1688.3514219871722,None,1,0.7801463110372424,1690.356717855204,None,1690.356717855204,None,1690.356717855204,None,1691.2423895981628,None,1691.2423895981628,1692.2450331992004,1693.3479486601427,None,1693.3479486601427,None,right,0.24491002992726862,1693.3479486601427,None,None,None,1693.6320268621203,1695.35323835304,,,,,,,,,,,,,120,001,19,1,2020_Mar_09_1114,Test,3.2.4,59.84449269958372,
Pictures/IA100_L20.bmp,Pictures/IA100_L20.bmp,Pictures/IA100.bmp,"

"Try to win as much money as you can, gamble!"",1,risk,,,,,4,0,4,0,0,10,10,0,,,,,,,,,,,,,,,,,,,,,,,,,,,,,,,1695.3699592500925,None,1697.3919661631808,1698.912645103177,1698.8959248370957,None,1700.433332378976,None,2,0.33096060203388333,1702.4219003461767,None,1702.4219003461767,None,1702.4219003461767,None,None,None,None,None,1702.9232358620502,None,1702.9232358620502,None,left,0.44562000106088817,1702.9232358620502,None,1703.4078436670825,1704.9118155990727,None,None,,,,,,,,,,,,,120,001,19,1,2020_Mar_09_1114,Test,3.2.4,59.84449269958372,
Pictures/IA80_40_G95p.bmp,Pictures/IA80_40_G95p.bmp,Pictures/IA80.bmp,"

"Think of the payoff, gamble!"",1,risk,,,,,4,0,4,0,0,11,11,17,,,,,,,,,,,,,,,,,,,,,,,,,,,,,,,1704.9285141411237,None,1706.9505194590893,1708.4545006451663,1708.4377802039962,None,1709.9751750631258,None,2,1.0443961520213634,1711.9804722170811,None,1711.9804722170811,None,1711.9804722170811,None,None,None,None,None,1713.1836455590092,None,1713.1836455590092,None,left,0.26520922500640154,1713.1836455590092,None,1713.484444166068,1715.1889308770187,None,None,,,,,,,,,,,,,120,001,19,1,2020_Mar_09_1114,Test,3.2.4,59.84449269958372,
Pictures/IA100_L60.bmp,Pictures/IA100_L60.bmp,Pictures/IA100.bmp,"

"You'd have a lot to lose, don't gamble."",0,safe,,,,,4,0,4,0,0,12,12,12,,,,,,,,,,,,,,,,,,,,,,,,,,,,,,,1715.2056556812022,None,1717.227662166115,1718.748339220183,1718.7316221180372,None,1720.2523144760635,None,1,0.9352555761579424,1722.2576081550214,None,1722.2576081550214,None,1722.2576081550214,None,1723.3270844991785,None,1723.3270844991785,1724.3297268541064,1725.4660677700303,None,1725.4660677700303,None,left,0.3747871280647814,1725.4660677700303,None,1725.8838308511768,1727.4546575830318,None,None,,,,,,,,,,,,,120,001,19,1,2020_Mar_09_1114,Test,3.2.4,59.84449269958372,
Pictures/IA25_L20.bmp,Pictures/IA25_L20.bmp,Pictures/IA25.bmp,"

"Don't be tempted to gamble."",0,safe,,,,,4,0,4,0,0,13,13,18,,,,,,,,,,,,,,,,,,,,,,,,,,,,,,,1727.4713557821233,None,1729.49336680118,1731.0140415851492,1730.9973564671818,None,1732.5180130540393,None,1,0.5255602081306279,1734.5233095570002,None,1734.5233095570002,None,1734.5233095570002,None,1735.158296204172,None,1735.158296204172,1736.1609726860188,1737.263888789108,None,1737.263888789108,None,left,0.6169631800148636,1737.263888789108,None,1737.9156076491345,1739.2524665780365,None,None,,,,,,,,,,,,,120,001,19,1,2020_Mar_09_1114,Test,3.2.4,59.84449269958372,
Pictures/IA20_10_G95p.bmp,Pictures/IA20_10_G95p.bmp,Pictures/IA20.bmp,"

"Take a leap, I think you should gamble."",1,risk,,,,,4,0,4,0,0,14,14,19,,,,,,,,,,,,,,,,,,,,,,,,,,,,,,,1739.2691679771524,None,1741.2911730261985,1742.8118516081013,1742.79515847913,None,1744.3492099640425,None,2,1.0077477330341935,1746.3211194360629,None,1746.3211194360629,None,1746.3211194360629,None,None,None,None,None,1747.5242976010777,None,1747.5242976010777,None,left,0.3245573390740901,1747.5242976010777,None,1747.8919402591418,1749.5295860611368,None,None,,,,,,,,,,,,,120,001,19,1,2020_Mar_09_1114,Test,3.2.4,59.84449269958372,
Pictures/IA75_L30.bmp,Pictures/IA75_L30.bmp,Pictures/IA75.bmp,"

"Hold back, stay with the safe choice."",0,safe,,,,,4,0,4,0,0,15,15,11,,,,,,,,,,,,,,,,,,,,,,,,,,,,,,,1749.5463088820688,None,1751.5683170401026,1753.0889935861342,1753.0722751421854,None,1754.6598103900906,None,1,0.29060642095282674,1756.5982644939795,None,1756.5982644939795,None,1756.5982644939795,None,1757.0327334210742,None,1757.0327334210742,1758.0353721361607,1759.138289156137,None,1759.138289156137,None,left,0.286569903139025,1759.138289156137,None,1759.472513642162,1761.143592710141,None,None,,,,,,,,,,,,,120,001,19,1,2020_Mar_09_1114,Test,3.2.4,59.84449269958372,
Pictures/IA50_L30.bmp,Pictures/IA50_L30.bmp,Pictures/IA50.bmp,"

"Take a leap, I think you should gamble."",1,risk,,,,,4,0,4,0,0,16,16,4,,,,,,,,,,,,,,,,,,,,,,,,,,,,,,,1761.1602920941077,None,1763.1822950791102,1764.7029760649893,1764.686279514106,None,1766.1902353051119,None,1,0.5566068680491298,1768.2122613070533,None,1768.2122613070533,None,1768.2122613070533,None,1768.9140947461128,None,1768.9140947461128,1769.9167367201298,1771.0196546921507,None,1771.0196546921507,None,right,0.3412011410109699,1771.0196546921507,None,None,None,1771.4039962901734,1773.008245798992,,,,,,,,,,,,,120,001,19,1,2020_Mar_09_1114,Test,3.2.4,59.84449269958372,
Pictures/IA100_L40.bmp,Pictures/IA100_L40.bmp,Pictures/IA100.bmp,"

"Think of the payoff, gamble!"",1,risk,,,,,4,0,4,0,0,17,17,13,,,,,,,,,,,,,,,,,,,,,,,,,,,,,,,1773.0249670641497,None,1775.063694832148,1776.5676601810846,1776.5342230831739,None,1778.1050293219741,None,2,0.7879700299818069,1780.0768972341903,None,1780.0768972341903,None,1780.0768972341903,None,None,None,None,None,1781.0461348721292,None,1781.0461348721292,None,left,0.10672315396368504,1781.0461348721292,None,1781.1965297420975,1783.034701867029,None,None,,,,,,,,,,,,,120,001,19,1,2020_Mar_09_1114,Test,3.2.4,59.84449269958372,
Pictures/IA25_G5.bmp,Pictures/IA25_G5.bmp,Pictures/IA25.bmp,"

"Let's stay with the certain option."",0,safe,,,,,4,0,4,0,0,18,18,7,,,,,,,,,,,,,,,,,,,,,,,,,,,,,,,1783.0514261589851,None,1785.0901586760301,1786.5940996541176,1786.5774033570196,None,1788.14820057014,None,2,0.9454882929567248,1790.1033787690103,None,1790.1033787690103,None,1790.1033787690103,None,None,None,None,None,1791.2731392141432,None,1791.2731392141432,None,right,0.2477542299311608,1791.2731392141432,None,None,None,1791.5572492950596,1793.261698957067,,,,,,,,,,,,,120,001,19,1,2020_Mar_09_1114,Test,3.2.4,59.84449269958372,
Pictures/IA50_L20.bmp,Pictures/IA50_L20.bmp,Pictures/IA50.bmp,"

"Certainty is boring, take a risk!"",1,risk,,,,,4,0,4,0,0,19,19,10,,,,,,,,,,,,,,,,,,,,,,,,,,,,,,,1793.2784285510425,None,1795.317139069084,1796.821095906198,1796.8044017960783,None,1798.3584901690483,None,2,0.8624959730077535,1800.330364112975,None,1800.330364112975,None,1800.330364112975,None,None,None,None,None,1801.3998661721125,None,1801.3998661721125,None,right,0.18498968495987356,1801.3998661721125,None,None,None,1801.6338035401423,1803.4051555900369,,,,,,,,,,,,,120,001,19,1,2020_Mar_09_1114,Test,3.2.4,59.84449269958372,
,,,,,,,,,,4,0,4,0,,,,,,,,,,,,,,,,,,,,,,,,,,,,,,,,,,,,,,,,,,,,,,,,,,,,,,,,,,,,,,,,,,,,,,,,,1803.5722553611267,None,return,10.868590102065355,1803.5722553611267,None,120,001,19,1,2020_Mar_09_1114,Test,3.2.4,59.84449269958372,
Pictures/IA40_20_G95p.bmp,Pictures/IA40_20_G95p.bmp,Pictures/IA40.bmp,"

"Hold back, stay with the safe choice."",0,safe,,,,,5,0,5,0,0,0,0,19,,,,,,,,,,,,,1814.6348065121565,None,1814.6348065121565,None,1814.6348065121565,None,right,1.1660454960074276,1814.6348065121565,None,1814.6348065121565,None,1814.6348065121565,None,return,3.141864312114194,1814.6348065121565,None,1817.843274705112,None,1819.8652672721073,1821.3692476160359,1821.352528783027,None,1822.839784507174,None,2,1.003059457987547,1824.8618111440446,None,1824.8618111440446,None,1824.8618111440446,None,None,None,None,None,1826.0482349891681,None,1826.0482349891681,None,left,0.22462268616072834,1826.0482349891681,None,1826.3156254719943,1828.0535468962044,None,None,,,,,,,,,,,,,120,001,19,1,2020_Mar_09_1114,Test,3.2.4,59.84449269958372,
Pictures/IA50_G40.bmp,Pictures/IA50_G40.bmp,Pictures/IA50.bmp,"

"It would probably be best to play it safe."",0,safe,,,,,5,0,5,0,0,1,1,17,,,,,,,,,,,,,,,,,,,,,,,,,,,,,,,1828.0702720910776,None,1830.0922797871754,1831.6129573301878,1831.5962412690278,None,1833.1336449971423,None,2,0.5666532891336828,1835.1222124630585,None,1835.1222124630585,None,1835.1222124630585,None,None,None,None,None,1835.8574981051497,None,1835.8574981051497,None,left,0.2633526159916073,1835.8574981051497,None,1836.1582812070847,1837.8627904590685,None,None,,,,,,,,,,,,,120,001,19,1,2020_Mar_09_1114,Test,3.2.4,59.84449269958372,
Pictures/IA80_40_G95p.bmp,Pictures/IA80_40_G95p.bmp,Pictures/IA80.bmp,"

"Think of the payoff, gamble!"",1,risk,,,,,5,0,5,0,0,2,2,10,,,,,,,,,,,,,,,,,,,,,,,,,,,,,,,1837.8794884542003,None,1839.9182072661351,1841.4221870980691,1841.4054728250485,None,1842.942870618077,None,2,0.7094209229107946,1844.931447521085,None,1844.931447521085,None,1844.931447521085,None,None,None,None,None,1845.8171147240791,None,1845.8171147240791,None,left,0.27174269896931946,1845.8171147240791,None,1846.1346164261922,1847.805693230126,None,None,,,,,,,,,,,,,120,001,19,1,2020_Mar_09_1114,Test,3.2.4,59.84449269958372,
Pictures/IA25_G15.bmp,Pictures/IA25_G15.bmp,Pictures/IA25.bmp,"

"I think you should take a gamble."",1,risk,,,,,5,0,5,0,0,3,3,0,,,,,,,,,,,,,,,,,,,,,,,,,,,,,,,1847.82242287416,None,1849.8444245040882,1851.365101216128,1851.3483866800088,None,1852.885785910068,None,2,0.582506014034152,1854.8743581280578,None,1854.8743581280578,None,1854.8743581280578,None,None,None,None,None,1855.6263452081475,None,1855.6263452081475,None,right,0.20650895102880895,1855.6263452081475,None,None,None,1855.8770018210635,1857.6149247779977,,,,,,,,,,,,,120,001,19,1,2020_Mar_09_1114,Test,3.2.4,59.84449269958372,
Pictures/IA110_55_L95p.bmp,Pictures/IA110_55_L95p.bmp,Pictures/IA110.bmp,"

"Trust me, gamble!"",1,risk,,,,,5,0,5,0,0,4,4,7,,,,,,,,,,,,,,,,,,,,,,,,,,,,,,,1857.631646482041,None,1859.68707589712,1861.1910370721016,1861.1743365521543,None,1862.7117302170955,None,1,0.7252577028702945,1864.6836064511444,None,1864.6836064511444,None,1864.6836064511444,None,1865.5191276869737,None,1865.5191276869737,1866.5217685271055,1867.624686500989,None,1867.624686500989,None,right,0.4161691309418529,1867.624686500989,None,None,None,1868.0758737099823,1869.613265833119,,,,,,,,,,,,,120,001,19,1,2020_Mar_09_1114,Test,3.2.4,59.84449269958372,
Pictures/IA100_G20.bmp,Pictures/IA100_G20.bmp,Pictures/IA100.bmp,"

"Go ahead and gamble!"",1,risk,,,,,5,0,5,0,0,5,5,1,,,,,,,,,,,,,,,,,,,,,,,,,,,,,,,1869.62999398401,None,1871.6519964369945,1873.17267673905,1873.155956372153,None,1874.7100717651192,None,1,0.8549221728462726,1876.6819439001847,None,1876.6819439001847,None,1876.6819439001847,None,1877.6344517141115,None,1877.6344517141115,1878.6370896920562,1879.7901380229741,None,1879.7901380229741,None,right,0.47471881308592856,1879.7901380229741,None,None,None,1880.3081694219727,1881.7787153520621,,,,,,,,,,,,,120,001,19,1,2020_Mar_09_1114,Test,3.2.4,59.84449269958372,
Pictures/IA75_L30.bmp,Pictures/IA75_L30.bmp,Pictures/IA75.bmp,"

"Hold back, stay with the safe choice."",0,safe,,,,,5,0,5,0,0,6,6,16,,,,,,,,,,,,,,,,,,,,,,,,,,,,,,,1881.795441155089,None,1883.834157543024,1885.354838503059,1885.3381168600172,None,1886.858802761184,None,1,0.8094688961282372,1888.8473950200714,None,1888.8473950200714,None,1888.8473950200714,None,1889.799909465015,None,1889.799909465015,1890.8025519880466,1891.9054697360843,None,1891.9054697360843,None,left,0.3993846089579165,1891.9054697360843,None,1892.339933197014,1893.9107605481986,None,None,,,,,,,,,,,,,120,001,19,1,2020_Mar_09_1114,Test,3.2.4,59.84449269958372,
Pictures/IA80_40_L95p.bmp,Pictures/IA80_40_L95p.bmp,Pictures/IA80.bmp,"

"Let's stay with the certain option."",0,safe,,,,,5,0,5,0,0,7,7,3,,,,,,,,,,,,,,,,,,,,,,,,,,,,,,,1893.927457822021,None,1895.9494638100732,1897.4701436990872,1897.453447679989,None,1899.0075374171138,None,2,0.35746143106371164,1900.9794110031798,None,1900.9794110031798,None,1900.9794110031798,None,None,None,None,None,1901.5141684960108,None,1901.5141684960108,None,right,0.246685734950006,1901.5141684960108,None,None,None,1901.7982475580648,1903.5027355200145,,,,,,,,,,,,,120,001,19,1,2020_Mar_09_1114,Test,3.2.4,59.84449269958372,
Pictures/IA75_L45.bmp,Pictures/IA75_L45.bmp,Pictures/IA75.bmp,"

"Don't gamble for this one, play it safe."",0,safe,,,,,5,0,5,0,0,8,8,12,,,,,,,,,,,,,,,,,,,,,,,,,,,,,,,1903.519460320007,None,1905.5414670910686,1907.0621465481818,1907.0454309531488,None,1908.5995393241756,None,1,0.7814536679070443,1910.5714160969947,None,1910.5714160969947,None,1910.5714160969947,None,1911.4905053810216,None,1911.4905053810216,1912.4931493941694,1913.5960741650779,None,1913.5960741650779,None,left,0.29277910687960684,1913.5960741650779,None,1913.9302662271075,1915.584633223014,None,None,,,,,,,,,,,,,120,001,19,1,2020_Mar_09_1114,Test,3.2.4,59.84449269958372,
Pictures/IA75_L60.bmp,Pictures/IA75_L60.bmp,Pictures/IA75.bmp,"

"Why not take the gamble?"",1,risk,,,,,5,0,5,0,0,9,9,4,,,,,,,,,,,,,,,,,,,,,,,,,,,,,,,1915.601353554055,None,1917.6233645651955,1919.1440430390649,1919.1273225171026,None,1920.6981479111128,None,1,0.8115633770357817,1922.6533003700897,None,1922.6533003700897,None,1922.6533003700897,None,1923.5723924580961,None,1923.5723924580961,1924.5750360901002,1925.6779512241483,None,1925.6779512241483,None,right,0.34690494206734,1925.6779512241483,None,None,None,1926.0622959809843,1927.6665303220507,,,,,,,,,,,,,120,001,19,1,2020_Mar_09_1114,Test,3.2.4,59.84449269958372,
Pictures/IA110_55_G95p.bmp,Pictures/IA110_55_G95p.bmp,Pictures/IA110.bmp,"

"Take a chance!"",1,risk,,,,,5,0,5,0,0,10,10,13,,,,,,,,,,,,,,,,,,,,,,,,,,,,,,,1927.6832534901332,None,1929.7052640269976,1931.2259413811844,1931.2092214110307,None,1932.7466238790657,None,2,1.0256672219838947,1934.7351973659825,None,1934.7351973659825,None,1934.7351973659825,None,None,None,None,None,1935.9216753900982,None,1935.9216753900982,None,left,0.2871821338776499,1935.9216753900982,None,1936.2558736980427,1937.926952301059,None,None,,,,,,,,,,,,,120,001,19,1,2020_Mar_09_1114,Test,3.2.4,59.84449269958372,
Pictures/IA50_L40.bmp,Pictures/IA50_L40.bmp,Pictures/IA50.bmp,"

"That gamble doesn't sound too good, play it safe."",0,safe,,,,,5,0,5,0,0,11,11,2,,,,,,,,,,,,,,,,,,,,,,,,,,,,,,,1937.9436764721759,None,1939.9656816171482,1941.4863661150448,1941.4696453951765,None,1943.023757180199,None,2,0.9252176620066166,1944.9956399961375,None,1944.9956399961375,None,1944.9956399961375,None,None,None,None,None,1946.11524607311,None,1946.11524607311,None,right,0.3016140351537615,1946.11524607311,None,None,None,1946.4661664001178,1948.103833873989,,,,,,,,,,,,,120,001,19,1,2020_Mar_09_1114,Test,3.2.4,59.84449269958372,
Pictures/IA75_G60.bmp,Pictures/IA75_G60.bmp,Pictures/IA75.bmp,"

"Make it exciting, take a chance!"",1,risk,,,,,5,0,5,0,0,12,12,6,,,,,,,,,,,,,,,,,,,,,,,,,,,,,,,1948.120532093104,None,1950.1425043141935,1951.6632187310606,1951.6465273262002,None,1953.2173252350185,None,1,0.32436317997053266,1955.1725007570349,None,1955.1725007570349,None,1955.1725007570349,None,1955.6403874470852,None,1955.6403874470852,1956.643031907035,1957.7459504529834,None,1957.7459504529834,None,right,0.36690000095404685,1957.7459504529834,None,None,None,1958.1470148991793,1959.7512506700587,,,,,,,,,,,,,120,001,19,1,2020_Mar_09_1114,Test,3.2.4,59.84449269958372,
Pictures/IA25_L20.bmp,Pictures/IA25_L20.bmp,Pictures/IA25.bmp,"

"Don't be tempted to gamble."",0,safe,,,,,5,0,5,0,0,13,13,5,,,,,,,,,,,,,,,,,,,,,,,,,,,,,,,1959.7679488691501,None,1961.8066668591928,1963.3106489791535,1963.2939296159893,None,1964.8313636931125,None,2,0.5969644139986485,1966.8199068470858,None,1966.8199068470858,None,1966.8199068470858,None,None,None,None,None,1967.5886141050141,None,1967.5886141050141,None,left,0.4282428780570626,1967.5886141050141,None,1968.0564995990135,1969.5938931251876,None,None,,,,,,,,,,,,,120,001,19,1,2020_Mar_09_1114,Test,3.2.4,59.84449269958372,
Pictures/IA100_L60.bmp,Pictures/IA100_L60.bmp,Pictures/IA100.bmp,"

"You'd have a lot to lose, don't gamble."",0,safe,,,,,5,0,5,0,0,14,14,18,,,,,,,,,,,,,,,,,,,,,,,,,,,,,,,1969.6106143991929,None,1971.6326274641324,1973.136581639992,1973.1198850560468,None,1974.6906952850986,None,1,1.1862854049541056,1976.6625766020734,None,1976.6625766020734,None,1976.6625766020734,None,1977.982725679176,None,1977.982725679176,1978.9853788740002,1980.1217042692006,None,1980.1217042692006,None,left,0.439155951840803,1980.1217042692006,None,1980.6063383321743,1982.1102835449856,None,None,,,,,,,,,,,,,120,001,19,1,2020_Mar_09_1114,Test,3.2.4,59.84449269958372,
Pictures/IA50_L20.bmp,Pictures/IA50_L20.bmp,Pictures/IA50.bmp,"

"Certainty is boring, take a risk!"",1,risk,,,,,5,0,5,0,0,15,15,15,,,,,,,,,,,,,,,,,,,,,,,,,,,,,,,1982.1269811291713,None,1984.1489878881257,1985.669667785056,1985.6529724141583,None,1987.1569341041613,None,2,0.7019188450649381,1989.1789495709818,None,1989.1789495709818,None,1989.1789495709818,None,None,None,None,None,1990.0479027701076,None,1990.0479027701076,None,right,0.24895228305831552,1990.0479027701076,None,None,None,1990.3319769301452,1992.036490100203,,,,,,,,,,,,,120,001,19,1,2020_Mar_09_1114,Test,3.2.4,59.84449269958372,
Pictures/IA25_L15.bmp,Pictures/IA25_L15.bmp,Pictures/IA25.bmp,"

"There's not much on the line here, gamble!"",1,risk,,,,,5,0,5,0,0,16,16,9,,,,,,,,,,,,,,,,,,,,,,,,,,,,,,,1992.053194936132,None,1994.0751963250805,1995.5958736240864,1995.5791813731194,None,1997.1332701200154,None,1,0.327726376010105,1999.1051461240277,None,1999.1051461240277,None,1999.1051461240277,None,1999.5730661931448,None,1999.5730661931448,2000.5757048130035,2001.7454587721732,None,2001.7454587721732,None,right,1.7353899981826544,2001.7454587721732,None,None,None,2003.5167878111824,None,,,,,,,,,,,,,120,001,19,1,2020_Mar_09_1114,Test,3.2.4,59.84449269958372,
Pictures/IA20_10_G95p.bmp,Pictures/IA20_10_G95p.bmp,Pictures/IA20.bmp,"

"Take a leap, I think you should gamble."",1,risk,,,,,5,0,5,0,0,17,17,14,,,,,,,,,,,,,,,,,,,,,,,,,,,,,,,2003.767449514009,None,2005.8061667410657,2007.3268472261261,2007.3101527080871,None,2008.830832919106,None,2,2.3974539160262793,2010.8194070591126,None,2010.8194070591126,None,2010.8194070591126,None,None,None,None,None,2013.3928776911926,None,2013.3928776911926,None,right,1.7919926410540938,2013.3928776911926,None,None,None,2015.2310495460406,None,,,,,,,,,,,,,120,001,19,1,2020_Mar_09_1114,Test,3.2.4,59.84449269958372,
Pictures/IA25_L10.bmp,Pictures/IA25_L10.bmp,Pictures/IA25.bmp,"

"Dont be afraid to take the risk!"",1,risk,,,,,5,0,5,0,0,18,18,8,,,,,,,,,,,,,,,,,,,,,,,,,,,,,,,2015.4148683901876,None,2017.4368770699948,2018.940858131973,2018.9241369110532,None,2020.4949488770217,None,1,0.9420410939492285,2022.4668257720768,None,2022.4668257720768,None,2022.4668257720768,None,2023.5363117710222,None,2023.5363117710222,2024.5389584950171,2025.6418822130654,None,2025.6418822130654,None,right,0.6469699330627918,2025.6418822130654,None,None,None,2026.327013053,2027.6304663361516,,,,,,,,,,,,,120,001,19,1,2020_Mar_09_1114,Test,3.2.4,59.84449269958372,
Pictures/IA25_G10.bmp,Pictures/IA25_G10.bmp,Pictures/IA25.bmp,"

"What's life without a little risk?"",1,risk,,,,,5,0,5,0,0,19,19,11,,,,,,,,,,,,,,,,,,,,,,,,,,,,,,,2027.6471704200376,None,2029.669176600175,2031.1898535729852,2031.1731593261939,None,2032.7272485659923,None,2,1.5977505729533732,2034.6991225420497,None,2034.6991225420497,None,2034.6991225420497,None,None,None,None,None,2036.4704803731292,None,2036.4704803731292,None,left,0.65037892293185,2036.4704803731292,None,2037.1556190871634,2038.4590471021365,None,None,,,,,,,,,,,,,120,001,19,1,2020_Mar_09_1114,Test,3.2.4,59.84449269958372,
,,,,,,,,,,5,0,5,0,,,,,,,,,,,,,,,,,,,,,,,,,,,,,,,,,,,,,,,,,,,,,,,,,,,,,,,,,,,,,,,,,,,,,,,,,2038.6428823161405,None,return,5.341971924994141,2038.6428823161405,None,120,001,19,1,2020_Mar_09_1114,Test,3.2.4,59.84449269958372,
Pictures/IA100_G60.bmp,Pictures/IA100_G60.bmp,Pictures/IA100.bmp,"

"Be cautious, don't gamble for this one."",0,safe,,,,,6,0,6,0,0,0,0,4,,,,,,,,,,,,,2044.140718878014,None,2044.140718878014,None,2044.140718878014,None,right,1.612136809155345,2044.140718878014,None,2044.140718878014,None,2044.140718878014,None,return,2.6999189630150795,2044.140718878014,None,2046.8812951480504,None,2048.9033036590554,2050.423982699169,2050.407263480127,None,2051.944652630016,None,2,1.7403364379424602,2053.916532114148,None,2053.916532114148,None,2053.916532114148,None,None,None,None,None,2055.8382712451275,None,2055.8382712451275,None,left,0.3065829500555992,2055.8382712451275,None,2056.189192925114,2057.826863853028,None,None,,,,,,,,,,,,,120,001,19,1,2020_Mar_09_1114,Test,3.2.4,59.84449269958372,
Pictures/IA50_G30.bmp,Pictures/IA50_G30.bmp,Pictures/IA50.bmp,"

"I think you should gamble."",1,risk,,,,,6,0,6,0,0,1,1,9,,,,,,,,,,,,,,,,,,,,,,,,,,,,,,,2057.843561387155,None,2059.865567479981,2061.386249877047,2061.3695546200033,None,2062.923652328085,None,2,0.8413401790894568,2064.8955221811775,None,2064.8955221811775,None,2064.8955221811775,None,None,None,None,None,2065.9148768931627,None,2065.9148768931627,None,left,0.2539786440320313,2065.9148768931627,None,2066.2156799479853,2067.92016718816,None,None,,,,,,,,,,,,,120,001,19,1,2020_Mar_09_1114,Test,3.2.4,59.84449269958372,
Pictures/IA100_L80.bmp,Pictures/IA100_L80.bmp,Pictures/IA100.bmp,"

"Go all in!"",1,risk,,,,,6,0,6,0,0,2,2,13,,,,,,,,,,,,,,,,,,,,,,,,,,,,,,,2067.936898064101,None,2069.958899283083,2071.4795795250684,2071.462861034088,None,2073.0169789860956,None,1,0.9000033540651202,2074.988858490018,None,2074.988858490018,None,2074.988858490018,None,2075.9580613339785,None,2075.9580613339785,2076.9607053659856,2078.0636228390504,None,2078.0636228390504,None,right,0.34522884292528033,2078.0636228390504,None,None,None,2078.447965922067,2080.052206923021,,,,,,,,,,,,,120,001,19,1,2020_Mar_09_1114,Test,3.2.4,59.84449269958372,
Pictures/IA100_G20.bmp,Pictures/IA100_G20.bmp,Pictures/IA100.bmp,"

"Go ahead and gamble!"",1,risk,,,,,6,0,6,0,0,3,3,16,,,,,,,,,,,,,,,,,,,,,,,,,,,,,,,2080.068926686188,None,2082.0909369040746,2083.611615962116,2083.5948990629986,None,2085.115577948978,None,1,0.5679567980114371,2087.120900192065,None,2087.120900192065,None,2087.120900192065,None,2087.789314661175,None,2087.789314661175,2088.7919578910805,2089.911585665075,None,2089.911585665075,None,right,0.2252828232012689,2089.911585665075,None,None,None,2090.178941399092,2091.9001534390263,,,,,,,,,,,,,120,001,19,1,2020_Mar_09_1114,Test,3.2.4,59.84449269958372,
Pictures/IA25_L15.bmp,Pictures/IA25_L15.bmp,Pictures/IA25.bmp,"

"There's not much on the line here, gamble!"",1,risk,,,,,6,0,6,0,0,4,4,10,,,,,,,,,,,,,,,,,,,,,,,,,,,,,,,2091.9168767370284,None,2093.938889602199,2095.4595653440338,2095.44284493709,None,2096.963537459029,None,2,0.6880296969320625,2098.9688368809875,None,2098.9688368809875,None,2098.9688368809875,None,None,None,None,None,2099.85449855309,None,2099.85449855309,None,left,0.7703667818568647,2099.85449855309,None,2100.6733216021676,2101.843091670191,None,None,,,,,,,,,,,,,120,001,19,1,2020_Mar_09_1114,Test,3.2.4,59.84449269958372,
Pictures/IA80_40_G95p.bmp,Pictures/IA80_40_G95p.bmp,Pictures/IA80.bmp,"

"Think of the payoff, gamble!"",1,risk,,,,,6,0,6,0,0,5,5,15,,,,,,,,,,,,,,,,,,,,,,,,,,,,,,,2101.8597849581856,None,2103.881794017041,2105.4024726459756,2105.3857805421576,None,2106.9565813620575,None,2,0.9370902911759913,2108.911760200979,None,2108.911760200979,None,2108.911760200979,None,None,None,None,None,2110.0146731489804,None,2110.0146731489804,None,left,0.2741833128966391,2110.0146731489804,None,2110.3321700391825,2112.003259184072,None,None,,,,,,,,,,,,,120,001,19,1,2020_Mar_09_1114,Test,3.2.4,59.84449269958372,
Pictures/IA25_L5.bmp,Pictures/IA25_L5.bmp,Pictures/IA25.bmp,"

"It would be smarter to choose the safe option."",0,safe,,,,,6,0,6,0,0,6,6,1,,,,,,,,,,,,,,,,,,,,,,,,,,,,,,,2112.019951318158,None,2114.041959159076,2115.5626554121263,2115.5459444101434,None,2117.100031662034,None,2,0.4489419050514698,2119.0719189720694,None,2119.0719189720694,None,2119.0719189720694,None,None,None,None,None,2119.7069268431515,None,2119.7069268431515,None,right,0.8859290261752903,2119.7069268431515,None,None,None,2120.642723832978,2121.7122204022016,,,,,,,,,,,,,120,001,19,1,2020_Mar_09_1114,Test,3.2.4,59.84449269958372,
Pictures/IA50_L20.bmp,Pictures/IA50_L20.bmp,Pictures/IA50.bmp,"

"Certainty is boring, take a risk!"",1,risk,,,,,6,0,6,0,0,7,7,5,,,,,,,,,,,,,,,,,,,,,,,,,,,,,,,2121.7289172341116,None,2123.750926553039,2125.271605559159,2125.2548746122047,None,2126.7755792699754,None,1,1.6199807149823755,2128.780877394136,None,2128.780877394136,None,2128.780877394136,None,2130.518838142976,None,2130.518838142976,2131.521467954153,2132.6410695181694,None,2132.6410695181694,None,right,0.2557882710825652,2132.6410695181694,None,None,None,2132.9418722351547,2134.6463751511183,,,,,,,,,,,,,120,001,19,1,2020_Mar_09_1114,Test,3.2.4,59.84449269958372,
Pictures/IA40_20_G95p.bmp,Pictures/IA40_20_G95p.bmp,Pictures/IA40.bmp,"

"Hold back, stay with the safe choice."",0,safe,,,,,6,0,6,0,0,8,8,6,,,,,,,,,,,,,,,,,,,,,,,,,,,,,,,2134.6630718051456,None,2136.701815583976,2138.2225388481747,2138.2058070641942,None,2139.7097364831716,None,1,0.36579086794517934,2141.7150659891777,None,2141.7150659891777,None,2141.7150659891777,None,2142.2164278570563,None,2142.2164278570563,2143.2193814660423,2144.8569886730984,None,2144.8569886730984,None,left,0.26388892298564315,2144.8569886730984,None,2145.179200683022,2146.845279177185,None,None,,,,,,,,,,,,,120,001,19,1,2020_Mar_09_1114,Test,3.2.4,59.84449269958372,
Pictures/IA25_G15.bmp,Pictures/IA25_G15.bmp,Pictures/IA25.bmp,"

"I think you should take a gamble."",1,risk,,,,,6,0,6,0,0,9,9,11,,,,,,,,,,,,,,,,,,,,,,,,,,,,,,,2146.871352219023,None,2148.9350698431954,2150.443473092979,2150.421376141021,None,2152.109229985159,None,2,0.28692951588891447,2153.9139380881097,None,2153.9139380881097,None,2153.9139380881097,None,None,None,None,None,2154.431976599153,None,2154.431976599153,None,left,0.27290653716772795,2154.431976599153,None,2154.7494965360966,2156.4372578919865,None,None,,,,,,,,,,,,,120,001,19,1,2020_Mar_09_1114,Test,3.2.4,59.84449269958372,
Pictures/IA25_G20.bmp,Pictures/IA25_G20.bmp,Pictures/IA25.bmp,"

"I wouldn't gamble for this one. "",0,safe,,,,,6,0,6,0,0,10,10,3,,,,,,,,,,,,,,,,,,,,,,,,,,,,,,,2156.4540015340317,None,2158.4759730931837,2159.9799627631437,2159.9632193741854,None,2161.534081715159,None,2,0.7349433191120625,2163.5059407029767,None,2163.5059407029767,None,2163.5059407029767,None,None,None,None,None,2164.508773831185,None,2164.508773831185,None,right,0.22009932296350598,2164.508773831185,None,None,None,2164.7610095941927,2166.497192118084,,,,,,,,,,,,,120,001,19,1,2020_Mar_09_1114,Test,3.2.4,59.84449269958372,
Pictures/IA100_L40.bmp,Pictures/IA100_L40.bmp,Pictures/IA100.bmp,"

"Think of the payoff, gamble!"",1,risk,,,,,6,0,6,0,0,11,11,8,,,,,,,,,,,,,,,,,,,,,,,,,,,,,,,2166.513882480096,None,2168.5525858781766,2170.0565840830095,2170.0231071000453,None,2171.6106700021774,None,2,0.9230372898746282,2173.565839802148,None,2173.565839802148,None,2173.565839802148,None,None,None,None,None,2174.6854623199906,None,2174.6854623199906,None,right,0.2914023268967867,2174.6854623199906,None,None,None,2175.0196903531905,2176.6740034841932,,,,,,,,,,,,,120,001,19,1,2020_Mar_09_1114,Test,3.2.4,59.84449269958372,
Pictures/IA110_55_L95p.bmp,Pictures/IA110_55_L95p.bmp,Pictures/IA110.bmp,"

"Trust me, gamble!"",1,risk,,,,,6,0,6,0,0,12,12,2,,,,,,,,,,,,,,,,,,,,,,,,,,,,,,,2176.690768450033,None,2178.729497366119,2180.233409421984,2180.216714680195,None,2181.887785701081,None,2,0.8981421370990574,2183.74271026114,None,2183.74271026114,None,2183.74271026114,None,None,None,None,None,2184.8623319671024,None,2184.8623319671024,None,right,0.2184833982028067,2184.8623319671024,None,None,None,2185.129685236141,2186.8676060880534,,,,,,,,,,,,,120,001,19,1,2020_Mar_09_1114,Test,3.2.4,59.84449269958372,
Pictures/IA25_G5.bmp,Pictures/IA25_G5.bmp,Pictures/IA25.bmp,"

"Let's stay with the certain option."",0,safe,,,,,6,0,6,0,0,13,13,17,,,,,,,,,,,,,,,,,,,,,,,,,,,,,,,2186.884305777028,None,2188.906316183042,2190.426997811999,2190.4103016341105,None,2191.964392499998,None,2,1.1366041789297014,2193.9362677040044,None,2193.9362677040044,None,2193.9362677040044,None,None,None,None,None,2195.256420049118,None,2195.256420049118,None,right,0.2644345888402313,2195.256420049118,None,None,None,2195.5572228590026,2197.2450014359783,,,,,,,,,,,,,120,001,19,1,2020_Mar_09_1114,Test,3.2.4,59.84449269958372,
Pictures/IA50_L30.bmp,Pictures/IA50_L30.bmp,Pictures/IA50.bmp,"

"Take a leap, I think you should gamble."",1,risk,,,,,6,0,6,0,0,14,14,7,,,,,,,,,,,,,,,,,,,,,,,,,,,,,,,2197.261727106059,None,2199.3338674050756,2200.837825183058,2200.8211314221844,None,2202.3418029560708,None,1,0.7511909289751202,2204.3136755900923,None,2204.3136755900923,None,2204.3136755900923,None,2205.199346756097,None,2205.199346756097,2206.201991856098,2207.3049107701518,None,2207.3049107701518,None,right,0.23994601401500404,2207.3049107701518,None,None,None,2207.5889894010033,2209.2935026241466,,,,,,,,,,,,,120,001,19,1,2020_Mar_09_1114,Test,3.2.4,59.84449269958372,
Pictures/IA25_L10.bmp,Pictures/IA25_L10.bmp,Pictures/IA25.bmp,"

"Dont be afraid to take the risk!"",1,risk,,,,,6,0,6,0,0,15,15,14,,,,,,,,,,,,,,,,,,,,,,,,,,,,,,,2209.310202429071,None,2211.3322148921434,2212.852892162977,2212.8362007851247,None,2214.3735813351814,None,2,0.3266764909494668,2216.362183705205,None,2216.362183705205,None,2216.362183705205,None,None,None,None,None,2216.8634855260607,None,2216.8634855260607,None,right,0.9853708250448108,2216.8634855260607,None,None,None,2217.882845495129,None,,,,,,,,,,,,,120,001,19,1,2020_Mar_09_1114,Test,3.2.4,59.84449269958372,
Pictures/IA80_40_L95p.bmp,Pictures/IA80_40_L95p.bmp,Pictures/IA80.bmp,"

"Let's stay with the certain option."",0,safe,,,,,6,0,6,0,0,16,16,12,,,,,,,,,,,,,,,,,,,,,,,,,,,,,,,2218.868781228084,None,2220.9075022130273,2222.4114851420745,2222.3947663011495,None,2223.9488804601133,None,2,0.33612706884741783,2225.9207580341026,None,2225.9207580341026,None,2225.9207580341026,None,None,None,None,None,2226.455505390186,None,2226.455505390186,None,right,0.20135519094765186,2226.455505390186,None,None,None,2226.7061676841695,2228.444085506024,,,,,,,,,,,,,120,001,19,1,2020_Mar_09_1114,Test,3.2.4,59.84449269958372,
Pictures/IA50_G40.bmp,Pictures/IA50_G40.bmp,Pictures/IA50.bmp,"

"It would probably be best to play it safe."",0,safe,,,,,6,0,6,0,0,17,17,19,,,,,,,,,,,,,,,,,,,,,,,,,,,,,,,2228.460784728173,None,2230.482795561198,2231.9867861680686,2231.970056812046,None,2233.5408769100904,None,2,0.31211561779491603,2235.512748016976,None,2235.512748016976,None,2235.512748016976,None,None,None,None,None,2236.030782844173,None,2236.030782844173,None,right,0.35407746001146734,2236.030782844173,None,None,None,2236.4318502750248,2238.036096099997,,,,,,,,,,,,,120,001,19,1,2020_Mar_09_1114,Test,3.2.4,59.84449269958372,
Pictures/IA20_10_G95p.bmp,Pictures/IA20_10_G95p.bmp,Pictures/IA20.bmp,"

"Take a leap, I think you should gamble."",1,risk,,,,,6,0,6,0,0,18,18,18,,,,,,,,,,,,,,,,,,,,,,,,,,,,,,,2238.052789712092,None,2240.108224810101,2241.6122024031356,2241.595486507984,None,2243.0994523570407,None,2,0.3521049290429801,2245.104755009059,None,2245.104755009059,None,2245.104755009059,None,None,None,None,None,2245.6729327721987,None,2245.6729327721987,None,left,0.23191721900366247,2245.6729327721987,None,2245.9402877250686,2247.678210988175,None,None,,,,,,,,,,,,,120,001,19,1,2020_Mar_09_1114,Test,3.2.4,59.84449269958372,
Pictures/IA50_L10.bmp,Pictures/IA50_L10.bmp,Pictures/IA50.bmp,"

"Play it safe, don’t gamble!"",0,safe,,,,,6,0,6,0,0,19,19,0,,,,,,,,,,,,,,,,,,,,,,,,,,,,,,,2247.694935742067,None,2249.716945537133,2251.237624941161,2251.220910084201,None,2252.791736024199,None,2,0.301978575065732,2254.7468920832034,None,2254.7468920832034,None,2254.7468920832034,None,None,None,None,None,2255.264923267998,None,2255.264923267998,None,right,0.22391435806639493,2255.264923267998,None,None,None,2255.5323034829926,2257.2702263041865,,,,,,,,,,,,,120,001,19,1,2020_Mar_09_1114,Test,3.2.4,59.84449269958372,
,,,,,,,,,,6,0,6,0,,,,,,,,,,,,,,,,,,,,,,,,,,,,,,,,,,,,,,,,,,,,,,,,,,,,,,,,,,,,,,,,,,,,,,,,,2257.4373286201153,None,return,2.74752685893327,2257.4373286201153,None,120,001,19,1,2020_Mar_09_1114,Test,3.2.4,59.84449269958372,
Pictures/IA50_L20.bmp,Pictures/IA50_L20.bmp,Pictures/IA50.bmp,"

"Certainty is boring, take a risk!"",1,risk,,,,,7,0,7,0,0,0,0,17,,,,,,,,,,,,,2260.395144151058,None,2260.395144151058,None,2260.395144151058,None,left,0.7977103698067367,2260.395144151058,None,2260.395144151058,None,2260.395144151058,None,return,1.3974901700858027,2260.395144151058,None,2261.8489892431535,None,2263.854273464065,2265.3749575950205,2265.358257844113,None,2266.878947869176,None,1,0.3093425719998777,2268.8675264061894,None,2268.8675264061894,None,2268.8675264061894,None,2269.285287866136,None,2269.285287866136,2270.287934006192,2271.407563179033,None,2271.407563179033,None,right,0.43329919781535864,2271.407563179033,None,None,None,2271.8754736401606,2273.4128686031327,,,,,,,,,,,,,120,001,19,1,2020_Mar_09_1114,Test,3.2.4,59.84449269958372,
Pictures/IA40_20_L95p.bmp,Pictures/IA40_20_L95p.bmp,Pictures/IA40.bmp,"

"Trust me, gamble!"",1,risk,,,,,7,0,7,0,0,1,1,6,,,,,,,,,,,,,,,,,,,,,,,,,,,,,,,2273.4295712271705,None,2275.4683115719818,2276.9889827021398,2276.9722765921615,None,2278.526380949188,None,1,0.6473309858702123,2280.481533706188,None,2280.481533706188,None,2280.481533706188,None,2281.216806411976,None,2281.216806411976,2282.2194499981124,2283.33908216306,None,2283.33908216306,None,right,0.3577702019829303,2283.33908216306,None,None,None,2283.7401490500197,2285.327675187029,,,,,,,,,,,,,120,001,19,1,2020_Mar_09_1114,Test,3.2.4,59.84449269958372,
Pictures/IA50_G20.bmp,Pictures/IA50_G20.bmp,Pictures/IA50.bmp,"

"Let's venture and take a risk!"",1,risk,,,,,7,0,7,0,0,2,2,11,,,,,,,,,,,,,,,,,,,,,,,,,,,,,,,2285.344373648986,None,2287.3663865712006,2288.8870696770027,2288.8703716960736,None,2290.424426460173,None,1,0.3645250138361007,2292.396339396015,None,2292.396339396015,None,2292.396339396015,None,2292.864252872998,None,2292.864252872998,2293.8669018780347,2294.969813124975,None,2294.969813124975,None,right,0.3910432388074696,2294.969813124975,None,None,None,2295.4042858870234,2296.975110751111,,,,,,,,,,,,,120,001,19,1,2020_Mar_09_1114,Test,3.2.4,59.84449269958372,
Pictures/IA25_L5.bmp,Pictures/IA25_L5.bmp,Pictures/IA25.bmp,"

"It would be smarter to choose the safe option."",0,safe,,,,,7,0,7,0,0,3,3,15,,,,,,,,,,,,,,,,,,,,,,,,,,,,,,,2296.99182821298,None,2299.0138173070736,2300.53450064105,2300.517804424977,None,2302.055186802987,None,1,0.2450725759845227,2304.043786930153,None,2304.043786930153,None,2304.043786930153,None,2304.4448466191534,None,2304.4448466191534,2305.4474906951655,2306.5671189771965,None,2306.5671189771965,None,left,0.7777361378539354,2306.5671189771965,None,2307.385946121067,2308.5556878361385,None,None,,,,,,,,,,,,,120,001,19,1,2020_Mar_09_1114,Test,3.2.4,59.84449269958372,
Pictures/IA75_G15.bmp,Pictures/IA75_G15.bmp,Pictures/IA75.bmp,"

"Take a chance!"",1,risk,,,,,7,0,7,0,0,4,4,16,,,,,,,,,,,,,,,,,,,,,,,,,,,,,,,2308.5724120549858,None,2310.611134150997,2312.1150907371193,2312.098398537142,None,2313.619069138076,None,1,0.32049884903244674,2315.6243677712046,None,2315.6243677712046,None,2315.6243677712046,None,2316.0421470890287,None,2316.0421470890287,2317.044797534123,2318.1811381920706,None,2318.1811381920706,None,right,0.29173204116523266,2318.1811381920706,None,None,None,2318.5153601442,2320.1864092461765,,,,,,,,,,,,,120,001,19,1,2020_Mar_09_1114,Test,3.2.4,59.84449269958372,
Pictures/IA50_L30.bmp,Pictures/IA50_L30.bmp,Pictures/IA50.bmp,"

"Take a leap, I think you should gamble."",1,risk,,,,,7,0,7,0,0,5,5,19,,,,,,,,,,,,,,,,,,,,,,,,,,,,,,,2320.2031366489828,None,2322.225147198187,2323.7291050490458,2323.7124145152047,None,2325.266518288059,None,1,0.7217811099253595,2327.2550944800023,None,2327.2550944800023,None,2327.2550944800023,None,2328.1240625041537,None,2328.1240625041537,2329.1267094661016,2330.229628479108,None,2330.229628479108,None,right,0.26722269994206727,2330.229628479108,None,None,None,2330.5304054750595,2332.234922777163,,,,,,,,,,,,,120,001,19,1,2020_Mar_09_1114,Test,3.2.4,59.84449269958372,
Pictures/IA100_L60.bmp,Pictures/IA100_L60.bmp,Pictures/IA100.bmp,"

"You'd have a lot to lose, don't gamble."",0,safe,,,,,7,0,7,0,0,6,6,1,,,,,,,,,,,,,,,,,,,,,,,,,,,,,,,2332.2516217620578,None,2334.273631088203,2335.7776176310144,2335.7608972601593,None,2337.331707173027,None,1,0.36927559901960194,2339.303585157031,None,2339.303585157031,None,2339.303585157031,None,2339.821617930196,None,2339.821617930196,2340.824262800161,2341.9271842681337,None,2341.9271842681337,None,left,0.4096585139632225,2341.9271842681337,None,2342.378374136053,2343.915768651059,None,None,,,,,,,,,,,,,120,001,19,1,2020_Mar_09_1114,Test,3.2.4,59.84449269958372,
Pictures/IA75_L45.bmp,Pictures/IA75_L45.bmp,Pictures/IA75.bmp,"

