Choice,Choice2,Amount,AdviceVar1,GambleAdviceNum,GambleAdviceType,trials_2.thisRepN,trials_2.thisTrialN,trials_2.thisN,trials_2.thisIndex,trials.thisRepN,trials.thisTrialN,trials.thisN,trials.thisIndex,instructions.started,instructions.stopped,space.keys,space.rt,space.started,space.stopped,chooseInst.started,chooseInst.stopped,Ad1.started,Ad1.stopped,Ad2.started,Ad2.stopped,key_resp_3.keys,key_resp_3.rt,key_resp_3.started,key_resp_3.stopped,Ad1pic.started,Ad1pic.stopped,Ad2pic.started,Ad2pic.stopped,enter.keys,enter.rt,enter.started,enter.stopped,iSi.started,iSi.stopped,receiveMoneyPicture.started,receiveMoneyPicture.stopped,ISI2.started,ISI2.stopped,ChoicePic.started,ChoicePic.stopped,response.keys,response.rt,response.started,response.stopped,yesNo.started,yesNo.stopped,ask.started,ask.stopped,getAdv.started,getAdv.stopped,textForCode.started,textForCode.stopped,blank.started,blank.stopped,ChoicePic2.started,ChoicePic2.stopped,resp.keys,resp.started,resp.stopped,checkL1.started,checkL1.stopped,checkR1.started,checkR1.stopped,resp.rt,endText.started,endText.stopped,key_resp_2.keys,key_resp_2.rt,key_resp_2.started,key_resp_2.stopped,participant,session,date,expName,psychopyVersion,frameRate,
,,,,,,,,,,,,,,17.01568171660699,None,space,4.93967697299729,17.01568171660699,None,,,,,,,,,,,,,,,,,,,,,,,,,,,,,,,,,,,,,,,,,,,,,,,,,,,,,,,,,888,001,2019_Oct_30_1229,Test,3.1.2,59.9822959982262,
Pictures/IA20_10_L95p.bmp,Pictures/IA20_10_L95p.bmp,Pictures/IA20.bmp,"

"Don't be tempted to gamble."",0,safe,0,0,0,0,0,0,0,6,,,,,,,24.58441320534837,None,24.58441320534837,None,24.58441320534837,None,left,5.642807624733564,24.58441320534837,None,24.58441320534837,None,24.58441320534837,None,return,8.066728392892287,24.58441320534837,None,32.70379871320415,None,34.8743655670919,36.188305316531455,36.20496331104698,None,37.80503179667801,None,n,2.377971637245082,40.08899244325448,None,40.08899244325448,None,40.08899244325448,None,None,None,None,None,42.9778068611904,None,42.9778068611904,None,None,42.9778068611904,None,None,None,None,None,,,,,,,,888,001,2019_Oct_30_1229,Test,3.1.2,59.9822959982262,
Pictures/IA100_L40.bmp,Pictures/IA100_L40.bmp,Pictures/IA100.bmp,"

"Think of the payoff, gamble!"",1,risk,0,0,0,0,0,1,1,7,,,,,,,,,,,,,,,,,,,,,,,,,44.774181228156976,None,46.85794892066713,48.27518720805358,48.291858265223595,None,49.82561263071602,None,n,2.801311428298618,51.80941898246283,None,51.80941898246283,None,51.80941898246283,None,None,None,None,None,54.79331055247883,None,54.79331055247883,None,None,54.79331055247883,None,None,None,None,None,,,,,,,,888,001,2019_Oct_30_1229,Test,3.1.2,59.9822959982262,
Pictures/IA50_G20.bmp,Pictures/IA50_G20.bmp,Pictures/IA50.bmp,"

"Let's venture and take a risk!"",1,risk,0,0,0,0,0,2,2,15,,,,,,,,,,,,,,,,,,,,,,,,,56.69433077688893,None,58.77807576526163,60.19537221256178,60.212023675750174,None,61.745794836083974,None,None,,63.729557334633796,None,63.729557334633796,None,63.729557334633796,None,None,None,None,None,66.81349204251092,None,66.81349204251092,None,None,66.81349204251092,None,None,None,None,None,,,,,,,,888,001,2019_Oct_30_1229,Test,3.1.2,59.9822959982262,
Pictures/IA25_L5.bmp,Pictures/IA25_L5.bmp,Pictures/IA25.bmp,"

"It would be smarter to choose the safe option."",0,safe,0,0,0,0,0,3,3,10,,,,,,,,,,,,,,,,,,,,,,,,,68.74786619985309,None,70.83163917962804,72.23223035804426,72.26556220887005,None,73.79931688537806,None,None,,75.78316055899461,None,75.78316055899461,None,75.78316055899461,None,None,None,None,None,78.93376145664774,None,78.93376145664774,None,None,78.93376145664774,None,None,None,None,None,,,,,,,,888,001,2019_Oct_30_1229,Test,3.1.2,59.9822959982262,
Pictures/IA100_G80.bmp,Pictures/IA100_G80.bmp,Pictures/IA100.bmp,"

"Why not gamble?"",1,risk,0,0,0,0,0,4,4,2,,,,,,,,,,,,,,,,,,,,,,,,,80.80122061174905,None,82.83520715037264,84.30244927880153,84.31912406815843,None,85.85287283537048,None,None,,87.83668385235103,None,87.83668385235103,None,87.83668385235103,None,None,None,None,None,90.92215311110442,None,90.92215311110442,None,None,90.92215311110442,None,None,None,None,None,,,,,,,,888,001,2019_Oct_30_1229,Test,3.1.2,59.9822959982262,
Pictures/IA25_G5.bmp,Pictures/IA25_G5.bmp,Pictures/IA25.bmp,"

"Let's stay with the certain option."",0,safe,0,0,0,0,0,5,5,17,,,,,,,,,,,,,,,,,,,,,,,,,92.85494948640451,None,94.88873821911864,96.35597474926703,96.37264922760835,None,97.9064160337241,None,n,1.0532648394087119,99.89266883403059,None,99.89266883403059,None,99.89266883403059,None,None,None,None,None,101.09050864421158,None,101.09050864421158,None,right,101.09050864421158,None,None,None,101.52412501209074,103.00794582606204,0.4073231106658568,,,,,,,888,001,2019_Oct_30_1229,Test,3.1.2,59.9822959982262,
Pictures/IA110_55_L95p.bmp,Pictures/IA110_55_L95p.bmp,Pictures/IA110.bmp,"

"Trust me, gamble!"",1,risk,0,0,0,0,0,6,6,13,,,,,,,,,,,,,,,,,,,,,,,,,103.02460755276456,None,105.09553310092178,106.52562628429996,106.54230636092177,None,108.07607596617777,None,n,1.1144360059005294,110.063234443856,None,110.063234443856,None,110.063234443856,None,None,None,None,None,111.30990494430807,None,111.30990494430807,None,right,111.30990494430807,None,None,None,111.89387028721978,113.22759840299727,0.5637860299887052,,,,,,,888,001,2019_Oct_30_1229,Test,3.1.2,59.9822959982262,
Pictures/IA25_G20.bmp,Pictures/IA25_G20.bmp,Pictures/IA25.bmp,"

"I wouldn't gamble for this one. "",0,safe,0,0,0,0,0,7,7,5,,,,,,,,,,,,,,,,,,,,,,,,,113.2442507992323,None,115.27808151904992,116.74532333646323,116.76195302856092,None,118.298985187261,None,n,1.034094772045819,120.2795890115708,None,120.2795890115708,None,120.2795890115708,None,None,None,None,None,121.44620876672059,None,121.44620876672059,None,right,121.44620876672059,None,None,None,122.31359265605136,123.36392679564074,0.8433218578951482,,,,,,,888,001,2019_Oct_30_1229,Test,3.1.2,59.9822959982262,
Pictures/IA75_L60.bmp,Pictures/IA75_L60.bmp,Pictures/IA75.bmp,"

"Why not take the gamble?"",1,risk,0,0,0,0,0,8,8,0,,,,,,,,,,,,,,,,,,,,,,,,,123.38059785281064,None,125.43119728869056,126.88163431223416,126.89829541690551,None,128.4487360793314,None,y,0.6654819046469811,130.41592113640115,None,130.41592113640115,None,130.41592113640115,None,131.1659681775078,None,131.1659681775078,132.14982771291898,133.26635778672608,None,133.26635778672608,None,left,133.26635778672608,None,134.16707290485135,None,None,None,0.8708529571206327,,,,,,,888,001,2019_Oct_30_1229,Test,3.1.2,59.9822959982262,
Pictures/IA80_40_G95p.bmp,Pictures/IA80_40_G95p.bmp,Pictures/IA80.bmp,"

"Think of the payoff, gamble!"",1,risk,0,0,0,0,0,9,9,16,,,,,,,,,,,,,,,,,,,,,,,,,135.15069824553007,None,137.25119577715486,138.6517648734649,138.6684110493884,None,140.20219060714294,None,n,0.9584383658867637,142.2026705041843,None,142.2026705041843,None,142.2026705041843,None,None,None,None,None,143.27116173338936,None,143.27116173338936,None,left,143.27116173338936,None,143.76988516993742,145.20368254888467,None,None,0.4819522323609817,,,,,,,888,001,2019_Oct_30_1229,Test,3.1.2,59.9822959982262,
Pictures/IA50_L40.bmp,Pictures/IA50_L40.bmp,Pictures/IA50.bmp,"

"That gamble doesn't sound too good, play it safe."",0,safe,0,0,0,0,0,10,10,14,,,,,,,,,,,,,,,,,,,,,,,,,145.22035951535065,None,147.24179502020513,148.7213773138393,148.73798088062824,None,150.27180024837708,None,n,1.2972907743759379,152.25563054832367,None,152.25563054832367,None,152.25563054832367,None,None,None,None,None,153.6724943729506,None,153.6724943729506,None,right,153.6724943729506,None,None,None,154.28967493584526,155.60673323851506,0.5924109710124412,,,,,,,888,001,2019_Oct_30_1229,Test,3.1.2,59.9822959982262,
Pictures/IA75_G30.bmp,Pictures/IA75_G30.bmp,Pictures/IA75.bmp,"

"Be bold, gamble!"",1,risk,0,0,0,0,0,11,11,18,,,,,,,,,,,,,,,,,,,,,,,,,155.62339745334225,None,157.64155454295792,159.12443018057877,159.1410990606397,None,160.67483849738426,None,y,0.1012452130814836,162.65948770135537,None,162.65948770135537,None,162.65948770135537,None,162.85862911174263,None,162.85862911174263,163.85916654666653,164.91301174114926,None,164.91301174114926,None,right,164.91301174114926,None,None,None,165.4595650198288,166.82671393688815,0.5195583703156217,,,,,,,888,001,2019_Oct_30_1229,Test,3.1.2,59.9822959982262,
Pictures/IA25_G10.bmp,Pictures/IA25_G10.bmp,Pictures/IA25.bmp,"

"What's life without a little risk?"",1,risk,0,0,0,0,0,12,12,12,,,,,,,,,,,,,,,,,,,,,,,,,166.8433678882011,None,168.86181297824476,170.3444065247337,170.36106949549855,None,171.8970364258339,None,n,0.6899177768108302,173.87864856265708,None,173.87864856265708,None,173.87864856265708,None,None,None,None,None,174.69542741782743,None,174.69542741782743,None,right,174.69542741782743,None,None,None,175.06245690490357,176.62958386426294,0.3369601896946506,,,,,,,888,001,2019_Oct_30_1229,Test,3.1.2,59.9822959982262,
Pictures/IA100_G40.bmp,Pictures/IA100_G40.bmp,Pictures/IA100.bmp,"

"Try your luck and gamble!"",1,risk,0,0,0,0,0,13,13,19,,,,,,,,,,,,,,,,,,,,,,,,,176.64622724104618,None,178.66726806712836,180.14729106984078,180.16381221750066,None,181.71437106584733,None,y,0.39731742841115647,183.683053973955,None,183.683053973955,None,183.683053973955,None,184.16461774785535,None,184.16461774785535,185.14874506768172,186.21526072591666,None,186.21526072591666,None,right,186.21526072591666,None,None,None,186.49914828383157,188.13296693624466,0.25698782031884093,,,,,,,888,001,2019_Oct_30_1229,Test,3.1.2,59.9822959982262,
Pictures/IA50_L20.bmp,Pictures/IA50_L20.bmp,Pictures/IA50.bmp,"

"Certainty is boring, take a risk!"",1,risk,0,0,0,0,0,14,14,9,,,,,,,,,,,,,,,,,,,,,,,,,188.14963799341456,None,190.17020607581378,191.65067849604065,191.66733182532244,None,193.2010927221421,None,y,0.6152438688720849,195.18486766131525,None,195.18486766131525,None,195.18486766131525,None,195.90166775884973,None,195.90166775884973,196.88554471113343,197.95306215055462,None,197.95306215055462,None,right,197.95306215055462,None,None,None,198.4860119187391,199.86973143493572,0.502898509706597,,,,,,,888,001,2019_Oct_30_1229,Test,3.1.2,59.9822959982262,
Pictures/IA25_G15.bmp,Pictures/IA25_G15.bmp,Pictures/IA25.bmp,"

"I think you should take a gamble."",1,risk,0,0,0,0,0,15,15,11,,,,,,,,,,,,,,,,,,,,,,,,,199.88642208608724,None,201.90446814314055,203.38743521934225,203.40412089424444,None,204.93787774786153,None,n,0.9254952845371918,206.93835546779394,None,206.93835546779394,None,206.93835546779394,None,None,None,None,None,207.98833629368335,None,207.98833629368335,None,right,207.98833629368335,None,None,None,208.28885323268048,209.92269521126207,0.28356285764846234,,,,,,,888,001,2019_Oct_30_1229,Test,3.1.2,59.9822959982262,
Pictures/IA75_G15.bmp,Pictures/IA75_G15.bmp,Pictures/IA75.bmp,"

"Take a chance!"",1,risk,0,0,0,0,0,16,16,1,,,,,,,,,,,,,,,,,,,,,,,,,209.93937186671246,None,211.9599794480904,213.44040552699573,213.47371902790223,None,214.99083126067376,None,y,0.416337275248452,216.99130493740347,None,216.99130493740347,None,216.99130493740347,None,217.47470152612243,None,217.47470152612243,218.47522372128276,219.54415939175306,None,219.54415939175306,None,right,219.54415939175306,None,None,None,219.80891233808143,221.4594238187551,0.24745239362255234,,,,,,,888,001,2019_Oct_30_1229,Test,3.1.2,59.9822959982262,
Pictures/IA50_G30.bmp,Pictures/IA50_G30.bmp,Pictures/IA50.bmp,"

"I think you should gamble."",1,risk,0,0,0,0,0,17,17,3,,,,,,,,,,,,,,,,,,,,,,,,,221.47608772256672,None,223.49489638982448,224.97710147785278,224.99378901884847,None,226.52755302582398,None,n,0.7921769006861723,228.51134009460475,None,228.51134009460475,None,228.51134009460475,None,None,None,None,None,229.42852006656983,None,229.42852006656983,None,right,229.42852006656983,None,None,None,229.99518796693167,231.36230360532375,0.5389287317126445,,,,,,,888,001,2019_Oct_30_1229,Test,3.1.2,59.9822959982262,
Pictures/IA80_40_L95p.bmp,Pictures/IA80_40_L95p.bmp,Pictures/IA80.bmp,"

"Let's stay with the certain option."",0,safe,0,0,0,0,0,18,18,4,,,,,,,,,,,,,,,,,,,,,,,,,231.3790045199895,None,233.4127702375506,234.88003320402345,234.8967160797855,None,236.4314479672488,None,n,0.6731462616082808,238.41422610148504,None,238.41422610148504,None,238.41422610148504,None,None,None,None,None,239.21413671560708,None,239.21413671560708,None,right,239.21413671560708,None,None,None,239.64807000836322,241.14854539567875,0.41717110802096613,,,,,,,888,001,2019_Oct_30_1229,Test,3.1.2,59.9822959982262,
Pictures/IA25_L10.bmp,Pictures/IA25_L10.bmp,Pictures/IA25.bmp,"

"Dont be afraid to take the risk!"",1,risk,0,0,0,0,0,19,19,8,,,,,,,,,,,,,,,,,,,,,,,,,241.1652248502694,None,243.2035786696806,244.66625322328775,244.6829146389747,None,246.23317366830133,None,n,0.7980078207978067,248.2171252643244,None,248.2171252643244,None,248.2171252643244,None,None,None,None,None,249.13380885542222,None,249.13380885542222,None,right,249.13380885542222,None,None,None,249.48433523374229,251.0681030817601,0.32933191054064537,,,,,,,888,001,2019_Oct_30_1229,Test,3.1.2,59.9822959982262,
,,,,,,0,0,0,0,,,,,,,,,,,,,,,,,,,,,,,,,,,,,,,,,,,,,,,,,,,,,,,,,,,,,,,,,,,,,251.68449086593898,None,return,5.578395675888146,251.68449086593898,None,888,001,2019_Oct_30_1229,Test,3.1.2,59.9822959982262,
Pictures/IA100_G20.bmp,Pictures/IA100_G20.bmp,Pictures/IA100.bmp,"

"Go ahead and gamble!"",1,risk,1,0,1,0,0,0,0,8,,,,,,,257.3862524270879,None,257.3862524270879,None,257.3862524270879,None,left,3.020696220818536,257.3862524270879,None,257.3862524270879,None,257.3862524270879,None,return,5.908480244134807,257.3862524270879,None,263.35631655539055,None,265.3721904796265,266.83943323008657,266.85607411874514,None,268.4065278438254,None,y,1.2803886326294105,270.3903457031487,None,270.3903457031487,None,270.3903457031487,None,271.75706386362845,None,271.75706386362845,272.7578448237522,273.84120321975774,None,273.84120321975774,None,left,273.84120321975774,None,274.25828662138485,275.74203185857004,None,None,0.39744276769033604,,,,,,,888,001,2019_Oct_30_1229,Test,3.1.2,59.9822959982262,
Pictures/IA50_G40.bmp,Pictures/IA50_G40.bmp,Pictures/IA50.bmp,"

"It would probably be best to play it safe."",0,safe,1,0,1,0,0,1,1,9,,,,,,,,,,,,,,,,,,,,,,,,,275.7586929632414,None,277.78071722059065,279.2597515047712,279.27641292045814,None,280.81116066971606,None,n,0.5877895904951629,282.8106114162001,None,282.8106114162001,None,282.8106114162001,None,None,None,None,None,283.52718447236055,None,283.52718447236055,None,right,283.52718447236055,None,None,None,284.0944992851307,285.4615676491545,0.5353150416776771,,,,,,,888,001,2019_Oct_30_1229,Test,3.1.2,59.9822959982262,
Pictures/IA75_L15.bmp,Pictures/IA75_L15.bmp,Pictures/IA75.bmp,"

"Trust me, gamble!"",1,risk,1,0,1,0,0,2,2,7,,,,,,,,,,,,,,,,,,,,,,,,,285.4782610994463,None,287.4988282487989,288.9792686344208,288.9959166764378,None,290.53052073649735,None,n,1.0523688035200394,292.52992949587804,None,292.52992949587804,None,292.52992949587804,None,None,None,None,None,293.71376271937095,None,293.71376271937095,None,right,293.71376271937095,None,None,None,294.03073393767806,295.64789583963795,0.28455002110240457,,,,,,,888,001,2019_Oct_30_1229,Test,3.1.2,59.9822959982262,
Pictures/IA50_L10.bmp,Pictures/IA50_L10.bmp,Pictures/IA50.bmp,"

"Play it safe, don’t gamble!"",0,safe,1,0,1,0,0,3,3,6,,,,,,,,,,,,,,,,,,,,,,,,,295.6645569443093,None,297.68276566251154,299.16559278170155,299.18226788207414,None,300.7208784448475,None,y,0.6982959145304903,302.69985285852874,None,302.69985285852874,None,302.69985285852874,None,303.4830535385332,None,303.4830535385332,304.48383667576593,305.55227130013543,None,305.55227130013543,None,left,305.55227130013543,None,305.967593109512,307.46794098043927,None,None,0.3977516061622737,,,,,,,888,001,2019_Oct_30_1229,Test,3.1.2,59.9822959982262,
Pictures/IA20_10_G95p.bmp,Pictures/IA20_10_G95p.bmp,Pictures/IA20.bmp,"

"Take a leap, I think you should gamble."",1,risk,1,0,1,0,0,4,4,10,,,,,,,,,,,,,,,,,,,,,,,,,307.4847168498601,None,309.5032823029336,310.9857442898318,311.00239513098893,None,312.53603566477875,None,y,0.9818656145216664,314.52005070798043,None,314.52005070798043,None,314.52005070798043,None,315.60349494428635,None,315.60349494428635,316.5874014430502,317.67055612385013,None,317.67055612385013,None,right,317.67055612385013,None,None,None,318.13783215297747,319.57161087098973,0.44730882883027334,,,,,,,888,001,2019_Oct_30_1229,Test,3.1.2,59.9822959982262,
Pictures/IA25_L15.bmp,Pictures/IA25_L15.bmp,Pictures/IA25.bmp,"

"There's not much on the line here, gamble!"",1,risk,1,0,1,0,0,5,5,18,,,,,,,,,,,,,,,,,,,,,,,,,319.5882847273,None,321.61028907965203,323.0892938173523,323.10588867570493,None,324.656257182516,None,y,1.493470694401367,326.6401764329188,None,326.6401764329188,None,326.6401764329188,None,328.2238037018941,None,328.2238037018941,329.2244372406325,330.27532747608063,None,330.27532747608063,None,right,330.27532747608063,None,None,None,330.6747946441873,332.19197467835545,0.3701707444438398,,,,,,,888,001,2019_Oct_30_1229,Test,3.1.2,59.9822959982262,
Pictures/IA25_L10.bmp,Pictures/IA25_L10.bmp,Pictures/IA25.bmp,"

"Dont be afraid to take the risk!"",1,risk,1,0,1,0,0,6,6,1,,,,,,,,,,,,,,,,,,,,,,,,,332.2086525778683,None,334.2307038935729,335.7096769076842,335.7263364572776,None,337.2267567948353,None,n,0.9615547420078201,339.2438884660804,None,339.2438884660804,None,339.2438884660804,None,None,None,None,None,340.31246895675747,None,340.31246895675747,None,right,340.31246895675747,None,None,None,340.64441992950526,342.26158463060517,0.3008830043359012,,,,,,,888,001,2019_Oct_30_1229,Test,3.1.2,59.9822959982262,
Pictures/IA100_G40.bmp,Pictures/IA100_G40.bmp,Pictures/IA100.bmp,"

"Try your luck and gamble!"",1,risk,1,0,1,0,0,7,7,19,,,,,,,,,,,,,,,,,,,,,,,,,342.2782911435514,None,344.29764844229396,345.77931143016474,345.79597533397634,None,347.2962566475693,None,y,0.42774003949284634,349.3135578223063,None,349.3135578223063,None,349.3135578223063,None,349.8302343222489,None,349.8302343222489,350.814118427891,351.88183771642423,None,351.88183771642423,None,right,351.88183771642423,None,None,None,352.19780622049836,353.79831510419183,0.29142533153481054,,,,,,,888,001,2019_Oct_30_1229,Test,3.1.2,59.9822959982262,
Pictures/IA75_G30.bmp,Pictures/IA75_G30.bmp,Pictures/IA75.bmp,"

"Be bold, gamble!"",1,risk,1,0,1,0,0,8,8,5,,,,,,,,,,,,,,,,,,,,,,,,,353.8149774529255,None,355.8364994201114,357.31603941562673,357.33269927623576,None,358.8330910003598,None,n,1.0663271827929748,360.8666436722482,None,360.8666436722482,None,360.8666436722482,None,None,None,None,None,362.0335943479762,None,362.0335943479762,None,left,362.0335943479762,None,362.400849010333,363.9680114254685,None,None,0.33940881536341294,,,,,,,888,001,2019_Oct_30_1229,Test,3.1.2,59.9822959982262,
Pictures/IA50_G30.bmp,Pictures/IA50_G30.bmp,Pictures/IA50.bmp,"

"I think you should gamble."",1,risk,1,0,1,0,0,9,9,17,,,,,,,,,,,,,,,,,,,,,,,,,363.9846445387376,None,366.00700531494533,367.485680998161,367.5023501892375,None,369.00276741663936,None,n,0.8962887443772161,371.0365810305999,None,371.0365810305999,None,371.0365810305999,None,None,None,None,None,372.0531783770772,None,372.0531783770772,None,right,372.0531783770772,None,None,None,373.2540580535464,None,1.183605560087699,,,,,,,888,001,2019_Oct_30_1229,Test,3.1.2,59.9822959982262,
Pictures/IA110_55_L95p.bmp,Pictures/IA110_55_L95p.bmp,Pictures/IA110.bmp,"

"Trust me, gamble!"",1,risk,1,0,1,0,0,10,10,16,,,,,,,,,,,,,,,,,,,,,,,,,374.00426184650576,None,376.02627615135646,377.5052812000723,377.5219656309122,None,379.0223946769062,None,n,0.596741240945903,381.0558997634106,None,381.0558997634106,None,381.0558997634106,None,None,None,None,None,381.7727626860923,None,381.7727626860923,None,right,381.7727626860923,None,None,None,382.1733308493557,383.7070821046922,0.3758722820737148,,,,,,,888,001,2019_Oct_30_1229,Test,3.1.2,59.9822959982262,
Pictures/IA110_55_G95p.bmp,Pictures/IA110_55_G95p.bmp,Pictures/IA110.bmp,"

"Take a chance!"",1,risk,1,0,1,0,0,11,11,14,,,,,,,,,,,,,,,,,,,,,,,,,383.7237982591215,None,385.7455901878317,387.2248135694855,387.24148493767086,None,388.7772696128758,None,y,0.7410985008116313,390.775420003216,None,390.775420003216,None,390.775420003216,None,391.6089122136751,None,391.6089122136751,392.593071879122,393.6764968324618,None,393.6764968324618,None,left,393.6764968324618,None,393.9934229535098,395.57726078003327,None,None,0.29596429292314497,,,,,,,888,001,2019_Oct_30_1229,Test,3.1.2,59.9822959982262,
Pictures/IA75_L60.bmp,Pictures/IA75_L60.bmp,Pictures/IA75.bmp,"

"Why not take the gamble?"",1,risk,1,0,1,0,0,12,12,0,,,,,,,,,,,,,,,,,,,,,,,,,395.5939508091536,None,397.6161703842878,399.09496611951784,399.11163126739154,None,400.60122764070104,None,y,0.8071084477119257,402.62920535830096,None,402.62920535830096,None,402.62920535830096,None,403.52940636767073,None,403.52940636767073,404.5132413328512,405.57990658958045,None,405.57990658958045,None,right,405.57990658958045,None,None,None,406.36369260090817,407.4974109507965,0.7603612508175956,,,,,,,888,001,2019_Oct_30_1229,Test,3.1.2,59.9822959982262,
Pictures/IA20_10_L95p.bmp,Pictures/IA20_10_L95p.bmp,Pictures/IA20.bmp,"

"Don't be tempted to gamble."",0,safe,1,0,1,0,0,13,13,4,,,,,,,,,,,,,,,,,,,,,,,,,407.5141059561662,None,409.5479416522329,411.0150895429409,411.03180352026095,None,412.5322210586784,None,y,0.38207766494474527,414.56609252153714,None,414.56609252153714,None,414.56609252153714,None,415.0493836759741,None,415.0493836759741,416.03328893067567,417.1043870924801,None,417.1043870924801,None,right,417.1043870924801,None,None,None,417.4502762284882,419.017462280808,0.3235998933837436,,,,,,,888,001,2019_Oct_30_1229,Test,3.1.2,59.9822959982262,
Pictures/IA100_G60.bmp,Pictures/IA100_G60.bmp,Pictures/IA100.bmp,"

"Be cautious, don't gamble for this one."",0,safe,1,0,1,0,0,14,14,13,,,,,,,,,,,,,,,,,,,,,,,,,419.03416101836467,None,421.06792860201915,422.53517819482215,422.5518809755812,None,424.088517833478,None,y,0.7578407805497136,426.08603281898615,None,426.08603281898615,None,426.08603281898615,None,426.93598521805154,None,426.93598521805154,427.93672854529007,429.0068159064566,None,429.0068159064566,None,left,429.0068159064566,None,429.320536078896,430.9209808933798,None,None,0.2849316372203248,,,,,,,888,001,2019_Oct_30_1229,Test,3.1.2,59.9822959982262,
Pictures/IA25_L20.bmp,Pictures/IA25_L20.bmp,Pictures/IA25.bmp,"

"Don't be tempted to gamble."",0,safe,1,0,1,0,0,15,15,12,,,,,,,,,,,,,,,,,,,,,,,,,430.93765506070565,None,432.9717476556424,434.4386977404407,434.4553812382338,None,436.005715533331,None,y,0.7667398693672567,437.97292111742934,None,437.97292111742934,None,437.97292111742934,None,438.8394758392211,None,438.8394758392211,439.82362741826284,440.8922722891649,None,440.8922722891649,None,left,440.8922722891649,None,441.29070657452723,442.8078256496416,None,None,0.36721423033122846,,,,,,,888,001,2019_Oct_30_1229,Test,3.1.2,59.9822959982262,
Pictures/IA50_L30.bmp,Pictures/IA50_L30.bmp,Pictures/IA50.bmp,"

"Take a leap, I think you should gamble."",1,risk,1,0,1,0,0,16,16,11,,,,,,,,,,,,,,,,,,,,,,,,,442.82450106102976,None,444.85832307241105,446.32551046209767,446.35885444253097,None,447.8759542346794,None,n,0.7509511634004866,449.8764192029729,None,449.8764192029729,None,449.8764192029729,None,None,None,None,None,450.74300284921367,None,450.74300284921367,None,left,450.74300284921367,None,451.6270879642258,452.67738820311695,None,None,0.8603642676687286,,,,,,,888,001,2019_Oct_30_1229,Test,3.1.2,59.9822959982262,
Pictures/IA100_L40.bmp,Pictures/IA100_L40.bmp,Pictures/IA100.bmp,"

"Think of the payoff, gamble!"",1,risk,1,0,1,0,0,17,17,3,,,,,,,,,,,,,,,,,,,,,,,,,452.694069523801,None,454.72784799300086,456.1950826570559,456.21176180063105,None,457.7121752958459,None,y,0.5531402776684899,459.7459861106662,None,459.7459861106662,None,459.7459861106662,None,460.39606185851096,None,460.39606185851096,461.37996649118134,462.4501200986666,None,462.4501200986666,None,right,462.4501200986666,None,None,None,462.73034575913164,464.36413237693966,0.25707863686830024,,,,,,,888,001,2019_Oct_30_1229,Test,3.1.2,59.9822959982262,
Pictures/IA75_L45.bmp,Pictures/IA75_L45.bmp,Pictures/IA75.bmp,"

"Don't gamble for this one, play it safe."",0,safe,1,0,1,0,0,18,18,2,,,,,,,,,,,,,,,,,,,,,,,,,464.3808451101976,None,466.4002263571398,467.8818492240006,467.89854080819885,None,469.4322783788499,None,y,0.46716717367394267,471.41592860077515,None,471.41592860077515,None,471.41592860077515,None,471.9668242789959,None,471.9668242789959,472.96668525503117,474.0335473846234,None,474.0335473846234,None,left,474.0335473846234,None,474.3503885984177,475.95090681257864,None,None,0.289388179479829,,,,,,,888,001,2019_Oct_30_1229,Test,3.1.2,59.9822959982262,
Pictures/IA100_G80.bmp,Pictures/IA100_G80.bmp,Pictures/IA100.bmp,"

"Why not gamble?"",1,risk,1,0,1,0,0,19,19,15,,,,,,,,,,,,,,,,,,,,,,,,,475.96756325201625,None,477.9893470943215,479.46860313261107,479.4852685915006,None,480.9857041688218,None,y,0.9358648550216913,483.0028684967032,None,483.0028684967032,None,483.0028684967032,None,484.0360961573093,None,484.0360961573093,485.0202321855719,486.08899866356603,None,486.08899866356603,None,right,486.08899866356603,None,None,None,486.37063229156604,488.00444783382306,0.2577743787230702,,,,,,,888,001,2019_Oct_30_1229,Test,3.1.2,59.9822959982262,
,,,,,,1,0,1,0,,,,,,,,,,,,,,,,,,,,,,,,,,,,,,,,,,,,,,,,,,,,,,,,,,,,,,,,,,,,,488.1373379492194,None,return,9.569150115713228,488.1373379492194,None,888,001,2019_Oct_30_1229,Test,3.1.2,59.9822959982262,
Pictures/IA25_L20.bmp,Pictures/IA25_L20.bmp,Pictures/IA25.bmp,"

"Don't be tempted to gamble."",0,safe,2,0,2,0,0,0,0,10,,,,,,,497.80680987275434,None,497.80680987275434,None,497.80680987275434,None,right,1.3076161806477558,497.80680987275434,None,497.80680987275434,None,497.80680987275434,None,return,2.715673599100228,497.80680987275434,None,500.5746404737639,None,502.577294369716,504.05914956521576,504.0758308859,None,505.5761199748823,None,y,0.8009123953081598,507.59339346923264,None,507.59339346923264,None,507.59339346923264,None,508.4946556637648,None,508.4946556637648,509.4940056412007,510.5775176789033,None,510.5775176789033,None,left,510.5775176789033,None,510.92779400069605,512.4783018424874,None,None,0.3207139798082608,,,,,,,888,001,2019_Oct_30_1229,Test,3.1.2,59.9822959982262,
Pictures/IA80_40_G95p.bmp,Pictures/IA80_40_G95p.bmp,Pictures/IA80.bmp,"

"Think of the payoff, gamble!"",1,risk,2,0,2,0,0,1,1,6,,,,,,,,,,,,,,,,,,,,,,,,,512.4949604590341,None,514.5152971458411,515.9960059379094,516.0125522778316,None,517.5129380926597,None,y,0.5840228807944641,519.5302548181756,None,519.5302548181756,None,519.5302548181756,None,520.1969829622554,None,520.1969829622554,521.197534081865,522.2675135206249,None,522.2675135206249,None,left,522.2675135206249,None,523.0480802096744,524.1817503521473,None,None,0.7585340342795917,,,,,,,888,001,2019_Oct_30_1229,Test,3.1.2,59.9822959982262,
Pictures/IA20_10_G95p.bmp,Pictures/IA20_10_G95p.bmp,Pictures/IA20.bmp,"

"Take a leap, I think you should gamble."",1,risk,2,0,2,0,0,2,2,0,,,,,,,,,,,,,,,,,,,,,,,,,524.1983840874476,None,526.2172219901701,527.6994519594449,527.7160275348314,None,529.2164351207504,None,y,1.6242424826757542,531.2336893321345,None,531.2336893321345,None,531.2336893321345,None,532.951887755721,None,532.951887755721,533.9512548390138,535.018902904979,None,535.018902904979,None,right,535.018902904979,None,None,None,536.8354603170554,None,1.7988223706042845,,,,,,,888,001,2019_Oct_30_1229,Test,3.1.2,59.9822959982262,
Pictures/IA25_G5.bmp,Pictures/IA25_G5.bmp,Pictures/IA25.bmp,"

"Let's stay with the certain option."",0,safe,2,0,2,0,0,3,3,17,,,,,,,,,,,,,,,,,,,,,,,,,536.9521598943542,None,538.9744363853396,540.4531826690921,540.4698285340002,None,541.9702799731159,None,y,0.7422035391707595,543.9874312383428,None,543.9874312383428,None,543.9874312383428,None,544.8373052614817,None,544.8373052614817,545.8214263609965,546.9046220958531,None,546.9046220958531,None,left,546.9046220958531,None,547.3718975029493,548.805654449871,None,None,0.44907508631445126,,,,,,,888,001,2019_Oct_30_1229,Test,3.1.2,59.9822959982262,
Pictures/IA75_G30.bmp,Pictures/IA75_G30.bmp,Pictures/IA75.bmp,"

"Be bold, gamble!"",1,risk,2,0,2,0,0,4,4,5,,,,,,,,,,,,,,,,,,,,,,,,,548.8223311053215,None,550.8423894331835,552.3233576122462,552.3400177838708,None,553.8402851017628,None,y,0.8479407502877621,555.8575175420564,None,555.8575175420564,None,555.8575175420564,None,556.7908112312704,None,556.7908112312704,557.7749503696888,558.8414675830016,None,558.8414675830016,None,right,558.8414675830016,None,None,None,559.1420299302735,560.75916601794,0.2719302528898879,,,,,,,888,001,2019_Oct_30_1229,Test,3.1.2,59.9822959982262,
Pictures/IA100_L60.bmp,Pictures/IA100_L60.bmp,Pictures/IA100.bmp,"

"You'd have a lot to lose, don't gamble."",0,safe,2,0,2,0,0,5,5,9,,,,,,,,,,,,,,,,,,,,,,,,,560.7757723838691,None,562.7975447185978,564.276865759144,564.2934487989045,None,565.8439351806209,None,y,0.6461230508266453,567.8111227258152,None,567.8111227258152,None,567.8111227258152,None,568.5610011964769,None,568.5610011964769,569.5450731555298,570.628253028592,None,570.628253028592,None,left,570.628253028592,None,571.1121715014557,572.5292511708959,None,None,0.4528358867194129,,,,,,,888,001,2019_Oct_30_1229,Test,3.1.2,59.9822959982262,
Pictures/IA50_L30.bmp,Pictures/IA50_L30.bmp,Pictures/IA50.bmp,"

"Take a leap, I think you should gamble."",1,risk,2,0,2,0,0,6,6,2,,,,,,,,,,,,,,,,,,,,,,,,,572.5459542626708,None,574.5680198850922,576.0469490460065,576.063653692859,None,577.5639835248827,None,y,2.3474059589962053,579.5975934236377,None,579.5975934236377,None,579.5975934236377,None,582.0338300977863,None,582.0338300977863,583.032370501665,584.099738964623,None,584.099738964623,None,None,584.099738964623,None,None,None,None,None,,,,,,,,888,001,2019_Oct_30_1229,Test,3.1.2,59.9822959982262,
Pictures/IA75_G60.bmp,Pictures/IA75_G60.bmp,Pictures/IA75.bmp,"

"Make it exciting, take a chance!"",1,risk,2,0,2,0,0,7,7,14,,,,,,,,,,,,,,,,,,,,,,,,,586.0332149089674,None,588.0555041515914,589.5342883792449,589.5509423305579,None,591.0846724368351,None,n,0.38830544093775643,593.06850989014,None,593.06850989014,None,593.06850989014,None,None,None,None,None,593.5849941824537,None,593.5849941824537,None,right,593.5849941824537,None,None,None,593.9188619442269,595.5193714499516,0.3117595302171594,,,,,,,888,001,2019_Oct_30_1229,Test,3.1.2,59.9822959982262,
Pictures/IA25_G15.bmp,Pictures/IA25_G15.bmp,Pictures/IA25.bmp,"

"I think you should take a gamble."",1,risk,2,0,2,0,0,8,8,19,,,,,,,,,,,,,,,,,,,,,,,,,595.5360565028226,None,597.5549578527235,599.0370929622462,599.0537413152787,None,600.55406990324,None,y,0.7412959957055136,602.5713188273593,None,602.5713188273593,None,602.5713188273593,None,603.4212211529162,None,603.4212211529162,604.4053288787608,605.5058149028092,None,605.5058149028092,None,right,605.5058149028092,None,None,None,605.7890707880794,607.3895389287317,0.26274845090892995,,,,,,,888,001,2019_Oct_30_1229,Test,3.1.2,59.9822959982262,
Pictures/IA100_G80.bmp,Pictures/IA100_G80.bmp,Pictures/IA100.bmp,"

"Why not gamble?"",1,risk,2,0,2,0,0,9,9,1,,,,,,,,,,,,,,,,,,,,,,,,,607.4061941241072,None,609.4285978204651,610.9072327606397,610.9239044398408,None,612.4241733128105,None,n,0.580164110481519,614.4441439342787,None,614.4441439342787,None,614.4441439342787,None,None,None,None,None,615.1301771264835,None,615.1301771264835,None,right,615.1301771264835,None,None,None,615.5085894728069,617.0590341784354,0.35821841566780677,,,,,,,888,001,2019_Oct_30_1229,Test,3.1.2,59.9822959982262,
Pictures/IA75_L60.bmp,Pictures/IA75_L60.bmp,Pictures/IA75.bmp,"

"Why not take the gamble?"",1,risk,2,0,2,0,0,10,10,8,,,,,,,,,,,,,,,,,,,,,,,,,617.0757210973999,None,619.0947393891591,620.576744494169,620.593396890404,None,622.0936483465013,None,y,1.225295332620135,624.1109638279548,None,624.1109638279548,None,624.1109638279548,None,625.4279204285298,None,625.4279204285298,626.4117777868317,627.4793568073379,None,627.4793568073379,None,None,627.4793568073379,None,None,None,None,None,,,,,,,,888,001,2019_Oct_30_1229,Test,3.1.2,59.9822959982262,
Pictures/IA50_L10.bmp,Pictures/IA50_L10.bmp,Pictures/IA50.bmp,"

"Play it safe, don’t gamble!"",0,safe,2,0,2,0,0,11,11,11,,,,,,,,,,,,,,,,,,,,,,,,,629.4126539177233,None,631.4349391171451,632.913685089882,632.9303856935322,None,634.4307939014822,None,None,,636.4479317930392,None,636.4479317930392,None,636.4479317930392,None,None,None,None,None,639.5028157795622,None,639.5028157795622,None,right,639.5028157795622,None,None,None,640.282542726543,641.4495419207016,0.7610936925107126,,,,,,,888,001,2019_Oct_30_1229,Test,3.1.2,59.9822959982262,
Pictures/IA50_L20.bmp,Pictures/IA50_L20.bmp,Pictures/IA50.bmp,"

"Certainty is boring, take a risk!"",1,risk,2,0,2,0,0,12,12,7,,,,,,,,,,,,,,,,,,,,,,,,,641.4662229303702,None,643.4847774978983,644.967237618703,644.9838442956478,None,646.4842257562578,None,y,0.4103026399313876,648.5014519762398,None,648.5014519762398,None,648.5014519762398,None,649.0181869471115,None,649.0181869471115,650.0020666985355,651.0852223123821,None,651.0852223123821,None,right,651.0852223123821,None,None,None,651.5858696913139,652.986277059522,0.48258234992795224,,,,,,,888,001,2019_Oct_30_1229,Test,3.1.2,59.9822959982262,
Pictures/IA110_55_G95p.bmp,Pictures/IA110_55_G95p.bmp,Pictures/IA110.bmp,"

"Take a chance!"",1,risk,2,0,2,0,0,13,13,15,,,,,,,,,,,,,,,,,,,,,,,,,653.0029403413024,None,655.0250498169206,656.5039823990063,656.5206363503193,None,658.0209385019563,None,n,0.6056378416390089,660.0418965978939,None,660.0418965978939,None,660.0418965978939,None,None,None,None,None,660.7714340275305,None,660.7714340275305,None,left,660.7714340275305,None,661.2386833093177,662.7057979213586,None,None,0.43599066082401805,,,,,,,888,001,2019_Oct_30_1229,Test,3.1.2,59.9822959982262,
Pictures/IA25_G20.bmp,Pictures/IA25_G20.bmp,Pictures/IA25.bmp,"

"I wouldn't gamble for this one. "",0,safe,2,0,2,0,0,14,14,4,,,,,,,,,,,,,,,,,,,,,,,,,662.7224528057183,None,664.7443675855831,666.2235060599832,666.2401640544987,None,667.7405980767418,None,n,1.7500373996235794,669.7611863751539,None,669.7611863751539,None,669.7611863751539,None,None,None,None,None,671.6412618772964,None,671.6412618772964,None,right,671.6412618772964,None,None,None,671.9418245355838,673.5756621599472,0.2699665005118277,,,,,,,888,001,2019_Oct_30_1229,Test,3.1.2,59.9822959982262,
Pictures/IA50_G20.bmp,Pictures/IA50_G20.bmp,Pictures/IA50.bmp,"

"Let's venture and take a risk!"",1,risk,2,0,2,0,0,15,15,12,,,,,,,,,,,,,,,,,,,,,,,,,673.5923279298523,None,675.6124574802824,677.0933500825591,677.1098827377956,None,678.6099979690683,None,y,0.6675081711568964,680.6275852781397,None,680.6275852781397,None,680.6275852781397,None,681.3787367355743,None,681.3787367355743,682.3782580825952,683.4616419818784,None,683.4616419818784,None,right,683.4616419818784,None,None,None,683.7619831970723,685.3624920807657,0.2814467076357232,,,,,,,888,001,2019_Oct_30_1229,Test,3.1.2,59.9822959982262,
Pictures/IA80_40_L95p.bmp,Pictures/IA80_40_L95p.bmp,Pictures/IA80.bmp,"

"Let's stay with the certain option."",0,safe,2,0,2,0,0,16,16,3,,,,,,,,,,,,,,,,,,,,,,,,,685.3791261270816,None,687.3995648269992,688.880123398542,688.8968230691454,None,690.3971040717228,None,y,0.5688910397343534,692.4140705936946,None,692.4140705936946,None,692.4140705936946,None,693.0850851545109,None,693.0850851545109,694.0817084583488,695.1541231491075,None,695.1541231491075,None,right,695.1541231491075,None,None,None,695.4987131730339,697.0658933160574,0.3247808195446851,,,,,,,888,001,2019_Oct_30_1229,Test,3.1.2,59.9822959982262,
Pictures/IA75_L15.bmp,Pictures/IA75_L15.bmp,Pictures/IA75.bmp,"

"Trust me, gamble!"",1,risk,2,0,2,0,0,17,17,16,,,,,,,,,,,,,,,,,,,,,,,,,697.0825649952586,None,699.1022762297324,700.5835989665574,700.6002522958394,None,702.1005158815441,None,y,0.5048793679416121,704.1178472247924,None,704.1178472247924,None,704.1178472247924,None,704.7178858529277,None,704.7178858529277,705.7017460103699,706.7685260318486,None,706.7685260318486,None,right,706.7685260318486,None,None,None,707.8023349805757,None,1.0141421894811629,,,,,,,888,001,2019_Oct_30_1229,Test,3.1.2,59.9822959982262,
Pictures/IA100_G40.bmp,Pictures/IA100_G40.bmp,Pictures/IA100.bmp,"

"Try your luck and gamble!"",1,risk,2,0,2,0,0,18,18,18,,,,,,,,,,,,,,,,,,,,,,,,,708.7026470225079,None,710.7249431074748,712.2036657540433,712.2203218824653,None,713.7207730105655,None,y,0.5565975268661987,715.7379472909455,None,715.7379472909455,None,715.7379472909455,None,716.3877337942998,None,716.3877337942998,717.3718682674847,718.438591373112,None,718.438591373112,None,None,718.438591373112,None,None,None,None,None,,,,,,,,888,001,2019_Oct_30_1229,Test,3.1.2,59.9822959982262,
Pictures/IA100_G20.bmp,Pictures/IA100_G20.bmp,Pictures/IA100.bmp,"

"Go ahead and gamble!"",1,risk,2,0,2,0,0,19,19,13,,,,,,,,,,,,,,,,,,,,,,,,,720.3727577720462,None,722.3943543829715,723.8737662400673,723.8904198803647,None,725.3907375827806,None,n,0.7903459519611715,727.4079840187754,None,727.4079840187754,None,727.4079840187754,None,None,None,None,None,728.3103811091624,None,728.3103811091624,None,left,728.3103811091624,None,729.2253516264406,730.2422982434151,None,None,0.8878798161151735,,,,,,,888,001,2019_Oct_30_1229,Test,3.1.2,59.9822959982262,
,,,,,,2,0,2,0,,,,,,,,,,,,,,,,,,,,,,,,,,,,,,,,,,,,,,,,,,,,,,,,,,,,,,,,,,,,,730.3751718749855,None,return,2.9750568614235817,730.3751718749855,None,888,001,2019_Oct_30_1229,Test,3.1.2,59.9822959982262,
Pictures/IA40_20_L95p.bmp,Pictures/IA40_20_L95p.bmp,Pictures/IA40.bmp,"

"Trust me, gamble!"",1,risk,3,0,3,0,0,0,0,9,,,,,,,733.4594406135965,None,733.4594406135965,None,733.4594406135965,None,right,1.0347040515689514,733.4594406135965,None,733.4594406135965,None,733.4594406135965,None,return,2.482605365081099,733.4594406135965,None,735.997283589916,None,738.0444665196393,739.4783596913854,739.4950195519945,None,741.0454707889502,None,n,0.9529551611947227,743.028948397228,None,743.028948397228,None,743.028948397228,None,None,None,None,None,744.0997700661811,None,744.0997700661811,None,right,744.0997700661811,None,None,None,744.37977303949,746.0302580838392,0.25822504029997617,,,,,,,888,001,2019_Oct_30_1229,Test,3.1.2,59.9822959982262,
Pictures/IA40_20_G95p.bmp,Pictures/IA40_20_G95p.bmp,Pictures/IA40.bmp,"

"Hold back, stay with the safe choice."",0,safe,3,0,3,0,0,1,1,1,,,,,,,,,,,,,,,,,,,,,,,,,746.0469450028039,None,748.0648283987083,749.5479702656665,749.5646578066622,None,751.0984099950455,None,n,1.2195751340555034,753.0821930206238,None,753.0821930206238,None,753.0821930206238,None,None,None,None,None,754.4323110354859,None,754.4323110354859,None,left,754.4323110354859,None,754.9662330383766,756.366651914161,None,None,0.5015014277171304,,,,,,,888,001,2019_Oct_30_1229,Test,3.1.2,59.9822959982262,
Pictures/IA100_L60.bmp,Pictures/IA100_L60.bmp,Pictures/IA100.bmp,"

"You'd have a lot to lose, don't gamble."",0,safe,3,0,3,0,0,2,2,3,,,,,,,,,,,,,,,,,,,,,,,,,756.3833313687516,None,758.4051111678542,759.8843230419315,759.9010283108154,None,761.4012782118347,None,y,0.3123289997458869,763.421312591497,None,763.421312591497,None,763.421312591497,None,763.835254424741,None,763.835254424741,764.8191469278037,765.9023271118814,None,765.9023271118814,None,left,765.9023271118814,None,766.6696383168709,767.8033501354317,None,None,0.7432647243329029,,,,,,,888,001,2019_Oct_30_1229,Test,3.1.2,59.9822959982262,
Pictures/IA75_L30.bmp,Pictures/IA75_L30.bmp,Pictures/IA75.bmp,"

"Hold back, stay with the safe choice."",0,safe,3,0,3,0,0,3,3,11,,,,,,,,,,,,,,,,,,,,,,,,,767.8200327001783,None,769.8396357012297,771.3210411681995,771.3377352405224,None,772.8546941426124,None,y,1.086146650688761,774.8552701434684,None,774.8552701434684,None,774.8552701434684,None,776.0400731135429,None,776.0400731135429,777.0393966546543,778.1060572461498,None,778.1060572461498,None,left,778.1060572461498,None,778.4230869353863,780.0235765361139,None,None,0.2913338929540714,,,,,,,888,001,2019_Oct_30_1229,Test,3.1.2,59.9822959982262,
Pictures/IA25_L5.bmp,Pictures/IA25_L5.bmp,Pictures/IA25.bmp,"

"It would be smarter to choose the safe option."",0,safe,3,0,3,0,0,4,4,10,,,,,,,,,,,,,,,,,,,,,,,,,780.040274029608,None,782.0617148217274,783.5412912060657,783.5579666174536,None,785.058393175323,None,y,0.8175962041168532,787.0755369761758,None,787.0755369761758,None,787.0755369761758,None,787.9921222863503,None,787.9921222863503,788.9762387206312,790.0445116168986,None,790.0445116168986,None,right,790.0445116168986,None,None,None,791.1101732263481,None,1.0406581338504566,,,,,,,888,001,2019_Oct_30_1229,Test,3.1.2,59.9822959982262,
Pictures/IA75_G15.bmp,Pictures/IA75_G15.bmp,Pictures/IA75.bmp,"

"Take a chance!"",1,risk,3,0,3,0,0,5,5,14,,,,,,,,,,,,,,,,,,,,,,,,,791.977135378551,None,793.9991014759868,795.4781575312578,795.4948239231941,None,796.9952156473183,None,y,0.7126228472668572,799.0123519837974,None,799.0123519837974,None,799.0123519837974,None,799.8124921274181,None,799.8124921274181,800.7963522848605,801.8640171456669,None,801.8640171456669,None,left,801.8640171456669,None,802.6135942422308,803.7805977906077,None,None,0.7329685535255521,,,,,,,888,001,2019_Oct_30_1229,Test,3.1.2,59.9822959982262,
Pictures/IA25_L20.bmp,Pictures/IA25_L20.bmp,Pictures/IA25.bmp,"

"Don't be tempted to gamble."",0,safe,3,0,3,0,0,6,6,8,,,,,,,,,,,,,,,,,,,,,,,,,803.7972679147307,None,805.8195960343027,807.2982813590012,807.3149493060154,None,808.8153836392743,None,y,0.9722095137799442,810.8325097122391,None,810.8325097122391,None,810.8325097122391,None,811.9160236160352,None,811.9160236160352,812.8999444215157,813.9831280267648,None,813.9831280267648,None,left,813.9831280267648,None,814.6003922528508,815.8841600697671,None,None,0.5975806719991397,,,,,,,888,001,2019_Oct_30_1229,Test,3.1.2,59.9822959982262,
Pictures/IA50_G30.bmp,Pictures/IA50_G30.bmp,Pictures/IA50.bmp,"

"I think you should gamble."",1,risk,3,0,3,0,0,7,7,4,,,,,,,,,,,,,,,,,,,,,,,,,815.9008199303761,None,817.9232146072821,819.4018458152699,819.4184898140842,None,820.918935965935,None,n,2.2086843014574242,822.9397802301702,None,822.9397802301702,None,822.9397802301702,None,None,None,None,None,825.2569753796957,None,825.2569753796957,None,right,825.2569753796957,None,None,None,825.6703716916107,827.2040694522674,0.3874663209003302,,,,,,,888,001,2019_Oct_30_1229,Test,3.1.2,59.9822959982262,
Pictures/IA100_G80.bmp,Pictures/IA100_G80.bmp,Pictures/IA100.bmp,"

"Why not gamble?"",1,risk,3,0,3,0,0,8,8,18,,,,,,,,,,,,,,,,,,,,,,,,,827.2208254166909,None,829.23977124182,830.7218575218964,830.7384797496201,None,832.2387828343036,None,n,0.7482363083943255,834.2560812099003,None,834.2560812099003,None,834.2560812099003,None,None,None,None,None,835.1084427356558,None,835.1084427356558,None,right,835.1084427356558,None,None,None,835.4231880154501,837.0403573817838,0.28784336508920205,,,,,,,888,001,2019_Oct_30_1229,Test,3.1.2,59.9822959982262,
Pictures/IA50_L20.bmp,Pictures/IA50_L20.bmp,Pictures/IA50.bmp,"

"Certainty is boring, take a risk!"",1,risk,3,0,3,0,0,9,9,16,,,,,,,,,,,,,,,,,,,,,,,,,837.0570296830161,None,839.0788726182817,840.5580760949382,840.5747418648433,None,842.0750029624234,None,y,0.5598268016433394,844.092314089659,None,844.092314089659,None,844.092314089659,None,844.7429465553936,None,844.7429465553936,845.7429468664092,846.8094311120705,None,846.8094311120705,None,right,846.8094311120705,None,None,None,848.0602658001359,None,1.2276326147109557,,,,,,,888,001,2019_Oct_30_1229,Test,3.1.2,59.9822959982262,
Pictures/IA50_L30.bmp,Pictures/IA50_L30.bmp,Pictures/IA50.bmp,"

"Take a leap, I think you should gamble."",1,risk,3,0,3,0,0,10,10,15,,,,,,,,,,,,,,,,,,,,,,,,,848.7438018482413,None,850.7653175951156,852.2448268000882,852.2614997233517,None,853.7618594128711,None,y,0.5680668484449143,855.795754512914,None,855.795754512914,None,855.795754512914,None,856.4640576398957,None,856.4640576398957,857.4630328435563,858.5321137583029,None,858.5321137583029,None,right,858.5321137583029,None,None,None,858.996824219903,860.4472369842312,0.4397850509117234,,,,,,,888,001,2019_Oct_30_1229,Test,3.1.2,59.9822959982262,
Pictures/IA75_L15.bmp,Pictures/IA75_L15.bmp,Pictures/IA75.bmp,"

"Trust me, gamble!"",1,risk,3,0,3,0,0,11,11,5,,,,,,,,,,,,,,,,,,,,,,,,,860.4639099074947,None,862.482275066534,863.9649560084011,863.9816239554153,None,865.4820455370353,None,n,0.7605161365768254,867.4991908929661,None,867.4991908929661,None,867.4991908929661,None,None,None,None,None,868.3666503590831,None,868.3666503590831,None,right,868.3666503590831,None,None,None,868.8330499463033,870.3001291025677,0.43693801428389634,,,,,,,888,001,2019_Oct_30_1229,Test,3.1.2,59.9822959982262,
Pictures/IA50_L40.bmp,Pictures/IA50_L40.bmp,Pictures/IA50.bmp,"

"That gamble doesn't sound too good, play it safe."",0,safe,3,0,3,0,0,12,12,6,,,,,,,,,,,,,,,,,,,,,,,,,870.3168253519997,None,872.3392837870998,873.8178462606442,873.83452042797,None,875.3349249037329,None,n,0.6587975577810994,877.3687422498805,None,877.3687422498805,None,877.3687422498805,None,None,None,None,None,878.1519687441781,None,878.1519687441781,None,left,878.1519687441781,None,878.685916561362,880.1030180018928,None,None,0.5074726158557041,,,,,,,888,001,2019_Oct_30_1229,Test,3.1.2,59.9822959982262,
Pictures/IA100_L20.bmp,Pictures/IA100_L20.bmp,Pictures/IA100.bmp,"

"Try to win as much money as you can, gamble!"",1,risk,3,0,3,0,0,13,13,2,,,,,,,,,,,,,,,,,,,,,,,,,880.1196924802342,None,882.1404132712836,883.6207420023121,883.6373965756562,None,885.1720861650007,None,y,0.35224100721779905,887.1549946147653,None,887.1549946147653,None,887.1549946147653,None,887.6213957570632,None,887.6213957570632,888.6055268090767,889.6943348200915,None,889.6943348200915,None,right,889.6943348200915,None,None,None,890.2060027251185,891.589736548032,0.4849395370158618,,,,,,,888,001,2019_Oct_30_1229,Test,3.1.2,59.9822959982262,
Pictures/IA25_L10.bmp,Pictures/IA25_L10.bmp,Pictures/IA25.bmp,"

"Dont be afraid to take the risk!"",1,risk,3,0,3,0,0,14,14,17,,,,,,,,,,,,,,,,,,,,,,,,,891.6063901883293,None,893.6270064781435,895.1074490408747,895.1239764088463,None,896.6244950273275,None,n,1.137346346639788,898.6416615323179,None,898.6416615323179,None,898.6416615323179,None,None,None,None,None,899.8956822639944,None,899.8956822639944,None,right,899.8956822639944,None,None,None,900.1589196313968,901.8427144444655,0.24343096216102822,,,,,,,888,001,2019_Oct_30_1229,Test,3.1.2,59.9822959982262,
Pictures/IA100_L40.bmp,Pictures/IA100_L40.bmp,Pictures/IA100.bmp,"

"Think of the payoff, gamble!"",1,risk,3,0,3,0,0,15,15,7,,,,,,,,,,,,,,,,,,,,,,,,,901.8594305988948,None,903.8785365970479,905.3604521295703,905.3771322061922,None,906.8773845953361,None,n,1.0681198766014859,908.8946860810887,None,908.8946860810887,None,908.8946860810887,None,None,None,None,None,910.0811436540536,None,910.0811436540536,None,right,910.0811436540536,None,None,None,910.4452875385699,912.0290843110369,0.34584683788898474,,,,,,,888,001,2019_Oct_30_1229,Test,3.1.2,59.9822959982262,
Pictures/IA80_40_G95p.bmp,Pictures/IA80_40_G95p.bmp,Pictures/IA80.bmp,"

"Think of the payoff, gamble!"",1,risk,3,0,3,0,0,16,16,19,,,,,,,,,,,,,,,,,,,,,,,,,912.0457535021131,None,914.0679979584937,915.5467846742719,915.5634417357406,None,917.0638707817346,None,n,1.0174358444835434,919.0973904859712,None,919.0973904859712,None,919.0973904859712,None,None,None,None,None,920.214585822106,None,920.214585822106,None,left,920.214585822106,None,920.5148716765265,922.1153684306122,None,None,0.284031247113262,,,,,,,888,001,2019_Oct_30_1229,Test,3.1.2,59.9822959982262,
Pictures/IA80_40_L95p.bmp,Pictures/IA80_40_L95p.bmp,Pictures/IA80.bmp,"

"Let's stay with the certain option."",0,safe,3,0,3,0,0,17,17,0,,,,,,,,,,,,,,,,,,,,,,,,,922.1320631249665,None,924.154186596286,925.6330796793928,925.6497420281265,None,927.1500171214078,None,n,1.2094431794751017,929.1690795773796,None,929.1690795773796,None,929.1690795773796,None,None,None,None,None,930.5007360183723,None,930.5007360183723,None,right,930.5007360183723,None,None,None,930.7178724792576,932.4350747199384,0.19778662651651757,,,,,,,888,001,2019_Oct_30_1229,Test,3.1.2,59.9822959982262,
Pictures/IA100_G20.bmp,Pictures/IA100_G20.bmp,Pictures/IA100.bmp,"

"Go ahead and gamble!"",1,risk,3,0,3,0,0,18,18,12,,,,,,,,,,,,,,,,,,,,,,,,,932.4517544855445,None,934.4736652222067,935.9527822365318,935.9694601360444,None,937.4696938642536,None,y,0.8104907421545704,939.4878817444118,None,939.4878817444118,None,939.4878817444118,None,940.3870750632994,None,940.3870750632994,941.3876874529784,942.4708635938536,None,942.4708635938536,None,left,942.4708635938536,None,942.8047478394525,944.3719239392736,None,None,0.30745009832753567,,,,,,,888,001,2019_Oct_30_1229,Test,3.1.2,59.9822959982262,
Pictures/IA25_L15.bmp,Pictures/IA25_L15.bmp,Pictures/IA25.bmp,"

"There's not much on the line here, gamble!"",1,risk,3,0,3,0,0,19,19,13,,,,,,,,,,,,,,,,,,,,,,,,,944.3885831778515,None,946.4112058291784,947.88961155087,947.906267679292,None,949.4073909120626,None,n,1.0473194655633051,951.4269388633562,None,951.4269388633562,None,951.4269388633562,None,None,None,None,None,952.5905669596331,None,952.5905669596331,None,right,952.5905669596331,None,None,None,954.4914895251508,None,1.8834767685357292,,,,,,,888,001,2019_Oct_30_1229,Test,3.1.2,59.9822959982262,
,,,,,,3,0,3,0,,,,,,,,,,,,,,,,,,,,,,,,,,,,,,,,,,,,,,,,,,,,,,,,,,,,,,,,,,,,,954.6578299883089,None,return,2.1682861766325914,954.6578299883089,None,888,001,2019_Oct_30_1229,Test,3.1.2,59.9822959982262,
Pictures/IA40_20_L95p.bmp,Pictures/IA40_20_L95p.bmp,Pictures/IA40.bmp,"

"Trust me, gamble!"",1,risk,4,0,4,0,0,0,0,18,,,,,,,956.9422226355274,None,956.9422226355274,None,956.9422226355274,None,left,1.2758627338953374,956.9422226355274,None,956.9422226355274,None,956.9422226355274,None,return,2.443801506124146,956.9422226355274,None,959.4428457552439,None,961.4458865545788,962.9272830020965,962.9440299470683,None,964.444308461521,None,n,0.8522906142029569,966.4615735584506,None,966.4615735584506,None,966.4615735584506,None,None,None,None,None,967.4449099656546,None,967.4449099656546,None,right,967.4449099656546,None,None,None,967.6954314610299,969.3792726154203,0.2209003714458504,,,,,,,888,001,2019_Oct_30_1229,Test,3.1.2,59.9822959982262,
Pictures/IA50_L10.bmp,Pictures/IA50_L10.bmp,Pictures/IA50.bmp,"

"Play it safe, don’t gamble!"",0,safe,4,0,4,0,0,1,1,8,,,,,,,,,,,,,,,,,,,,,,,,,969.3959505149329,None,971.4178712040938,972.8969823091228,972.9136431027786,None,974.4139421442597,None,y,0.7465188803564615,976.4311596558053,None,976.4311596558053,None,976.4311596558053,None,977.264674570402,None,977.264674570402,978.2652054739987,979.3486335374943,None,979.3486335374943,None,left,979.3486335374943,None,979.7323555418155,981.2494363620134,None,None,0.3569740423286021,,,,,,,888,001,2019_Oct_30_1229,Test,3.1.2,59.9822959982262,
Pictures/IA100_L60.bmp,Pictures/IA100_L60.bmp,Pictures/IA100.bmp,"

"You'd have a lot to lose, don't gamble."",0,safe,4,0,4,0,0,2,2,13,,,,,,,,,,,,,,,,,,,,,,,,,981.266103998012,None,983.2858814788045,984.7671283278279,984.7838136917145,None,986.2840536402354,None,y,1.0121575990592646,988.3013333548971,None,988.3013333548971,None,988.3013333548971,None,989.4179763273602,None,989.4179763273602,990.4020812540647,991.4691411895661,None,991.4691411895661,None,left,991.4691411895661,None,991.8358702355912,993.3863143191885,None,None,0.34024202610476095,,,,,,,888,001,2019_Oct_30_1229,Test,3.1.2,59.9822959982262,
Pictures/IA25_L10.bmp,Pictures/IA25_L10.bmp,Pictures/IA25.bmp,"

"Dont be afraid to take the risk!"",1,risk,4,0,4,0,0,3,3,6,,,,,,,,,,,,,,,,,,,,,,,,,993.4029831992494,None,995.4258624384307,996.9040286781247,996.9206897827961,None,998.4211191398057,None,n,0.9783194148676557,1000.4549050733796,None,1000.4549050733796,None,1000.4549050733796,None,None,None,None,None,1001.555684074105,None,1001.555684074105,None,right,1001.555684074105,None,None,None,1002.9057784517832,None,1.325537520453281,,,,,,,888,001,2019_Oct_30_1229,Test,3.1.2,59.9822959982262,
Pictures/IA110_55_G95p.bmp,Pictures/IA110_55_G95p.bmp,Pictures/IA110.bmp,"

"Take a chance!"",1,risk,4,0,4,0,0,4,4,11,,,,,,,,,,,,,,,,,,,,,,,,,1003.5059725877087,None,1005.5281029013712,1007.0070031378363,1007.0236608213362,None,1008.5240842690497,None,y,1.0358355262524128,1010.5412140742015,None,1010.5412140742015,None,1010.5412140742015,None,1011.6748736421449,None,1011.6748736421449,1012.6586588448321,1013.7252018724383,None,1013.7252018724383,None,left,1013.7252018724383,None,1014.0424007541507,1015.6428723159744,None,None,0.29182249843165664,,,,,,,888,001,2019_Oct_30_1229,Test,3.1.2,59.9822959982262,
Pictures/IA100_L20.bmp,Pictures/IA100_L20.bmp,Pictures/IA100.bmp,"

"Try to win as much money as you can, gamble!"",1,risk,4,0,4,0,0,5,5,0,,,,,,,,,,,,,,,,,,,,,,,,,1015.6595069843214,None,1017.6816292115788,1019.1605580614772,1019.1772051704476,None,1020.677665629015,None,n,0.6816460064201237,1022.7112067933268,None,1022.7112067933268,None,1022.7112067933268,None,None,None,None,None,1023.5280593591898,None,1023.5280593591898,None,right,1023.5280593591898,None,None,None,1023.8286067777138,1025.4623968166934,0.27273422816665516,,,,,,,888,001,2019_Oct_30_1229,Test,3.1.2,59.9822959982262,
Pictures/IA75_L30.bmp,Pictures/IA75_L30.bmp,Pictures/IA75.bmp,"

"Hold back, stay with the safe choice."",0,safe,4,0,4,0,0,6,6,3,,,,,,,,,,,,,,,,,,,,,,,,,1025.479100841515,None,1027.5007624546965,1028.9801173959413,1028.9967881420957,None,1030.4970616802989,None,y,0.7242367910905614,1032.5164161799016,None,1032.5164161799016,None,1032.5164161799016,None,1033.347780421756,None,1033.347780421756,1034.331699361143,1035.4148767460806,None,1035.4148767460806,None,left,1035.4148767460806,None,1035.7321085954445,1037.3158829747895,None,None,0.2977467232176423,,,,,,,888,001,2019_Oct_30_1229,Test,3.1.2,59.9822959982262,
Pictures/IA40_20_G95p.bmp,Pictures/IA40_20_G95p.bmp,Pictures/IA40.bmp,"

"Hold back, stay with the safe choice."",0,safe,4,0,4,0,0,7,7,16,,,,,,,,,,,,,,,,,,,,,,,,,1037.3325916648446,None,1039.3529706497707,1040.833609774349,1040.8502836306593,None,1042.3505400630056,None,n,1.3846531849706025,1044.3677765465018,None,1044.3677765465018,None,1044.3677765465018,None,None,None,None,None,1045.8512857228611,None,1045.8512857228611,None,left,1045.8512857228611,None,1046.1851509965095,1047.7522739126662,None,None,0.3091581958981351,,,,,,,888,001,2019_Oct_30_1229,Test,3.1.2,59.9822959982262,
Pictures/IA75_G60.bmp,Pictures/IA75_G60.bmp,Pictures/IA75.bmp,"

"Make it exciting, take a chance!"",1,risk,4,0,4,0,0,8,8,17,,,,,,,,,,,,,,,,,,,,,,,,,1047.76897638241,None,1049.7913523983812,1051.270004133397,1051.2866776786918,None,1052.7869459296303,None,y,1.3946224784021979,1054.80558975863,None,1054.80558975863,None,1054.80558975863,None,1056.2878707344603,None,1056.2878707344603,1057.2884199879763,1058.3577721083093,None,1058.3577721083093,None,right,1058.3577721083093,None,None,None,1058.655451341146,1060.2726704699726,0.27436643793544135,,,,,,,888,001,2019_Oct_30_1229,Test,3.1.2,59.9822959982262,
Pictures/IA75_L60.bmp,Pictures/IA75_L60.bmp,Pictures/IA75.bmp,"

"Why not take the gamble?"",1,risk,4,0,4,0,0,9,9,2,,,,,,,,,,,,,,,,,,,,,,,,,1060.2893287755037,None,1062.3077269021946,1063.7903160944652,1063.8070163870998,None,1065.3073766986504,None,y,1.2993105095586088,1067.3246209575364,None,1067.3246209575364,None,1067.3246209575364,None,1068.7081921193007,None,1068.7081921193007,1069.6920846223634,1070.7754688326622,None,1070.7754688326622,None,right,1070.7754688326622,None,None,None,1071.0257937661904,1072.6762809876486,0.2323970623956484,,,,,,,888,001,2019_Oct_30_1229,Test,3.1.2,59.9822959982262,
Pictures/IA80_40_L95p.bmp,Pictures/IA80_40_L95p.bmp,Pictures/IA80.bmp,"

"Let's stay with the certain option."",0,safe,4,0,4,0,0,10,10,12,,,,,,,,,,,,,,,,,,,,,,,,,1072.6929669735664,None,1074.7149371142045,1076.194013696504,1076.2106744901598,None,1077.7110966938112,None,n,0.7028619342743241,1079.7448331759078,None,1079.7448331759078,None,1079.7448331759078,None,None,None,None,None,1080.5781188720212,None,1080.5781188720212,None,right,1080.5781188720212,None,None,None,1081.5455135535926,None,0.9416892438059676,,,,,,,888,001,2019_Oct_30_1229,Test,3.1.2,59.9822959982262,
Pictures/IA75_L45.bmp,Pictures/IA75_L45.bmp,Pictures/IA75.bmp,"

"Don't gamble for this one, play it safe."",0,safe,4,0,4,0,0,11,11,4,,,,,,,,,,,,,,,,,,,,,,,,,1082.5291982982471,None,1084.551128628891,1086.0302328915773,1086.0468939962484,None,1087.5473239752891,None,y,0.8826973634897968,1089.5808365261673,None,1089.5808365261673,None,1089.5808365261673,None,1090.5479755529313,None,1090.5479755529313,1091.548512365824,1092.6172962606906,None,1092.6172962606906,None,left,1092.6172962606906,None,1092.982292016883,1094.5327208607168,None,None,0.3341510969673891,,,,,,,888,001,2019_Oct_30_1229,Test,3.1.2,59.9822959982262,
Pictures/IA50_L40.bmp,Pictures/IA50_L40.bmp,Pictures/IA50.bmp,"

"That gamble doesn't sound too good, play it safe."",0,safe,4,0,4,0,0,12,12,15,,,,,,,,,,,,,,,,,,,,,,,,,1094.549395028043,None,1096.5680911076602,1098.050421223952,1098.067097568387,None,1099.5674326876756,None,n,0.79075120526295,1101.5846383806288,None,1101.5846383806288,None,1101.5846383806288,None,None,None,None,None,1102.51793860117,None,1102.51793860117,None,right,1102.51793860117,None,None,None,1103.5520448807924,None,1.0174955594750372,,,,,,,888,001,2019_Oct_30_1229,Test,3.1.2,59.9822959982262,
Pictures/IA25_G10.bmp,Pictures/IA25_G10.bmp,Pictures/IA25.bmp,"

"What's life without a little risk?"",1,risk,4,0,4,0,0,13,13,19,,,,,,,,,,,,,,,,,,,,,,,,,1104.4689763513084,None,1106.4905272429432,1107.9699854413607,1107.9866782696213,None,1109.486944343451,None,y,0.4630440401172109,1111.5041640321056,None,1111.5041640321056,None,1111.5041640321056,None,1112.054853818012,None,1112.054853818012,1113.054821783407,1114.1258064245244,None,1114.1258064245244,None,right,1114.1258064245244,None,None,None,1114.438577377411,1116.0390336994715,0.28130830570239596,,,,,,,888,001,2019_Oct_30_1229,Test,3.1.2,59.9822959982262,
Pictures/IA25_G5.bmp,Pictures/IA25_G5.bmp,Pictures/IA25.bmp,"

"Let's stay with the certain option."",0,safe,4,0,4,0,0,14,14,1,,,,,,,,,,,,,,,,,,,,,,,,,1116.0557349251526,None,1118.074737666133,1119.556766408327,1119.5734147613593,None,1121.0736665284721,None,y,0.764052694747761,1123.0909627269598,None,1123.0909627269598,None,1123.0909627269598,None,1123.9410784092051,None,1123.9410784092051,1124.9416351270952,1126.0095596859114,None,1126.0095596859114,None,right,1126.0095596859114,None,None,None,1126.3086854522153,1127.9258747235463,0.2773394358737278,,,,,,,888,001,2019_Oct_30_1229,Test,3.1.2,59.9822959982262,
Pictures/IA100_G60.bmp,Pictures/IA100_G60.bmp,Pictures/IA100.bmp,"

"Be cautious, don't gamble for this one."",0,safe,4,0,4,0,0,15,15,5,,,,,,,,,,,,,,,,,,,,,,,,,1127.9424829555687,None,1129.9648511961504,1131.4435735317034,1131.4601478630275,None,1132.96065652901,None,n,0.95701546960413,1134.977782601975,None,1134.977782601975,None,1134.977782601975,None,None,None,None,None,1136.0611126955628,None,1136.0611126955628,None,left,1136.0611126955628,None,1136.3283820689567,1137.9954769004062,None,None,0.24167870037786088,,,,,,,888,001,2019_Oct_30_1229,Test,3.1.2,59.9822959982262,
Pictures/IA50_G40.bmp,Pictures/IA50_G40.bmp,Pictures/IA50.bmp,"

"It would probably be best to play it safe."",0,safe,4,0,4,0,0,16,16,9,,,,,,,,,,,,,,,,,,,,,,,,,1138.0121516897634,None,1140.0328671935476,1141.5131890822336,1141.529801046443,None,1143.0301234140925,None,n,0.7990226646384144,1145.0474625327306,None,1145.0474625327306,None,1145.0474625327306,None,None,None,None,None,1145.964013631191,None,1145.964013631191,None,right,1145.964013631191,None,None,None,1146.26459588346,1147.8984254214183,0.2825884458334258,,,,,,,888,001,2019_Oct_30_1229,Test,3.1.2,59.9822959982262,
Pictures/IA50_G10.bmp,Pictures/IA50_G10.bmp,Pictures/IA50.bmp,"

"Go with the safe option here!"",0,safe,4,0,4,0,0,17,17,14,,,,,,,,,,,,,,,,,,,,,,,,,1147.9150429839083,None,1149.9339595735728,1151.4161117889525,1151.4327206430062,None,1152.9682807649615,None,y,1.048022671791614,1154.9503612912495,None,1154.9503612912495,None,1154.9503612912495,None,1156.0836389320598,None,1156.0836389320598,1157.0677724721977,1158.135778828112,None,1158.135778828112,None,left,1158.135778828112,None,1158.4514552885557,1160.0519672824048,None,None,0.28650537605972204,,,,,,,888,001,2019_Oct_30_1229,Test,3.1.2,59.9822959982262,
Pictures/IA25_L20.bmp,Pictures/IA25_L20.bmp,Pictures/IA25.bmp,"

"Don't be tempted to gamble."",0,safe,4,0,4,0,0,18,18,10,,,,,,,,,,,,,,,,,,,,,,,,,1160.068644870902,None,1162.0865024525133,1163.5696458745492,1163.5862954716445,None,1165.086614107107,None,n,2.4302206997663234,1167.1039215021556,None,1167.1039215021556,None,1167.1039215021556,None,None,None,None,None,1169.6543257757585,None,1169.6543257757585,None,right,1169.6543257757585,None,None,None,1169.9548427147556,1171.5887052203657,0.2717626154917525,,,,,,,888,001,2019_Oct_30_1229,Test,3.1.2,59.9822959982262,
Pictures/IA100_G40.bmp,Pictures/IA100_G40.bmp,Pictures/IA100.bmp,"

"Try your luck and gamble!"",1,risk,4,0,4,0,0,19,19,7,,,,,,,,,,,,,,,,,,,,,,,,,1171.6053622818345,None,1173.6392881724196,1175.106407449694,1175.1230893924094,None,1176.6234976003593,None,y,1.482821831925321,1178.6431117979719,None,1178.6431117979719,None,1178.6431117979719,None,1180.224096989587,None,1180.224096989587,1181.2248723514303,1182.2924040975681,None,1182.2924040975681,None,right,1182.2924040975681,None,None,None,1182.5585914477556,1184.2090827124166,0.24152101547838356,,,,,,,888,001,2019_Oct_30_1229,Test,3.1.2,59.9822959982262,
,,,,,,4,0,4,0,,,,,,,,,,,,,,,,,,,,,,,,,,,,,,,,,,,,,,,,,,,,,,,,,,,,,,,,,,,,,1184.3283929545019,None,return,2.693426032564048,1184.3283929545019,None,888,001,2019_Oct_30_1229,Test,3.1.2,59.9822959982262,
Pictures/IA75_L60.bmp,Pictures/IA75_L60.bmp,Pictures/IA75.bmp,"

"Why not take the gamble?"",1,risk,5,0,5,0,0,0,0,15,,,,,,,1187.1281897369213,None,1187.1281897369213,None,1187.1281897369213,None,right,3.3894468681196486,1187.1281897369213,None,1187.1281897369213,None,1187.1281897369213,None,return,3.9015467737885956,1187.1281897369213,None,1191.0942825072707,None,1193.0993704111597,1194.5788065274705,1194.5953992087143,None,1196.0956721248863,None,n,1.156134797884988,1198.1135119786095,None,1198.1135119786095,None,1198.1135119786095,None,None,None,None,None,1199.3831509797146,None,1199.3831509797146,None,right,1199.3831509797146,None,None,None,1199.7636757438636,1201.3307902625997,0.3584411028239174,,,,,,,888,001,2019_Oct_30_1229,Test,3.1.2,59.9822959982262,
Pictures/IA25_G15.bmp,Pictures/IA25_G15.bmp,Pictures/IA25.bmp,"

"I think you should take a gamble."",1,risk,5,0,5,0,0,1,1,2,,,,,,,,,,,,,,,,,,,,,,,,,1201.3474610087542,None,1203.3670982215194,1204.8484760081028,1204.8651448881633,None,1206.3655070658074,None,n,0.8467536038151593,1208.3826611301747,None,1208.3826611301747,None,1208.3826611301747,None,None,None,None,None,1209.3366600596592,None,1209.3366600596592,None,right,1209.3366600596592,None,None,None,1209.5998734788618,1211.2836272378736,0.24474469197480175,,,,,,,888,001,2019_Oct_30_1229,Test,3.1.2,59.9822959982262,
Pictures/IA75_G30.bmp,Pictures/IA75_G30.bmp,Pictures/IA75.bmp,"

"Be bold, gamble!"",1,risk,5,0,5,0,0,2,2,4,,,,,,,,,,,,,,,,,,,,,,,,,1211.3004012412011,None,1213.3206284505236,1214.8013851389915,1214.818059306317,None,1216.3183521274864,None,y,0.7736347737813958,1218.3356355743354,None,1218.3356355743354,None,1218.3356355743354,None,1219.2021899851115,None,1219.2021899851115,1220.1863173049383,1221.2551503402665,None,1221.2551503402665,None,right,1221.2551503402665,None,None,None,1221.6700902225098,1223.170525799831,0.3820565158850968,,,,,,,888,001,2019_Oct_30_1229,Test,3.1.2,59.9822959982262,
Pictures/IA100_L40.bmp,Pictures/IA100_L40.bmp,Pictures/IA100.bmp,"

"Think of the payoff, gamble!"",1,risk,5,0,5,0,0,3,3,6,,,,,,,,,,,,,,,,,,,,,,,,,1223.1871999671566,None,1225.2097184282643,1226.688231450331,1226.7049124599994,None,1228.205316624747,None,y,0.9585696144620215,1230.2224318121666,None,1230.2224318121666,None,1230.2224318121666,None,1231.2726039126383,None,1231.2726039126383,1232.2565321824927,1233.3244433676396,None,1233.3244433676396,None,right,1233.3244433676396,None,None,None,1233.7402500503067,1235.2407615154298,0.39246092011489964,,,,,,,888,001,2019_Oct_30_1229,Test,3.1.2,59.9822959982262,
Pictures/IA75_L15.bmp,Pictures/IA75_L15.bmp,Pictures/IA75.bmp,"

"Trust me, gamble!"",1,risk,5,0,5,0,0,4,4,5,,,,,,,,,,,,,,,,,,,,,,,,,1235.2573933846365,None,1237.278894824794,1238.758464677805,1238.7750694886563,None,1240.275524659959,None,n,0.8876285155256483,1242.3090602259904,None,1242.3090602259904,None,1242.3090602259904,None,None,None,None,None,1243.3259788515625,None,1243.3259788515625,None,right,1243.3259788515625,None,None,None,1243.6098377960443,1245.260373535933,0.2628156302746447,,,,,,,888,001,2019_Oct_30_1229,Test,3.1.2,59.9822959982262,
Pictures/IA25_L15.bmp,Pictures/IA25_L15.bmp,Pictures/IA25.bmp,"

"There's not much on the line here, gamble!"",1,risk,5,0,5,0,0,5,5,11,,,,,,,,,,,,,,,,,,,,,,,,,1245.2770343295888,None,1247.2993136197147,1248.7779927241018,1248.7946267704174,None,1250.295146632961,None,y,0.8119332324192783,1252.3286831320388,None,1252.3286831320388,None,1252.3286831320388,None,1253.2455296953012,None,1253.2455296953012,1254.229662613408,1255.3130844565922,None,1255.3130844565922,None,right,1255.3130844565922,None,None,None,1256.246926466275,None,0.9074162598321891,,,,,,,888,001,2019_Oct_30_1229,Test,3.1.2,59.9822959982262,
Pictures/IA75_G60.bmp,Pictures/IA75_G60.bmp,Pictures/IA75.bmp,"

"Make it exciting, take a chance!"",1,risk,5,0,5,0,0,6,6,12,,,,,,,,,,,,,,,,,,,,,,,,,1257.2305446535956,None,1259.25044374148,1260.7315170438092,1260.7482453278462,None,1262.2485154448782,None,n,1.64252895477307,1264.2658362135967,None,1264.2658362135967,None,1264.2658362135967,None,None,None,None,None,1266.0326476165478,None,1266.0326476165478,None,right,1266.0326476165478,None,None,None,1266.3999548405377,1267.9670469661519,0.34770982121904126,,,,,,,888,001,2019_Oct_30_1229,Test,3.1.2,59.9822959982262,
Pictures/IA25_G20.bmp,Pictures/IA25_G20.bmp,Pictures/IA25.bmp,"

"I wouldn't gamble for this one. "",0,safe,5,0,5,0,0,7,7,9,,,,,,,,,,,,,,,,,,,,,,,,,1267.9836931420755,None,1270.005199869498,1271.4847376879038,1271.50140407984,None,1273.00181228779,None,n,0.7204256061613705,1275.035645184717,None,1275.035645184717,None,1275.035645184717,None,None,None,None,None,1275.8855568407412,None,1275.8855568407412,None,right,1275.8855568407412,None,None,None,1276.2027239988643,1277.8199359743326,0.29449567734991433,,,,,,,888,001,2019_Oct_30_1229,Test,3.1.2,59.9822959982262,
Pictures/IA80_40_L95p.bmp,Pictures/IA80_40_L95p.bmp,Pictures/IA80.bmp,"

"Let's stay with the certain option."",0,safe,5,0,5,0,0,8,8,10,,,,,,,,,,,,,,,,,,,,,,,,,1277.8366008111907,None,1279.8579887306614,1281.3376270071003,1281.3543030405194,None,1282.8545641380997,None,n,1.3071014498614204,1284.872817953561,None,1284.872817953561,None,1284.872817953561,None,None,None,None,None,1286.3052673909806,None,1286.3052673909806,None,right,1286.3052673909806,None,None,None,1286.5724997535203,1288.2396561660548,0.25087449805960205,,,,,,,888,001,2019_Oct_30_1229,Test,3.1.2,59.9822959982262,
Pictures/IA100_L60.bmp,Pictures/IA100_L60.bmp,Pictures/IA100.bmp,"

"You'd have a lot to lose, don't gamble."",0,safe,5,0,5,0,0,9,9,3,,,,,,,,,,,,,,,,,,,,,,,,,1288.256343396035,None,1290.274414956366,1291.757362438586,1291.773992752715,None,1293.274459431594,None,y,0.8323007097687878,1295.291590791824,None,1295.291590791824,None,1295.291590791824,None,1296.2250580277318,None,1296.2250580277318,1297.208954262982,1298.2923863696801,None,1298.2923863696801,None,left,1298.2923863696801,None,1298.6593875543385,1300.193178930685,None,None,0.3353329561753071,,,,,,,888,001,2019_Oct_30_1229,Test,3.1.2,59.9822959982262,
Pictures/IA75_L45.bmp,Pictures/IA75_L45.bmp,Pictures/IA75.bmp,"

"Don't gamble for this one, play it safe."",0,safe,5,0,5,0,0,10,10,0,,,,,,,,,,,,,,,,,,,,,,,,,1300.209821685437,None,1302.231622011568,1303.710881471029,1303.7275155173447,None,1305.227977842006,None,y,1.1658002290942022,1307.261804518621,None,1307.261804518621,None,1307.261804518621,None,1308.5287177791747,None,1308.5287177791747,1309.5125888221623,1310.5957410148376,None,1310.5957410148376,None,None,1310.5957410148376,None,None,None,None,None,,,,,,,,888,001,2019_Oct_30_1229,Test,3.1.2,59.9822959982262,
Pictures/IA20_10_L95p.bmp,Pictures/IA20_10_L95p.bmp,Pictures/IA20.bmp,"

"Don't be tempted to gamble."",0,safe,5,0,5,0,0,11,11,16,,,,,,,,,,,,,,,,,,,,,,,,,1312.5134577996955,None,1314.5355203119611,1316.0144584923273,1316.0311646942578,None,1317.5314158393394,None,n,0.4126952827957666,1319.550655885208,None,1319.550655885208,None,1319.550655885208,None,None,None,None,None,1320.067787711961,None,1320.067787711961,None,right,1320.067787711961,None,None,None,1320.382368464513,1322.0162580284787,0.287462371002448,,,,,,,888,001,2019_Oct_30_1229,Test,3.1.2,59.9822959982262,
Pictures/IA110_55_L95p.bmp,Pictures/IA110_55_L95p.bmp,Pictures/IA110.bmp,"

"Trust me, gamble!"",1,risk,5,0,5,0,0,12,12,7,,,,,,,,,,,,,,,,,,,,,,,,,1322.0329368610383,None,1324.05152564028,1325.53395092734,1325.5506282048214,None,1327.050934399661,None,n,1.3430069546193408,1329.0681752373748,None,1329.0681752373748,None,1329.0681752373748,None,None,None,None,None,1330.5349530195417,None,1330.5349530195417,None,right,1330.5349530195417,None,None,None,1331.7690933242684,None,1.2121891360388872,,,,,,,888,001,2019_Oct_30_1229,Test,3.1.2,59.9822959982262,
Pictures/IA75_G45.bmp,Pictures/IA75_G45.bmp,Pictures/IA75.bmp,"

"Don't gamble for this one."",0,safe,5,0,5,0,0,13,13,14,,,,,,,,,,,,,,,,,,,,,,,,,1332.4859997891317,None,1334.50756592053,1335.9870402917577,1336.0036681177617,None,1337.5383129208626,None,y,0.3850320019478204,1339.5379456114615,None,1339.5379456114615,None,1339.5379456114615,None,1340.0210597980326,None,1340.0210597980326,1341.021825829409,1342.0914858551669,None,1342.0914858551669,None,left,1342.0914858551669,None,1342.4222008519964,1344.0060514301585,None,None,0.31135458793096404,,,,,,,888,001,2019_Oct_30_1229,Test,3.1.2,59.9822959982262,
Pictures/IA25_L20.bmp,Pictures/IA25_L20.bmp,Pictures/IA25.bmp,"

"Don't be tempted to gamble."",0,safe,5,0,5,0,0,14,14,8,,,,,,,,,,,,,,,,,,,,,,,,,1344.022733372874,None,1346.0413305495367,1347.5237393527705,1347.5403681118214,None,1349.0407452182135,None,y,0.920693203967403,1351.0579711271798,None,1351.0579711271798,None,1351.0579711271798,None,1352.0748278606516,None,1352.0748278606516,1353.075388621744,1354.1585756481645,None,1354.1585756481645,None,left,1354.1585756481645,None,1354.459125554813,1356.0596039589796,None,None,0.276169395258421,,,,,,,888,001,2019_Oct_30_1229,Test,3.1.2,59.9822959982262,
Pictures/IA25_L5.bmp,Pictures/IA25_L5.bmp,Pictures/IA25.bmp,"

"It would be smarter to choose the safe option."",0,safe,5,0,5,0,0,15,15,1,,,,,,,,,,,,,,,,,,,,,,,,,1356.0762647526353,None,1358.097075427188,1359.5772934366696,1359.5938882950222,None,1361.0942277685285,None,y,0.2990113125697462,1363.1114493232767,None,1363.1114493232767,None,1363.1114493232767,None,1363.5123922603152,None,1363.5123922603152,1364.4954061443618,1365.5645091412148,None,1365.5645091412148,None,left,1365.5645091412148,None,1365.8957914304633,1367.4796140172234,None,None,0.3018956710675411,,,,,,,888,001,2019_Oct_30_1229,Test,3.1.2,59.9822959982262,
Pictures/IA80_40_G95p.bmp,Pictures/IA80_40_G95p.bmp,Pictures/IA80.bmp,"

"Think of the payoff, gamble!"",1,risk,5,0,5,0,0,16,16,19,,,,,,,,,,,,,,,,,,,,,,,,,1367.496307778531,None,1369.5179955170215,1370.9973109592875,1371.0139611784134,None,1372.5144160387003,None,y,0.5901791232035976,1374.54822903063,None,1374.54822903063,None,1374.54822903063,None,1375.2344307932794,None,1375.2344307932794,1376.2321578914139,1377.3153486500214,None,1377.3153486500214,None,left,1377.3153486500214,None,1377.6325043005681,1379.2164105505194,None,None,0.2949541143161696,,,,,,,888,001,2019_Oct_30_1229,Test,3.1.2,59.9822959982262,
Pictures/IA50_G10.bmp,Pictures/IA50_G10.bmp,Pictures/IA50.bmp,"

"Go with the safe option here!"",0,safe,5,0,5,0,0,17,17,17,,,,,,,,,,,,,,,,,,,,,,,,,1379.233078186518,None,1381.2554598007696,1382.7340956739913,1382.7507253660888,None,1384.2510424464735,None,y,1.108458597450408,1386.2696660594606,None,1386.2696660594606,None,1386.2696660594606,None,1387.4683185533545,None,1387.4683185533545,1388.4691418115976,1389.5522952483352,None,1389.5522952483352,None,right,1389.5522952483352,None,None,None,1390.7364435306117,None,1.1536497833931207,,,,,,,888,001,2019_Oct_30_1229,Test,3.1.2,59.9822959982262,
Pictures/IA100_G40.bmp,Pictures/IA100_G40.bmp,Pictures/IA100.bmp,"

"Try your luck and gamble!"",1,risk,5,0,5,0,0,18,18,13,,,,,,,,,,,,,,,,,,,,,,,,,1391.4700058128815,None,1393.4931145815613,1394.9710357409776,1394.987710219319,None,1396.488042850483,None,n,0.9335023806684148,1398.5082902758181,None,1398.5082902758181,None,1398.5082902758181,None,None,None,None,None,1399.5606808504285,None,1399.5606808504285,None,right,1399.5606808504285,None,None,None,1399.972457393198,1401.5062923117262,0.3932117117269627,,,,,,,888,001,2019_Oct_30_1229,Test,3.1.2,59.9822959982262,
Pictures/IA50_L10.bmp,Pictures/IA50_L10.bmp,Pictures/IA50.bmp,"

"Play it safe, don’t gamble!"",0,safe,5,0,5,0,0,19,19,18,,,,,,,,,,,,,,,,,,,,,,,,,1401.5229630578806,None,1403.5448367836884,1405.0239811673846,1405.0406522245548,None,1406.5409127001035,None,y,0.6099186600949906,1408.5597717518858,None,1408.5597717518858,None,1408.5597717518858,None,1409.2582651613097,None,1409.2582651613097,1410.2421816125725,1411.3086978928386,None,1411.3086978928386,None,right,1411.3086978928386,None,None,None,1411.8926794085605,1413.2264003709797,0.5569253372887033,,,,,,,888,001,2019_Oct_30_1229,Test,3.1.2,59.9822959982262,
