Choice,Choice2,Amount,AdviceVar1,GambleAdviceNum,GambleAdviceType,practice.thisRepN,practice.thisTrialN,practice.thisN,practice.thisIndex,trials_2.thisRepN,trials_2.thisTrialN,trials_2.thisN,trials_2.thisIndex,trials.thisRepN,trials.thisTrialN,trials.thisN,trials.thisIndex,text.started,text.stopped,instructions.started,instructions.stopped,space.keys,space.rt,space.started,space.stopped,chooseInst.started,chooseInst.stopped,Ad1.started,Ad1.stopped,Ad2.started,Ad2.stopped,key_resp_3.keys,key_resp_3.rt,key_resp_3.started,key_resp_3.stopped,Ad1pic.started,Ad1pic.stopped,Ad2pic.started,Ad2pic.stopped,enter.keys,enter.rt,enter.started,enter.stopped,iSi.started,iSi.stopped,receiveMoneyPicture.started,receiveMoneyPicture.stopped,ISI2.started,ISI2.stopped,ChoicePic.started,ChoicePic.stopped,response.keys,response.started,response.stopped,yesNo.started,yesNo.stopped,ask.started,ask.stopped,getAdv.started,getAdv.stopped,textForCode.started,textForCode.stopped,blank.started,blank.stopped,ChoicePic2.started,ChoicePic2.stopped,resp.keys,resp.started,resp.stopped,checkL1.started,checkL1.stopped,checkR1.started,checkR1.stopped,response.rt,EndPrac.started,EndPrac.stopped,participant,session,date,expName,psychopyVersion,frameRate,
,,,,,,,,,,,,,,,,,,14.650405100022908,None,22.624376100022346,None,space,3.0500768999918364,22.624376100022346,None,,,,,,,,,,,,,,,,,,,,,,,,,,,,,,,,,,,,,,,,,,,,,,,,,,,,987,001,2019_Nov_21_1058,Test,3.1.2,59.905564866782655,
,,,,,,,,,,,,,,,,,,,,,,,,,,34.84487979998812,None,34.84487979998812,None,34.84487979998812,None,right,0.9798403000459075,34.84487979998812,None,,,,,,,,,,,,,,,,,,,,,,,,,,,,,,,,,,,,,,,,,,987,001,2019_Nov_21_1058,Test,3.1.2,59.905564866782655,
,,,,,,,,,,,,,,,,,,,,,,,,,,,,,,,,,,,,34.84487979998812,None,34.84487979998812,None,return,1.7188240000396036,34.84487979998812,None,,,,,,,,,,,,,,,,,,,,,,,,,,,,,,,,,,987,001,2019_Nov_21_1058,Test,3.1.2,59.905564866782655,
Pictures/IA50_G10.bmp,Pictures/IA50_G10.bmp,Pictures/IA50.bmp,"

"Go with the safe option here!"",0,safe,0,0,0,0,,,,,,,,,,,,,,,,,,,,,,,,,,,,,,,,,,,36.60880950000137,None,38.97725180000998,40.10066499997629,40.121951500012074,None,41.650651999982074,None,None,45.45705899997847,None,45.45705899997847,None,45.45705899997847,None,None,None,None,None,47.77758779999567,None,47.77758779999567,None,None,47.77758779999567,None,None,None,None,None,,,,987,001,2019_Nov_21_1058,Test,3.1.2,59.905564866782655,
Pictures/IA50_G20.bmp,Pictures/IA50_G20.bmp,Pictures/IA50.bmp,"

"Let's venture and take a risk!"",1,risk,0,1,1,1,,,,,,,,,,,,,,,,,,,,,,,,,,,,,,,,,,,49.429177100013476,None,51.47748739999952,52.92343670001719,52.94466460001422,None,54.49880110000959,None,2,56.53683360002469,None,56.53683360002469,None,56.53683360002469,None,59.45415689999936,None,59.45415689999936,60.39468989998568,61.524297299969476,None,61.524297299969476,None,None,61.524297299969476,None,None,None,None,None,2.6482956999680027,,,987,001,2019_Nov_21_1058,Test,3.1.2,59.905564866782655,
Pictures/IA50_G30.bmp,Pictures/IA50_G30.bmp,Pictures/IA50.bmp,"

"I think you should gamble."",1,risk,0,2,2,2,,,,,,,,,,,,,,,,,,,,,,,,,,,,,,,,,,,63.40496090002125,None,65.45742160000373,66.90379110001959,66.92650090000825,None,68.47427880001487,None,2,70.53122730000177,None,70.53122730000177,None,70.53122730000177,None,71.31137760001002,None,71.31137760001002,72.28536540002096,73.43222680001054,None,73.43222680001054,None,None,73.43222680001054,None,None,None,None,None,0.6634793999837711,,,987,001,2019_Nov_21_1058,Test,3.1.2,59.905564866782655,
Pictures/IA50_G40.bmp,Pictures/IA50_G40.bmp,Pictures/IA50.bmp,"

"It would probably be best to play it safe."",0,safe,0,3,3,3,,,,,,,,,,,,,,,,,,,,,,,,,,,,,,,,,,,75.29121880000457,None,77.33259940001881,78.77758689998882,78.79927419999149,None,80.34327349998057,None,2,82.39214700000593,None,82.39214700000593,None,82.39214700000593,None,83.47903159999987,None,83.47903159999987,84.46331020002253,85.63102590001654,None,85.63102590001654,None,None,85.63102590001654,None,None,None,None,None,0.883198200026527,,,987,001,2019_Nov_21_1058,Test,3.1.2,59.905564866782655,
Pictures/IA100_G20.bmp,Pictures/IA100_G20.bmp,Pictures/IA100.bmp,"

"Go ahead and gamble!"",1,risk,0,4,4,4,,,,,,,,,,,,,,,,,,,,,,,,,,,,,,,,,,,87.46487239998532,None,89.53745459998026,90.95521460002055,90.97801660001278,None,92.53066029999172,None,2,94.56202620000113,None,94.56202620000113,None,94.56202620000113,None,95.47104839998065,None,95.47104839998065,96.43789220001781,97.5848092000233,None,97.5848092000233,None,None,97.5848092000233,None,None,None,None,None,0.7334649999975227,,,987,001,2019_Nov_21_1058,Test,3.1.2,59.905564866782655,
,,,,,,,,,,,,,,,,,,,,,,,,,,,,,,,,,,,,,,,,,,,,,,,,,,,,,,,,,,,,,,,,,,,,,,,,,,,99.44080929999473,None,,,,,,,
