Choice,Choice2,Amount,AdviceVar1,GambleAdviceNum,GambleAdviceType,practice.thisRepN,practice.thisTrialN,practice.thisN,practice.thisIndex,trials_2.thisRepN,trials_2.thisTrialN,trials_2.thisN,trials_2.thisIndex,trials.thisRepN,trials.thisTrialN,trials.thisN,trials.thisIndex,text.started,text.stopped,instructions.started,instructions.stopped,space.keys,space.rt,space.started,space.stopped,chooseInst.started,chooseInst.stopped,Ad1.started,Ad1.stopped,Ad2.started,Ad2.stopped,key_resp_3.keys,key_resp_3.rt,key_resp_3.started,key_resp_3.stopped,Ad1pic.started,Ad1pic.stopped,Ad2pic.started,Ad2pic.stopped,enter.keys,enter.rt,enter.started,enter.stopped,iSi.started,iSi.stopped,receiveMoneyPicture.started,receiveMoneyPicture.stopped,ISI2.started,ISI2.stopped,ChoicePic.started,ChoicePic.stopped,response.keys,response.rt,response.started,response.stopped,yesNo.started,yesNo.stopped,ask.started,ask.stopped,getAdv.started,getAdv.stopped,textForCode.started,textForCode.stopped,blank.started,blank.stopped,ChoicePic2.started,ChoicePic2.stopped,resp.keys,resp.started,resp.stopped,checkL1.started,checkL1.stopped,checkR1.started,checkR1.stopped,resp.rt,EndPrac.started,EndPrac.stopped,participant,session,date,expName,psychopyVersion,frameRate,
,,,,,,,,,,,,,,,,,,14.661178799986374,None,22.63497799995821,None,space,11.740434599982109,22.63497799995821,None,,,,,,,,,,,,,,,,,,,,,,,,,,,,,,,,,,,,,,,,,,,,,,,,,,,,,987,001,2019_Nov_21_1103,Test,3.1.2,59.80750357232887,
,,,,,,,,,,,,,,,,,,,,,,,,,,44.39438249997329,None,44.39438249997329,None,44.39438249997329,None,left,1.5626764000044204,44.39438249997329,None,,,,,,,,,,,,,,,,,,,,,,,,,,,,,,,,,,,,,,,,,,,987,001,2019_Nov_21_1103,Test,3.1.2,59.80750357232887,
,,,,,,,,,,,,,,,,,,,,,,,,,,,,,,,,,,,,44.39438249997329,None,44.39438249997329,None,return,3.181674199993722,44.39438249997329,None,,,,,,,,,,,,,,,,,,,,,,,,,,,,,,,,,,,987,001,2019_Nov_21_1103,Test,3.1.2,59.80750357232887,
Pictures/IA100_G20.bmp,Pictures/IA100_G20.bmp,Pictures/IA100.bmp,"

"Go ahead and gamble!"",1,risk,0,0,0,4,,,,,,,,,,,,,,,,,,,,,,,,,,,,,,,,,,,47.61386609997135,None,49.96947479998926,51.102218299987726,51.12415990000591,None,52.645961400005035,None,1,0.7679136000224389,56.27836309996201,None,56.27836309996201,None,56.27836309996201,None,58.14426219998859,None,58.14426219998859,59.06987939996179,60.546606399992015,None,60.546606399992015,None,None,60.546606399992015,None,None,None,None,None,,,,987,001,2019_Nov_21_1103,Test,3.1.2,59.80750357232887,
Pictures/IA50_G10.bmp,Pictures/IA50_G10.bmp,Pictures/IA50.bmp,"

"Go with the safe option here!"",0,safe,0,1,1,0,,,,,,,,,,,,,,,,,,,,,,,,,,,,,,,,,,,62.07097930001328,None,64.11264690000098,65.58190649998141,65.58190649998141,None,67.10249419999309,None,2,0.8393868999555707,69.18711860000622,None,69.18711860000622,None,69.18711860000622,None,None,None,None,None,70.28233829996316,None,70.28233829996316,None,right,70.28233829996316,None,None,None,71.34662570001092,None,1.024193399993237,,,987,001,2019_Nov_21_1103,Test,3.1.2,59.80750357232887,
Pictures/IA50_G40.bmp,Pictures/IA50_G40.bmp,Pictures/IA50.bmp,"

"It would probably be best to play it safe."",0,safe,0,2,2,3,,,,,,,,,,,,,,,,,,,,,,,,,,,,,,,,,,,72.20725269999821,None,74.25670909998007,75.72289390000515,75.72289390000515,None,77.24368509999476,None,1,0.4948729999596253,79.3730685999617,None,79.3730685999617,None,79.3730685999617,None,80.0298150999588,None,80.0298150999588,81.00271390000125,82.13053939997917,None,82.13053939997917,None,left,82.13053939997917,None,83.02058229997056,None,None,None,0.8569081000168808,,,987,001,2019_Nov_21_1103,Test,3.1.2,59.80750357232887,
Pictures/IA50_G20.bmp,Pictures/IA50_G20.bmp,Pictures/IA50.bmp,"

"Let's venture and take a risk!"",1,risk,0,3,3,1,,,,,,,,,,,,,,,,,,,,,,,,,,,,,,,,,,,84.02010859997245,None,86.06609879998723,87.50977919995785,87.53297910001129,None,89.05085319996579,None,1,0.8379200999625027,91.12957749998895,None,91.12957749998895,None,91.12957749998895,None,92.16776390001178,None,92.16776390001178,93.12763110001106,94.31144369998947,None,94.31144369998947,None,right,94.31144369998947,None,None,None,95.07843319996027,96.12005430000136,0.7258375000092201,,,987,001,2019_Nov_21_1103,Test,3.1.2,59.80750357232887,
Pictures/IA50_G30.bmp,Pictures/IA50_G30.bmp,Pictures/IA50.bmp,"

"I think you should gamble."",1,risk,0,4,4,2,,,,,,,,,,,,,,,,,,,,,,,,,,,,,,,,,,,96.14037049998296,None,98.18965989997378,99.63525130000198,99.66213409998454,None,101.17652330000419,None,2,0.9622151000075974,103.25506910000695,None,103.25506910000695,None,103.25506910000695,None,None,None,None,None,104.44680889998563,None,104.44680889998563,None,left,104.44680889998563,None,105.42234270001063,None,None,None,0.9304577000439167,,,987,001,2019_Nov_21_1103,Test,3.1.2,59.80750357232887,
,,,,,,,,,,,,,,,,,,,,,,,,,,,,,,,,,,,,,,,,,,,,,,,,,,,,,,,,,,,,,,,,,,,,,,,,,,,,106.34355729998788,None,,,,,,,
