Choice,Choice2,Amount,AdviceVar1,GambleAdviceNum,GambleAdviceType,practice.thisRepN,practice.thisTrialN,practice.thisN,practice.thisIndex,text.started,text.stopped,instructions.started,instructions.stopped,space.keys,space.rt,space.started,space.stopped,chooseInst.started,chooseInst.stopped,Ad1.started,Ad1.stopped,Ad2.started,Ad2.stopped,key_resp_3.keys,key_resp_3.rt,key_resp_3.started,key_resp_3.stopped,Ad1pic.started,Ad1pic.stopped,Ad2pic.started,Ad2pic.stopped,enter.keys,enter.rt,enter.started,enter.stopped,iSi.started,iSi.stopped,receiveMoneyPicture.started,receiveMoneyPicture.stopped,ISI2.started,ISI2.stopped,ChoicePic.started,ChoicePic.stopped,response.keys,response.rt,response.started,response.stopped,yesNo.started,yesNo.stopped,ask.started,ask.stopped,getAdv.started,getAdv.stopped,textForCode.started,textForCode.stopped,blank.started,blank.stopped,ChoicePic2.started,ChoicePic2.stopped,resp.keys,resp.started,resp.stopped,checkL1.started,checkL1.stopped,checkR1.started,checkR1.stopped,participant,session,age,gender (0=male, 1 = female, 2 = other),date,expName,psychopyVersion,frameRate,
,,,,,,,,,,13.024315480026416,None,21.0234382560011,None,space,34.34651015501004,21.0234382560011,None,,,,,,,,,,,,,,,,,,,,,,,,,,,,,,,,,,,,,,,,,,,,,,,,,,999,001,8,1,2019_Nov_27_1517,Test,3.1.5,60.19096512488499,
,,,,,,,,,,,,,,,,,,55.62970964401029,None,55.62970964401029,None,55.62970964401029,None,right,0.27627860801294446,55.62970964401029,None,,,,,,,,,,,,,,,,,,,,,,,,,,,,,,,,,,,,,,,,999,001,8,1,2019_Nov_27_1517,Test,3.1.5,60.19096512488499,
,,,,,,,,,,,,,,,,,,,,,,,,,,,,55.62970964401029,None,55.62970964401029,None,return,0.6522346609854139,55.62970964401029,None,,,,,,,,,,,,,,,,,,,,,,,,,,,,,,,,999,001,8,1,2019_Nov_27_1517,Test,3.1.5,60.19096512488499,
Pictures/IA50_G20.bmp,Pictures/IA50_G20.bmp,Pictures/IA50.bmp,"

"Let's venture and take a risk!"",1,risk,0,0,0,1,,,,,,,,,,,,,,,,,,,,,,,,,,,56.3468874990358,None,58.36474569799611,59.83032942499267,59.8461125260219,None,61.34725094400346,None,2,1.1657129089580849,63.37828952103155,None,63.37828952103155,None,63.37828952103155,None,None,None,None,None,64.70208638801705,None,64.70208638801705,None,None,64.70208638801705,None,None,None,None,None,999,001,8,1,2019_Nov_27_1517,Test,3.1.5,60.19096512488499,
Pictures/IA100_G20.bmp,Pictures/IA100_G20.bmp,Pictures/IA100.bmp,"

"Go ahead and gamble!"",1,risk,0,1,1,4,,,,,,,,,,,,,,,,,,,,,,,,,,,66.58044447103748,None,68.5990490320255,70.08145027101273,70.09666860499419,None,71.61628854001174,None,None,,73.61746770498576,None,73.61746770498576,None,73.61746770498576,None,None,None,None,None,76.686419012025,None,76.686419012025,None,None,76.686419012025,None,None,None,None,None,999,001,8,1,2019_Nov_27_1517,Test,3.1.5,60.19096512488499,
Pictures/IA50_G40.bmp,Pictures/IA50_G40.bmp,Pictures/IA50.bmp,"

"It would probably be best to play it safe."",0,safe,0,2,2,3,,,,,,,,,,,,,,,,,,,,,,,,,,,78.5991310509853,None,80.618078236992,82.10107130499091,82.1170506849885,None,83.65373922901927,None,1,1.3140085869817995,85.63330109301023,None,85.63330109301023,None,85.63330109301023,None,87.00133027503034,None,87.00133027503034,88.00224528601393,89.08730653004022,None,89.08730653004022,None,None,89.08730653004022,None,None,None,None,None,999,001,8,1,2019_Nov_27_1517,Test,3.1.5,60.19096512488499,
Pictures/IA100_G40.bmp,Pictures/IA100_G40.bmp,Pictures/IA100.bmp,"

"Try your luck and gamble!"",1,risk,0,3,3,5,,,,,,,,,,,,,,,,,,,,,,,,,,,91.0012099010055,None,93.02004159399075,94.5020955450018,94.51784485101234,None,96.03558061900549,None,None,,98.03575220500352,None,98.03575220500352,None,98.03575220500352,None,None,None,None,None,101.1049927760032,None,101.1049927760032,None,None,101.1049927760032,None,None,None,None,None,999,001,8,1,2019_Nov_27_1517,Test,3.1.5,60.19096512488499,
Pictures/IA50_G30.bmp,Pictures/IA50_G30.bmp,Pictures/IA50.bmp,"

"I think you should gamble."",1,risk,0,4,4,2,,,,,,,,,,,,,,,,,,,,,,,,,,,103.02026935602771,None,105.03740659402683,106.52258259302471,106.5353208570159,None,108.05680046300404,None,None,,110.05355503200553,None,110.05355503200553,None,110.05355503200553,None,None,None,None,None,113.1255991620128,None,113.1255991620128,None,None,113.1255991620128,None,None,None,None,None,999,001,8,1,2019_Nov_27_1517,Test,3.1.5,60.19096512488499,
Pictures/IA50_G10.bmp,Pictures/IA50_G10.bmp,Pictures/IA50.bmp,"

"Go with the safe option here!"",0,safe,0,5,5,0,,,,,,,,,,,,,,,,,,,,,,,,,,,115.03982989001088,None,117.05710881302366,118.5390330189839,118.55484953703126,None,120.07405365502927,None,None,,122.0747953300015,None,122.0747953300015,None,122.0747953300015,None,None,None,None,None,125.14069658302469,None,125.14069658302469,None,None,125.14069658302469,None,None,None,None,None,999,001,8,1,2019_Nov_27_1517,Test,3.1.5,60.19096512488499,
