Choice,Choice2,Amount,AdviceVar1,GambleAdviceNum,GambleAdviceType,trials_2.thisRepN,trials_2.thisTrialN,trials_2.thisN,trials_2.thisIndex,trials.thisRepN,trials.thisTrialN,trials.thisN,trials.thisIndex,instructions.started,instructions.stopped,space.keys,space.rt,space.started,space.stopped,chooseInst.started,chooseInst.stopped,Ad1.started,Ad1.stopped,Ad2.started,Ad2.stopped,key_resp_3.keys,key_resp_3.rt,key_resp_3.started,key_resp_3.stopped,Ad1pic.started,Ad1pic.stopped,Ad2pic.started,Ad2pic.stopped,enter.keys,enter.rt,enter.started,enter.stopped,iSi.started,iSi.stopped,receiveMoneyPicture.started,receiveMoneyPicture.stopped,ISI2.started,ISI2.stopped,ChoicePic.started,ChoicePic.stopped,response.keys,response.rt,response.started,response.stopped,yesNo.started,yesNo.stopped,ask.started,ask.stopped,getAdv.started,getAdv.stopped,textForCode.started,textForCode.stopped,blank.started,blank.stopped,ChoicePic2.started,ChoicePic2.stopped,resp.keys,resp.started,resp.stopped,checkL1.started,checkL1.stopped,checkR1.started,checkR1.stopped,endText.started,endText.stopped,key_resp_2.keys,key_resp_2.rt,key_resp_2.started,key_resp_2.stopped,participant,session,date,expName,psychopyVersion,frameRate,
,,,,,,,,,,,,,,7.104231502045877,None,space,0.26842704496812075,7.104231502045877,None,,,,,,,,,,,,,,,,,,,,,,,,,,,,,,,,,,,,,,,,,,,,,,,,,,,,,,,,999,001,2019_Sep_09_2259,Test,3.1.5,59.81849822201949,
Pictures/IA50_G20.bmp,Pictures/IA50_G20.bmp,Pictures/IA50.bmp,"

"Let's venture and take a risk!"",1,risk,0,0,0,0,0,0,0,15,,,,,,,7.635896518011577,None,7.635896518011577,None,7.635896518011577,None,right,0.6487473389715888,7.635896518011577,None,7.635896518011577,None,7.635896518011577,None,return,1.1527333710109815,7.635896518011577,None,8.836309969017748,None,10.87367969303159,12.835976070025936,12.853108167997561,None,14.372435465047602,None,y,1.6512700410094112,16.402931346034165,None,16.402931346034165,None,16.402931346034165,None,18.123134599009063,None,18.123134599009063,19.105639994028024,20.205872602004092,None,20.205872602004092,None,None,20.205872602004092,None,None,None,None,None,,,,,,,999,001,2019_Sep_09_2259,Test,3.1.5,59.81849822201949,
Pictures/IA75_L45.bmp,Pictures/IA75_L45.bmp,Pictures/IA75.bmp,"

"Don't gamble for this one, play it safe."",0,safe,0,0,0,0,0,1,1,9,,,,,,,,,,,,,,,,,,,,,,,,,22.104194269049913,None,24.12346128403442,26.10677922103787,26.121763336006552,None,27.64126337005291,None,None,,29.641043757030275,None,29.641043757030275,None,29.641043757030275,None,None,None,None,None,32.72865783103043,None,32.72865783103043,None,None,32.72865783103043,None,None,None,None,None,,,,,,,999,001,2019_Sep_09_2259,Test,3.1.5,59.81849822201949,
Pictures/IA75_L60.bmp,Pictures/IA75_L60.bmp,Pictures/IA75.bmp,"

"Why not take the gamble?"",1,risk,0,0,0,0,0,2,2,19,,,,,,,,,,,,,,,,,,,,,,,,,34.62292831100058,None,36.6421692740405,38.626881213043816,38.64016246504616,None,40.15912415803177,None,None,,42.15967237402219,None,42.15967237402219,None,42.15967237402219,None,None,None,None,None,45.22647620504722,None,45.22647620504722,None,None,45.22647620504722,None,None,None,None,None,,,,,,,999,001,2019_Sep_09_2259,Test,3.1.5,59.81849822201949,
Pictures/IA100_L40.bmp,Pictures/IA100_L40.bmp,Pictures/IA100.bmp,"

"Think of the payoff, gamble!"",1,risk,0,0,0,0,0,3,3,13,,,,,,,,,,,,,,,,,,,,,,,,,47.142813090002164,None,49.16145359404618,51.142008016002364,51.15900342504028,None,52.677658200031146,None,None,,54.67603706300724,None,54.67603706300724,None,54.67603706300724,None,None,None,None,None,57.74546471401118,None,57.74546471401118,None,None,57.74546471401118,None,None,None,None,None,,,,,,,999,001,2019_Sep_09_2259,Test,3.1.5,59.81849822201949,
Pictures/IA75_G15.bmp,Pictures/IA75_G15.bmp,Pictures/IA75.bmp,"

"Take a chance!"",1,risk,0,0,0,0,0,4,4,10,,,,,,,,,,,,,,,,,,,,,,,,,59.66180833202088,None,61.68054760200903,63.66205514204921,63.679147943039425,None,65.1976646539988,None,None,,67.19799360603793,None,67.19799360603793,None,67.19799360603793,None,None,None,None,None,70.26299686904531,None,70.26299686904531,None,None,70.26299686904531,None,None,None,None,None,,,,,,,999,001,2019_Sep_09_2259,Test,3.1.5,59.81849822201949,
Pictures/IA75_G60.bmp,Pictures/IA75_G60.bmp,Pictures/IA75.bmp,"

"Make it exciting, take a chance!"",1,risk,0,0,0,0,0,5,5,17,,,,,,,,,,,,,,,,,,,,,,,,,72.17965553799877,None,74.19749793299707,76.18155398702947,76.1969660850009,None,77.8176534009981,None,None,,79.71642218902707,None,79.71642218902707,None,79.71642218902707,None,None,None,None,None,82.7833125940524,None,82.7833125940524,None,None,82.7833125940524,None,None,None,None,None,,,,,,,999,001,2019_Sep_09_2259,Test,3.1.5,59.81849822201949,
Pictures/IA40_20_L95p.bmp,Pictures/IA40_20_L95p.bmp,Pictures/IA40.bmp,"

"Trust me, gamble!"",1,risk,0,0,0,0,0,6,6,8,,,,,,,,,,,,,,,,,,,,,,,,,84.70108310802607,None,86.71855353901628,88.69895254902076,88.69895254902076,None,90.23571193905082,None,None,,92.23457384505309,None,92.23457384505309,None,92.23457384505309,None,None,None,None,None,95.30109653505497,None,95.30109653505497,None,None,95.30109653505497,None,None,None,None,None,,,,,,,999,001,2019_Sep_09_2259,Test,3.1.5,59.81849822201949,
Pictures/IA80_40_G95p.bmp,Pictures/IA80_40_G95p.bmp,Pictures/IA80.bmp,"

"Think of the payoff, gamble!"",1,risk,0,0,0,0,0,7,7,7,,,,,,,,,,,,,,,,,,,,,,,,,97.2180867640418,None,99.2354553680052,101.21918260300299,101.23408972105244,None,102.75370986200869,None,None,,104.75447697902564,None,104.75447697902564,None,104.75447697902564,None,None,None,None,None,107.82289894600399,None,107.82289894600399,None,None,107.82289894600399,None,None,None,None,None,,,,,,,999,001,2019_Sep_09_2259,Test,3.1.5,59.81849822201949,
Pictures/IA80_40_L95p.bmp,Pictures/IA80_40_L95p.bmp,Pictures/IA80.bmp,"

"Let's stay with the certain option."",0,safe,0,0,0,0,0,8,8,6,,,,,,,,,,,,,,,,,,,,,,,,,109.73623990704073,None,111.75646407902241,113.73688062903238,113.75222818303155,None,115.27268359804293,None,None,,117.27213985600974,None,117.27213985600974,None,117.27213985600974,None,None,None,None,None,120.33838583499892,None,120.33838583499892,None,None,120.33838583499892,None,None,None,None,None,,,,,,,999,001,2019_Sep_09_2259,Test,3.1.5,59.81849822201949,
Pictures/IA75_G30.bmp,Pictures/IA75_G30.bmp,Pictures/IA75.bmp,"

"Be bold, gamble!"",1,risk,0,0,0,0,0,9,9,2,,,,,,,,,,,,,,,,,,,,,,,,,122.25617441401118,None,124.27454527304508,126.25608156603994,126.27223680604948,None,127.77448200405343,None,None,,129.79185503703775,None,129.79185503703775,None,129.79185503703775,None,None,None,None,None,132.84188809501939,None,132.84188809501939,None,None,132.84188809501939,None,None,None,None,None,,,,,,,999,001,2019_Sep_09_2259,Test,3.1.5,59.81849822201949,
Pictures/IA25_L15.bmp,Pictures/IA25_L15.bmp,Pictures/IA25.bmp,"

"There's not much on the line here, gamble!"",1,risk,0,0,0,0,0,10,10,14,,,,,,,,,,,,,,,,,,,,,,,,,134.77391124004498,None,136.79129617201397,138.77669334900565,138.78892161004478,None,140.31017824501032,None,None,,142.3090692750411,None,142.3090692750411,None,142.3090692750411,None,None,None,None,None,145.3752581900335,None,145.3752581900335,None,None,145.3752581900335,None,None,None,None,None,,,,,,,999,001,2019_Sep_09_2259,Test,3.1.5,59.81849822201949,
Pictures/IA50_L20.bmp,Pictures/IA50_L20.bmp,Pictures/IA50.bmp,"

"Certainty is boring, take a risk!"",1,risk,0,0,0,0,0,11,11,16,,,,,,,,,,,,,,,,,,,,,,,,,147.29258407303132,None,149.30980754405027,151.29343743401114,151.30969862104394,None,152.8282363380422,None,None,,154.82858519803267,None,154.82858519803267,None,154.82858519803267,None,None,None,None,None,157.89835125900572,None,157.89835125900572,None,None,157.89835125900572,None,None,None,None,None,,,,,,,999,001,2019_Sep_09_2259,Test,3.1.5,59.81849822201949,
Pictures/IA100_G80.bmp,Pictures/IA100_G80.bmp,Pictures/IA100.bmp,"

"Why not gamble?"",1,risk,0,0,0,0,0,12,12,11,,,,,,,,,,,,,,,,,,,,,,,,,159.81081390602048,None,161.82849614304723,163.81111568701454,163.81111568701454,None,165.33213143702596,None,None,,167.3471277320059,None,167.3471277320059,None,167.3471277320059,None,None,None,None,None,170.41696352802683,None,170.41696352802683,None,None,170.41696352802683,None,None,None,None,None,,,,,,,999,001,2019_Sep_09_2259,Test,3.1.5,59.81849822201949,
Pictures/IA110_55_L95p.bmp,Pictures/IA110_55_L95p.bmp,Pictures/IA110.bmp,"

"Trust me, gamble!"",1,risk,0,0,0,0,0,13,13,0,,,,,,,,,,,,,,,,,,,,,,,,,172.32939309900394,None,174.3469878830365,176.32973797101295,176.34615649003536,None,177.85024980001617,None,None,,179.86603772104718,None,179.86603772104718,None,179.86603772104718,None,None,None,None,None,182.93484514800366,None,182.93484514800366,None,None,182.93484514800366,None,None,None,None,None,,,,,,,999,001,2019_Sep_09_2259,Test,3.1.5,59.81849822201949,
Pictures/IA25_L5.bmp,Pictures/IA25_L5.bmp,Pictures/IA25.bmp,"

"It would be smarter to choose the safe option."",0,safe,0,0,0,0,0,14,14,18,,,,,,,,,,,,,,,,,,,,,,,,,184.8496917450102,None,186.86687868303852,188.84989454899915,188.86515521403635,None,190.38585237204097,None,None,,192.3826392730116,None,192.3826392730116,None,192.3826392730116,None,None,None,None,None,195.45403063105186,None,195.45403063105186,None,None,195.45403063105186,None,None,None,None,None,,,,,,,999,001,2019_Sep_09_2259,Test,3.1.5,59.81849822201949,
Pictures/IA100_L60.bmp,Pictures/IA100_L60.bmp,Pictures/IA100.bmp,"

"You'd have a lot to lose, don't gamble."",0,safe,0,0,0,0,0,15,15,5,,,,,,,,,,,,,,,,,,,,,,,,,197.3686386870104,None,199.38620461104438,201.36799864302156,201.38361448905198,None,202.9049518040265,None,None,,204.90292897302425,None,204.90292897302425,None,204.90292897302425,None,None,None,None,None,207.9712568920222,None,207.9712568920222,None,None,207.9712568920222,None,None,None,None,None,,,,,,,999,001,2019_Sep_09_2259,Test,3.1.5,59.81849822201949,
Pictures/IA20_10_L95p.bmp,Pictures/IA20_10_L95p.bmp,Pictures/IA20.bmp,"

"Don't be tempted to gamble."",0,safe,0,0,0,0,0,16,16,3,,,,,,,,,,,,,,,,,,,,,,,,,209.88713559001917,None,211.90421269700164,213.88867542601656,213.90093155601062,None,215.42194694501814,None,None,,217.4220947100548,None,217.4220947100548,None,217.4220947100548,None,None,None,None,None,220.4879181740107,None,220.4879181740107,None,None,220.4879181740107,None,None,None,None,None,,,,,,,999,001,2019_Sep_09_2259,Test,3.1.5,59.81849822201949,
Pictures/IA25_G5.bmp,Pictures/IA25_G5.bmp,Pictures/IA25.bmp,"

"Let's stay with the certain option."",0,safe,0,0,0,0,0,17,17,1,,,,,,,,,,,,,,,,,,,,,,,,,222.38814330805326,None,224.40624563902384,226.3901353670517,226.40351499902317,None,227.92347089300165,None,None,,229.92359849601053,None,229.92359849601053,None,229.92359849601053,None,None,None,None,None,232.99303307104856,None,232.99303307104856,None,None,232.99303307104856,None,None,None,None,None,,,,,,,999,001,2019_Sep_09_2259,Test,3.1.5,59.81849822201949,
Pictures/IA50_L30.bmp,Pictures/IA50_L30.bmp,Pictures/IA50.bmp,"

"Take a leap, I think you should gamble."",1,risk,0,0,0,0,0,18,18,4,,,,,,,,,,,,,,,,,,,,,,,,,234.8878221460036,None,236.9083103890298,238.89094221103005,238.90602051402675,None,240.42544071003795,None,None,,242.42692787200212,None,242.42692787200212,None,242.42692787200212,None,None,None,None,None,245.49575690703932,None,245.49575690703932,None,None,245.49575690703932,None,None,None,None,None,,,,,,,999,001,2019_Sep_09_2259,Test,3.1.5,59.81849822201949,
Pictures/IA25_G20.bmp,Pictures/IA25_G20.bmp,Pictures/IA25.bmp,"

"I wouldn't gamble for this one. "",0,safe,0,0,0,0,0,19,19,12,,,,,,,,,,,,,,,,,,,,,,,,,247.40731321903877,None,249.42798394500278,251.40874405001523,251.42513160401722,None,252.9450760280015,None,None,,254.94516456202837,None,254.94516456202837,None,254.94516456202837,None,None,None,None,None,258.01015220500994,None,258.01015220500994,None,None,258.01015220500994,None,None,None,None,None,,,,,,,999,001,2019_Sep_09_2259,Test,3.1.5,59.81849822201949,
,,,,,,0,0,0,0,,,,,,,,,,,,,,,,,,,,,,,,,,,,,,,,,,,,,,,,,,,,,,,,,,,,,,,,,,,,260.0085848630406,None,return,108.98819010105217,260.0085848630406,None,999,001,2019_Sep_09_2259,Test,3.1.5,59.81849822201949,
Pictures/IA100_L80.bmp,Pictures/IA100_L80.bmp,Pictures/IA100.bmp,"

"Go all in!"",1,risk,1,0,1,0,0,0,0,17,,,,,,,369.1313510040054,None,369.1313510040054,None,369.1313510040054,None,right,4.451386486995034,369.1313510040054,None,369.1313510040054,None,369.1313510040054,None,return,5.211565006989986,369.1313510040054,None,374.3806897519971,None,376.3984172330238,378.37997180002276,378.39644350501476,None,379.89981966104824,None,None,,381.91340563003905,None,381.91340563003905,None,381.91340563003905,None,None,None,None,None,384.98485825100215,None,384.98485825100215,None,None,384.98485825100215,None,None,None,None,None,,,,,,,999,001,2019_Sep_09_2259,Test,3.1.5,59.81849822201949,
Pictures/IA80_40_G95p.bmp,Pictures/IA80_40_G95p.bmp,Pictures/IA80.bmp,"

"Think of the payoff, gamble!"",1,risk,1,0,1,0,0,1,1,16,,,,,,,,,,,,,,,,,,,,,,,,,386.8978176500532,None,388.9158574200119,390.8992080690223,390.9141751200077,None,392.4196094520157,None,None,,394.4349345310475,None,394.4349345310475,None,394.4349345310475,None,None,None,None,None,397.50356156902853,None,397.50356156902853,None,None,397.50356156902853,None,None,None,None,None,,,,,,,999,001,2019_Sep_09_2259,Test,3.1.5,59.81849822201949,
Pictures/IA25_G15.bmp,Pictures/IA25_G15.bmp,Pictures/IA25.bmp,"

"I think you should take a gamble."",1,risk,1,0,1,0,0,2,2,3,,,,,,,,,,,,,,,,,,,,,,,,,399.41940209903987,None,401.4351065720548,403.4173081050394,403.4173081050394,None,404.9526261840365,None,None,,406.95005689101527,None,406.95005689101527,None,406.95005689101527,None,None,None,None,None,410.02242650603876,None,410.02242650603876,None,None,410.02242650603876,None,None,None,None,None,,,,,,,999,001,2019_Sep_09_2259,Test,3.1.5,59.81849822201949,
Pictures/IA75_G45.bmp,Pictures/IA75_G45.bmp,Pictures/IA75.bmp,"

"Don't gamble for this one."",0,safe,1,0,1,0,0,3,3,19,,,,,,,,,,,,,,,,,,,,,,,,,411.93562310002744,None,413.9539036930073,415.937018238008,415.9514294870314,None,417.47207843203796,None,None,,419.4713633120409,None,419.4713633120409,None,419.4713633120409,None,None,None,None,None,422.53760506102117,None,422.53760506102117,None,None,422.53760506102117,None,None,None,None,None,,,,,,,999,001,2019_Sep_09_2259,Test,3.1.5,59.81849822201949,
Pictures/IA110_55_L95p.bmp,Pictures/IA110_55_L95p.bmp,Pictures/IA110.bmp,"

"Trust me, gamble!"",1,risk,1,0,1,0,0,4,4,5,,,,,,,,,,,,,,,,,,,,,,,,,424.45420635701157,None,426.4717213770491,428.4551305930363,428.4706334080547,None,429.9755651029991,None,None,,431.9897995190113,None,431.9897995190113,None,431.9897995190113,None,None,None,None,None,435.0582168730325,None,435.0582168730325,None,None,435.0582168730325,None,None,None,None,None,,,,,,,999,001,2019_Sep_09_2259,Test,3.1.5,59.81849822201949,
Pictures/IA75_G30.bmp,Pictures/IA75_G30.bmp,Pictures/IA75.bmp,"

"Be bold, gamble!"",1,risk,1,0,1,0,0,5,5,6,,,,,,,,,,,,,,,,,,,,,,,,,436.9721939670271,None,438.9916088520549,440.9742374110501,440.9897532060277,None,442.4935631440021,None,None,,444.50987326999893,None,444.50987326999893,None,444.50987326999893,None,None,None,None,None,447.57881958503276,None,447.57881958503276,None,None,447.57881958503276,None,None,None,None,None,,,,,,,999,001,2019_Sep_09_2259,Test,3.1.5,59.81849822201949,
Pictures/IA75_G15.bmp,Pictures/IA75_G15.bmp,Pictures/IA75.bmp,"

"Take a chance!"",1,risk,1,0,1,0,0,6,6,18,,,,,,,,,,,,,,,,,,,,,,,,,449.47483329602983,None,451.49351539602503,453.47831224801484,453.4912059500348,None,455.01243304205127,None,None,,457.01057878200663,None,457.01057878200663,None,457.01057878200663,None,None,None,None,None,460.0768912110361,None,460.0768912110361,None,None,460.0768912110361,None,None,None,None,None,,,,,,,999,001,2019_Sep_09_2259,Test,3.1.5,59.81849822201949,
Pictures/IA75_G60.bmp,Pictures/IA75_G60.bmp,Pictures/IA75.bmp,"

"Make it exciting, take a chance!"",1,risk,1,0,1,0,0,7,7,2,,,,,,,,,,,,,,,,,,,,,,,,,461.99327173101483,None,464.01155550801195,465.9950786930276,466.0106747240061,None,467.5298079640488,None,None,,469.53061169205466,None,469.53061169205466,None,469.53061169205466,None,None,None,None,None,472.5990729590412,None,472.5990729590412,None,None,472.5990729590412,None,None,None,None,None,,,,,,,999,001,2019_Sep_09_2259,Test,3.1.5,59.81849822201949,
Pictures/IA25_L20.bmp,Pictures/IA25_L20.bmp,Pictures/IA25.bmp,"

"Don't be tempted to gamble."",0,safe,1,0,1,0,0,8,8,9,,,,,,,,,,,,,,,,,,,,,,,,,474.51210222701775,None,476.5311016040505,478.5127778990427,478.5127778990427,None,480.04889358603396,None,None,,482.04799313104013,None,482.04799313104013,None,482.04799313104013,None,None,None,None,None,485.1165669950424,None,485.1165669950424,None,None,485.1165669950424,None,None,None,None,None,,,,,,,999,001,2019_Sep_09_2259,Test,3.1.5,59.81849822201949,
Pictures/IA50_L20.bmp,Pictures/IA50_L20.bmp,Pictures/IA50.bmp,"

"Certainty is boring, take a risk!"",1,risk,1,0,1,0,0,9,9,14,,,,,,,,,,,,,,,,,,,,,,,,,487.03075515601085,None,489.05101018503774,491.03158659901237,491.04759238200495,None,492.548961912049,None,None,,494.5666691940278,None,494.5666691940278,None,494.5666691940278,None,None,None,None,None,497.6334105550195,None,497.6334105550195,None,None,497.6334105550195,None,None,None,None,None,,,,,,,999,001,2019_Sep_09_2259,Test,3.1.5,59.81849822201949,
Pictures/IA20_10_G95p.bmp,Pictures/IA20_10_G95p.bmp,Pictures/IA20.bmp,"

"Take a leap, I think you should gamble."",1,risk,1,0,1,0,0,10,10,10,,,,,,,,,,,,,,,,,,,,,,,,,499.55007486004615,None,501.56746702903183,503.5513833340374,503.56582584802527,None,505.08609972300474,None,None,,507.0851776880445,None,507.0851776880445,None,507.0851776880445,None,None,None,None,None,510.15536448999774,None,510.15536448999774,None,None,510.15536448999774,None,None,None,None,None,,,,,,,999,001,2019_Sep_09_2259,Test,3.1.5,59.81849822201949,
Pictures/IA100_L60.bmp,Pictures/IA100_L60.bmp,Pictures/IA100.bmp,"

"You'd have a lot to lose, don't gamble."",0,safe,1,0,1,0,0,11,11,13,,,,,,,,,,,,,,,,,,,,,,,,,512.0680874790414,None,514.0870737330406,516.0695736610214,516.0856060030055,None,517.6050645210198,None,None,,519.6035264800303,None,519.6035264800303,None,519.6035264800303,None,None,None,None,None,522.6703285340336,None,522.6703285340336,None,None,522.6703285340336,None,None,None,None,None,,,,,,,999,001,2019_Sep_09_2259,Test,3.1.5,59.81849822201949,
Pictures/IA40_20_G95p.bmp,Pictures/IA40_20_G95p.bmp,Pictures/IA40.bmp,"

"Hold back, stay with the safe choice."",0,safe,1,0,1,0,0,12,12,1,,,,,,,,,,,,,,,,,,,,,,,,,524.5875434930203,None,526.6052065530093,528.5877810430247,528.6043083120021,None,530.1245833780267,None,None,,532.1214601310203,None,532.1214601310203,None,532.1214601310203,None,None,None,None,None,535.189876857039,None,535.189876857039,None,None,535.189876857039,None,None,None,None,None,,,,,,,999,001,2019_Sep_09_2259,Test,3.1.5,59.81849822201949,
Pictures/IA50_L10.bmp,Pictures/IA50_L10.bmp,Pictures/IA50.bmp,"

"Play it safe, don’t gamble!"",0,safe,1,0,1,0,0,13,13,7,,,,,,,,,,,,,,,,,,,,,,,,,537.1070739389979,None,539.1250118520111,541.1060912050307,541.1219718590146,None,542.625137244002,None,None,,544.6412443750305,None,544.6412443750305,None,544.6412443750305,None,None,None,None,None,547.7084370910306,None,547.7084370910306,None,None,547.7084370910306,None,None,None,None,None,,,,,,,999,001,2019_Sep_09_2259,Test,3.1.5,59.81849822201949,
Pictures/IA50_G10.bmp,Pictures/IA50_G10.bmp,Pictures/IA50.bmp,"

"Go with the safe option here!"",0,safe,1,0,1,0,0,14,14,11,,,,,,,,,,,,,,,,,,,,,,,,,549.6250075990101,None,551.6425288300379,553.6263626480359,553.6415275650215,None,555.1601940600085,None,None,,557.1604841680382,None,557.1604841680382,None,557.1604841680382,None,None,None,None,None,560.2299733190448,None,560.2299733190448,None,None,560.2299733190448,None,None,None,None,None,,,,,,,999,001,2019_Sep_09_2259,Test,3.1.5,59.81849822201949,
Pictures/IA20_10_L95p.bmp,Pictures/IA20_10_L95p.bmp,Pictures/IA20.bmp,"

"Don't be tempted to gamble."",0,safe,1,0,1,0,0,15,15,4,,,,,,,,,,,,,,,,,,,,,,,,,562.1433055400266,None,564.1621774079977,566.1450050990097,566.1601390050491,None,567.6792323230184,None,None,,569.6753393100225,None,569.6753393100225,None,569.6753393100225,None,None,None,None,None,572.7486801590421,None,572.7486801590421,None,None,572.7486801590421,None,None,None,None,None,,,,,,,999,001,2019_Sep_09_2259,Test,3.1.5,59.81849822201949,
Pictures/IA100_G20.bmp,Pictures/IA100_G20.bmp,Pictures/IA100.bmp,"

"Go ahead and gamble!"",1,risk,1,0,1,0,0,16,16,0,,,,,,,,,,,,,,,,,,,,,,,,,574.6451877780491,None,576.6635331280413,578.6473255890305,578.661453606037,None,580.1814339690027,None,None,,582.1799371720408,None,582.1799371720408,None,582.1799371720408,None,None,None,None,None,585.251039816998,None,585.251039816998,None,None,585.251039816998,None,None,None,None,None,,,,,,,999,001,2019_Sep_09_2259,Test,3.1.5,59.81849822201949,
Pictures/IA25_L5.bmp,Pictures/IA25_L5.bmp,Pictures/IA25.bmp,"

"It would be smarter to choose the safe option."",0,safe,1,0,1,0,0,17,17,15,,,,,,,,,,,,,,,,,,,,,,,,,587.1654598220484,None,589.1821730180527,591.1645128520322,591.181316301052,None,592.7018408970325,None,None,,594.7015621530009,None,594.7015621530009,None,594.7015621530009,None,None,None,None,None,597.7658622680465,None,597.7658622680465,None,None,597.7658622680465,None,None,None,None,None,,,,,,,999,001,2019_Sep_09_2259,Test,3.1.5,59.81849822201949,
Pictures/IA40_20_L95p.bmp,Pictures/IA40_20_L95p.bmp,Pictures/IA40.bmp,"

"Trust me, gamble!"",1,risk,1,0,1,0,0,18,18,8,,,,,,,,,,,,,,,,,,,,,,,,,599.6830313410028,None,601.7001650810125,603.6843627220369,603.6999292880064,None,605.2195131210028,None,None,,607.2195738370065,None,607.2195738370065,None,607.2195738370065,None,None,None,None,None,610.2880950570107,None,610.2880950570107,None,None,610.2880950570107,None,None,None,None,None,,,,,,,999,001,2019_Sep_09_2259,Test,3.1.5,59.81849822201949,
Pictures/IA50_G20.bmp,Pictures/IA50_G20.bmp,Pictures/IA50.bmp,"

"Let's venture and take a risk!"",1,risk,1,0,1,0,0,19,19,12,,,,,,,,,,,,,,,,,,,,,,,,,612.2021162980236,None,614.2206613530288,616.2028704480035,616.217155129998,None,617.7376912200125,None,None,,619.7369373370311,None,619.7369373370311,None,619.7369373370311,None,None,None,None,None,622.7919802870019,None,622.7919802870019,None,None,622.7919802870019,None,None,None,None,None,,,,,,,999,001,2019_Sep_09_2259,Test,3.1.5,59.81849822201949,
,,,,,,1,0,1,0,,,,,,,,,,,,,,,,,,,,,,,,,,,,,,,,,,,,,,,,,,,,,,,,,,,,,,,,,,,,624.7884071950102,None,return,267.75097937497776,624.7884071950102,None,999,001,2019_Sep_09_2259,Test,3.1.5,59.81849822201949,
Pictures/IA50_G10.bmp,Pictures/IA50_G10.bmp,Pictures/IA50.bmp,"

"Go with the safe option here!"",0,safe,2,0,2,0,0,0,0,19,,,,,,,892.6633128370158,None,892.6633128370158,None,892.6633128370158,None,left,1.3161775100161321,892.6633128370158,None,892.6633128370158,None,892.6633128370158,None,return,1.8200556699885055,892.6633128370158,None,894.5304506400134,None,896.5483906900045,898.5321848790045,898.5477332150331,None,900.0672310540103,None,None,,902.0671007390483,None,902.0671007390483,None,902.0671007390483,None,None,None,None,None,905.116714327014,None,905.116714327014,None,None,905.116714327014,None,None,None,None,None,,,,,,,999,001,2019_Sep_09_2259,Test,3.1.5,59.81849822201949,
Pictures/IA100_G80.bmp,Pictures/IA100_G80.bmp,Pictures/IA100.bmp,"

"Why not gamble?"",1,risk,2,0,2,0,0,1,1,11,,,,,,,,,,,,,,,,,,,,,,,,,907.0313053990249,None,909.0515702940174,911.034185342025,911.0498923590058,None,912.5692306340206,None,None,,914.5697214259999,None,914.5697214259999,None,914.5697214259999,None,None,None,None,None,917.6365227820352,None,917.6365227820352,None,None,917.6365227820352,None,None,None,None,None,,,,,,,999,001,2019_Sep_09_2259,Test,3.1.5,59.81849822201949,
Pictures/IA25_L15.bmp,Pictures/IA25_L15.bmp,Pictures/IA25.bmp,"

"There's not much on the line here, gamble!"",1,risk,2,0,2,0,0,2,2,15,,,,,,,,,,,,,,,,,,,,,,,,,919.5519739130395,None,921.57045233401,923.5517880100524,923.5680045410409,None,925.0871745990007,None,None,,927.0878797750338,None,927.0878797750338,None,927.0878797750338,None,None,None,None,None,930.1546079860418,None,930.1546079860418,None,None,930.1546079860418,None,None,None,None,None,,,,,,,999,001,2019_Sep_09_2259,Test,3.1.5,59.81849822201949,
Pictures/IA100_L80.bmp,Pictures/IA100_L80.bmp,Pictures/IA100.bmp,"

"Go all in!"",1,risk,2,0,2,0,0,3,3,0,,,,,,,,,,,,,,,,,,,,,,,,,932.0698258620105,None,934.0887924370472,936.0699813920073,936.0865182230482,None,937.6086142510176,None,None,,939.6066603730433,None,939.6066603730433,None,939.6066603730433,None,None,None,None,None,942.6761086820043,None,942.6761086820043,None,None,942.6761086820043,None,None,None,None,None,,,,,,,999,001,2019_Sep_09_2259,Test,3.1.5,59.81849822201949,
Pictures/IA25_G5.bmp,Pictures/IA25_G5.bmp,Pictures/IA25.bmp,"

"Let's stay with the certain option."",0,safe,2,0,2,0,0,4,4,6,,,,,,,,,,,,,,,,,,,,,,,,,944.5883295150124,None,946.6081150990212,948.5899821650237,948.6057875390397,None,950.1247590820421,None,None,,952.1228549740044,None,952.1228549740044,None,952.1228549740044,None,None,None,None,None,955.1909418000141,None,955.1909418000141,None,None,955.1909418000141,None,None,None,None,None,,,,,,,999,001,2019_Sep_09_2259,Test,3.1.5,59.81849822201949,
Pictures/IA110_55_G95p.bmp,Pictures/IA110_55_G95p.bmp,Pictures/IA110.bmp,"

"Take a chance!"",1,risk,2,0,2,0,0,5,5,18,,,,,,,,,,,,,,,,,,,,,,,,,957.1068809340359,None,959.1253618409974,961.1087412839988,961.1244243160472,None,962.641584438039,None,None,,964.6421477150288,None,964.6421477150288,None,964.6421477150288,None,None,None,None,None,967.7460286300047,None,967.7460286300047,None,None,967.7460286300047,None,None,None,None,None,,,,,,,999,001,2019_Sep_09_2259,Test,3.1.5,59.81849822201949,
Pictures/IA50_L20.bmp,Pictures/IA50_L20.bmp,Pictures/IA50.bmp,"

"Certainty is boring, take a risk!"",1,risk,2,0,2,0,0,6,6,10,,,,,,,,,,,,,,,,,,,,,,,,,969.6594737510313,None,971.6796182200196,973.6596511190291,973.6762250400498,None,975.1960881490377,None,None,,977.1927189600538,None,977.1927189600538,None,977.1927189600538,None,None,None,None,None,980.2614860370522,None,980.2614860370522,None,None,980.2614860370522,None,None,None,None,None,,,,,,,999,001,2019_Sep_09_2259,Test,3.1.5,59.81849822201949,
Pictures/IA75_L45.bmp,Pictures/IA75_L45.bmp,Pictures/IA75.bmp,"

"Don't gamble for this one, play it safe."",0,safe,2,0,2,0,0,7,7,7,,,,,,,,,,,,,,,,,,,,,,,,,982.1636915880372,None,984.180134437047,986.1620797740179,986.1790369220544,None,987.698500027007,None,None,,989.6977728530183,None,989.6977728530183,None,989.6977728530183,None,None,None,None,None,992.7642029350391,None,992.7642029350391,None,None,992.7642029350391,None,None,None,None,None,,,,,,,999,001,2019_Sep_09_2259,Test,3.1.5,59.81849822201949,
Pictures/IA75_L15.bmp,Pictures/IA75_L15.bmp,Pictures/IA75.bmp,"

"Trust me, gamble!"",1,risk,2,0,2,0,0,8,8,14,,,,,,,,,,,,,,,,,,,,,,,,,994.6819762650412,None,996.699234876025,998.6815638910048,998.6972464030259,None,1000.2164814370335,None,None,,1002.2158132000477,None,1002.2158132000477,None,1002.2158132000477,None,None,None,None,None,1005.2832757100114,None,1005.2832757100114,None,None,1005.2832757100114,None,None,None,None,None,,,,,,,999,001,2019_Sep_09_2259,Test,3.1.5,59.81849822201949,
Pictures/IA50_G30.bmp,Pictures/IA50_G30.bmp,Pictures/IA50.bmp,"

"I think you should gamble."",1,risk,2,0,2,0,0,9,9,2,,,,,,,,,,,,,,,,,,,,,,,,,1007.1986884610378,None,1009.2175256950432,1011.1999963170383,1011.2150769470027,None,1012.7353585640085,None,None,,1014.7350259360392,None,1014.7350259360392,None,1014.7350259360392,None,None,None,None,None,1017.8048171210103,None,1017.8048171210103,None,None,1017.8048171210103,None,None,None,None,None,,,,,,,999,001,2019_Sep_09_2259,Test,3.1.5,59.81849822201949,
Pictures/IA50_L10.bmp,Pictures/IA50_L10.bmp,Pictures/IA50.bmp,"

"Play it safe, don’t gamble!"",0,safe,2,0,2,0,0,10,10,8,,,,,,,,,,,,,,,,,,,,,,,,,1019.7180349800037,None,1021.7232670040103,1023.7189372300054,1023.7189372300054,None,1025.253333155997,None,None,,1027.2545460760011,None,1027.2545460760011,None,1027.2545460760011,None,None,None,None,None,1030.3231576580438,None,1030.3231576580438,None,None,1030.3231576580438,None,None,None,None,None,,,,,,,999,001,2019_Sep_09_2259,Test,3.1.5,59.81849822201949,
Pictures/IA25_G10.bmp,Pictures/IA25_G10.bmp,Pictures/IA25.bmp,"

"What's life without a little risk?"",1,risk,2,0,2,0,0,11,11,1,,,,,,,,,,,,,,,,,,,,,,,,,1032.2359917970025,None,1034.2560217280407,1036.2374979880406,1036.2528013140545,None,1037.7721392050153,None,None,,1039.7720109380316,None,1039.7720109380316,None,1039.7720109380316,None,None,None,None,None,1042.8426874970319,None,1042.8426874970319,None,None,1042.8426874970319,None,None,None,None,None,,,,,,,999,001,2019_Sep_09_2259,Test,3.1.5,59.81849822201949,
Pictures/IA75_G30.bmp,Pictures/IA75_G30.bmp,Pictures/IA75.bmp,"

"Be bold, gamble!"",1,risk,2,0,2,0,0,12,12,3,,,,,,,,,,,,,,,,,,,,,,,,,1044.75598773401,None,1046.7744035200449,1048.7568681620178,1048.771035205049,None,1050.2766278409981,None,None,,1052.2893711540382,None,1052.2893711540382,None,1052.2893711540382,None,None,None,None,None,1055.3613196870429,None,1055.3613196870429,None,None,1055.3613196870429,None,None,None,None,None,,,,,,,999,001,2019_Sep_09_2259,Test,3.1.5,59.81849822201949,
Pictures/IA75_G45.bmp,Pictures/IA75_G45.bmp,Pictures/IA75.bmp,"

"Don't gamble for this one."",0,safe,2,0,2,0,0,13,13,16,,,,,,,,,,,,,,,,,,,,,,,,,1057.2742595440359,None,1059.2803108660155,1061.2741652850527,1061.2741652850527,None,1062.810013269016,None,None,,1064.8075942640426,None,1064.8075942640426,None,1064.8075942640426,None,None,None,None,None,1067.8784330580384,None,1067.8784330580384,None,None,1067.8784330580384,None,None,None,None,None,,,,,,,999,001,2019_Sep_09_2259,Test,3.1.5,59.81849822201949,
Pictures/IA50_L30.bmp,Pictures/IA50_L30.bmp,Pictures/IA50.bmp,"

"Take a leap, I think you should gamble."",1,risk,2,0,2,0,0,14,14,13,,,,,,,,,,,,,,,,,,,,,,,,,1069.7925343980314,None,1071.8117762950133,1073.7936545310076,1073.7936545310076,None,1075.3282122820383,None,None,,1077.3287645310047,None,1077.3287645310047,None,1077.3287645310047,None,None,None,None,None,1080.4135717250174,None,1080.4135717250174,None,None,1080.4135717250174,None,None,None,None,None,,,,,,,999,001,2019_Sep_09_2259,Test,3.1.5,59.81849822201949,
Pictures/IA50_G40.bmp,Pictures/IA50_G40.bmp,Pictures/IA50.bmp,"

"It would probably be best to play it safe."",0,safe,2,0,2,0,0,15,15,9,,,,,,,,,,,,,,,,,,,,,,,,,1082.3112682020292,None,1084.329645425023,1086.3118672270211,1086.3278529120144,None,1087.8494049670408,None,None,,1089.8457259380375,None,1089.8457259380375,None,1089.8457259380375,None,None,None,None,None,1092.9020145870163,None,1092.9020145870163,None,None,1092.9020145870163,None,None,None,None,None,,,,,,,999,001,2019_Sep_09_2259,Test,3.1.5,59.81849822201949,
Pictures/IA20_10_G95p.bmp,Pictures/IA20_10_G95p.bmp,Pictures/IA20.bmp,"

"Take a leap, I think you should gamble."",1,risk,2,0,2,0,0,16,16,4,,,,,,,,,,,,,,,,,,,,,,,,,1094.8305223240168,None,1096.8477564640343,1098.8314712310093,1098.8466806570068,None,1100.3670430280035,None,None,,1102.3669696820434,None,1102.3669696820434,None,1102.3669696820434,None,None,None,None,None,1105.432858802029,None,1105.432858802029,None,None,1105.432858802029,None,None,None,None,None,,,,,,,999,001,2019_Sep_09_2259,Test,3.1.5,59.81849822201949,
Pictures/IA25_G20.bmp,Pictures/IA25_G20.bmp,Pictures/IA25.bmp,"

"I wouldn't gamble for this one. "",0,safe,2,0,2,0,0,17,17,5,,,,,,,,,,,,,,,,,,,,,,,,,1107.3507635950227,None,1109.3676142900367,1111.3504227380035,1111.3653150540194,None,1112.8848733900231,None,None,,1114.8853261260083,None,1114.8853261260083,None,1114.8853261260083,None,None,None,None,None,1117.9514792740229,None,1117.9514792740229,None,None,1117.9514792740229,None,None,None,None,None,,,,,,,999,001,2019_Sep_09_2259,Test,3.1.5,59.81849822201949,
Pictures/IA80_40_L95p.bmp,Pictures/IA80_40_L95p.bmp,Pictures/IA80.bmp,"

"Let's stay with the certain option."",0,safe,2,0,2,0,0,18,18,17,,,,,,,,,,,,,,,,,,,,,,,,,1119.8694294830202,None,1121.8871006620466,1123.8703545390163,1123.883437066048,None,1125.4031177380239,None,None,,1127.4034215710126,None,1127.4034215710126,None,1127.4034215710126,None,None,None,None,None,1130.4729728430393,None,1130.4729728430393,None,None,1130.4729728430393,None,None,None,None,None,,,,,,,999,001,2019_Sep_09_2259,Test,3.1.5,59.81849822201949,
Pictures/IA100_L60.bmp,Pictures/IA100_L60.bmp,Pictures/IA100.bmp,"

"You'd have a lot to lose, don't gamble."",0,safe,2,0,2,0,0,19,19,12,,,,,,,,,,,,,,,,,,,,,,,,,1132.3866855560336,None,1134.404539228999,1136.3862897380022,1136.3862897380022,None,1137.9228303800337,None,None,,1139.9227076520328,None,1139.9227076520328,None,1139.9227076520328,None,None,None,None,None,1142.9922659240547,None,1142.9922659240547,None,None,1142.9922659240547,None,None,None,None,None,,,,,,,999,001,2019_Sep_09_2259,Test,3.1.5,59.81849822201949,
,,,,,,2,0,2,0,,,,,,,,,,,,,,,,,,,,,,,,,,,,,,,,,,,,,,,,,,,,,,,,,,,,,,,,,,,,1144.9731773210224,None,return,13.313471648958512,1144.9731773210224,None,999,001,2019_Sep_09_2259,Test,3.1.5,59.81849822201949,
Pictures/IA25_L10.bmp,Pictures/IA25_L10.bmp,Pictures/IA25.bmp,"

"Dont be afraid to take the risk!"",1,risk,3,0,3,0,0,0,0,14,,,,,,,1158.4062657000031,None,1158.4062657000031,None,1158.4062657000031,None,left,2.184261123999022,1158.4062657000031,None,1158.4062657000031,None,1158.4062657000031,None,return,3.5042363189859316,1158.4062657000031,None,1161.9600735760177,None,1163.9748261000495,1165.9582465050044,1165.9582465050044,None,1167.4770368600148,None,None,,1169.4775802650256,None,1169.4775802650256,None,1169.4775802650256,None,None,None,None,None,1172.5452722450136,None,1172.5452722450136,None,None,1172.5452722450136,None,None,None,None,None,,,,,,,999,001,2019_Sep_09_2259,Test,3.1.5,59.81849822201949,
Pictures/IA75_L15.bmp,Pictures/IA75_L15.bmp,Pictures/IA75.bmp,"

"Trust me, gamble!"",1,risk,3,0,3,0,0,1,1,0,,,,,,,,,,,,,,,,,,,,,,,,,1174.4598910960485,None,1176.4786152170273,1178.4621812530095,1178.4746121820062,None,1179.996403716039,None,None,,1181.9961865000078,None,1181.9961865000078,None,1181.9961865000078,None,None,None,None,None,1185.0647609250154,None,1185.0647609250154,None,None,1185.0647609250154,None,None,None,None,None,,,,,,,999,001,2019_Sep_09_2259,Test,3.1.5,59.81849822201949,
Pictures/IA50_L40.bmp,Pictures/IA50_L40.bmp,Pictures/IA50.bmp,"

"That gamble doesn't sound too good, play it safe."",0,safe,3,0,3,0,0,2,2,18,,,,,,,,,,,,,,,,,,,,,,,,,1186.9616585530457,None,1188.9808885680395,1190.9622651640093,1190.9622651640093,None,1192.4974733570125,None,None,,1194.498127532017,None,1194.498127532017,None,1194.498127532017,None,None,None,None,None,1197.565182447026,None,1197.565182447026,None,None,1197.565182447026,None,None,None,None,None,,,,,,,999,001,2019_Sep_09_2259,Test,3.1.5,59.81849822201949,
Pictures/IA110_55_G95p.bmp,Pictures/IA110_55_G95p.bmp,Pictures/IA110.bmp,"

"Take a chance!"",1,risk,3,0,3,0,0,3,3,13,,,,,,,,,,,,,,,,,,,,,,,,,1199.480631447048,None,1201.4982425050111,1203.4811538460199,1203.4984290580032,None,1205.000335677003,None,None,,1207.0164067770238,None,1207.0164067770238,None,1207.0164067770238,None,None,None,None,None,1210.082242097007,None,1210.082242097007,None,None,1210.082242097007,None,None,None,None,None,,,,,,,999,001,2019_Sep_09_2259,Test,3.1.5,59.81849822201949,
Pictures/IA40_20_G95p.bmp,Pictures/IA40_20_G95p.bmp,Pictures/IA40.bmp,"

"Hold back, stay with the safe choice."",0,safe,3,0,3,0,0,4,4,11,,,,,,,,,,,,,,,,,,,,,,,,,1211.999267117004,None,1214.015990726999,1215.9993431920302,1215.9993431920302,None,1217.5207679610467,None,None,,1219.5352237100014,None,1219.5352237100014,None,1219.5352237100014,None,None,None,None,None,1222.60071211803,None,1222.60071211803,None,None,1222.60071211803,None,None,None,None,None,,,,,,,999,001,2019_Sep_09_2259,Test,3.1.5,59.81849822201949,
Pictures/IA20_10_L95p.bmp,Pictures/IA20_10_L95p.bmp,Pictures/IA20.bmp,"

"Don't be tempted to gamble."",0,safe,3,0,3,0,0,5,5,2,,,,,,,,,,,,,,,,,,,,,,,,,1224.5181351250503,None,1226.534624573018,1228.518110989011,1228.5351231870009,None,1230.054236366006,None,None,,1232.0546172000468,None,1232.0546172000468,None,1232.0546172000468,None,None,None,None,None,1235.1213018900016,None,1235.1213018900016,None,None,1235.1213018900016,None,None,None,None,None,,,,,,,999,001,2019_Sep_09_2259,Test,3.1.5,59.81849822201949,
Pictures/IA80_40_G95p.bmp,Pictures/IA80_40_G95p.bmp,Pictures/IA80.bmp,"

"Think of the payoff, gamble!"",1,risk,3,0,3,0,0,6,6,12,,,,,,,,,,,,,,,,,,,,,,,,,1237.0378904640093,None,1239.055430989014,1241.0374300270341,1241.052600422001,None,1242.5556855040486,None,None,,1244.5732117320294,None,1244.5732117320294,None,1244.5732117320294,None,None,None,None,None,1247.6421994920238,None,1247.6421994920238,None,None,1247.6421994920238,None,None,None,None,None,,,,,,,999,001,2019_Sep_09_2259,Test,3.1.5,59.81849822201949,
Pictures/IA20_10_G95p.bmp,Pictures/IA20_10_G95p.bmp,Pictures/IA20.bmp,"

"Take a leap, I think you should gamble."",1,risk,3,0,3,0,0,7,7,4,,,,,,,,,,,,,,,,,,,,,,,,,1249.5557039470295,None,1251.5737326700473,1253.555810134043,1253.5729824490263,None,1255.0909970460343,None,None,,1257.0906409739982,None,1257.0906409739982,None,1257.0906409739982,None,None,None,None,None,1260.157559488027,None,1260.157559488027,None,None,1260.157559488027,None,None,None,None,None,,,,,,,999,001,2019_Sep_09_2259,Test,3.1.5,59.81849822201949,
Pictures/IA50_L10.bmp,Pictures/IA50_L10.bmp,Pictures/IA50.bmp,"

"Play it safe, don’t gamble!"",0,safe,3,0,3,0,0,8,8,19,,,,,,,,,,,,,,,,,,,,,,,,,1262.073533444025,None,1264.0934971180395,1266.0750930340146,1266.09032384702,None,1267.5918291980051,None,None,,1269.6091003790498,None,1269.6091003790498,None,1269.6091003790498,None,None,None,None,None,1272.6601713830023,None,1272.6601713830023,None,None,1272.6601713830023,None,None,None,None,None,,,,,,,999,001,2019_Sep_09_2259,Test,3.1.5,59.81849822201949,
Pictures/IA50_G10.bmp,Pictures/IA50_G10.bmp,Pictures/IA50.bmp,"

"Go with the safe option here!"",0,safe,3,0,3,0,0,9,9,17,,,,,,,,,,,,,,,,,,,,,,,,,1274.5937514120014,None,1276.6106022670283,1278.5925634150044,1278.6093825900462,None,1280.1300392330159,None,None,,1282.1265013490338,None,1282.1265013490338,None,1282.1265013490338,None,None,None,None,None,1285.1969828470028,None,1285.1969828470028,None,None,1285.1969828470028,None,None,None,None,None,,,,,,,999,001,2019_Sep_09_2259,Test,3.1.5,59.81849822201949,
Pictures/IA25_G5.bmp,Pictures/IA25_G5.bmp,Pictures/IA25.bmp,"

"Let's stay with the certain option."",0,safe,3,0,3,0,0,10,10,8,,,,,,,,,,,,,,,,,,,,,,,,,1287.1113172290497,None,1289.1296097370214,1291.112218224036,1291.127936332021,None,1292.647583654034,None,None,,1294.6474975620513,None,1294.6474975620513,None,1294.6474975620513,None,None,None,None,None,1297.7139442680054,None,1297.7139442680054,None,None,1297.7139442680054,None,None,None,None,None,,,,,,,999,001,2019_Sep_09_2259,Test,3.1.5,59.81849822201949,
Pictures/IA100_L40.bmp,Pictures/IA100_L40.bmp,Pictures/IA100.bmp,"

"Think of the payoff, gamble!"",1,risk,3,0,3,0,0,11,11,10,,,,,,,,,,,,,,,,,,,,,,,,,1299.6309604850248,None,1301.649714632018,1303.630409474019,1303.630409474019,None,1305.1670457459986,None,None,,1307.1661410590168,None,1307.1661410590168,None,1307.1661410590168,None,None,None,None,None,1310.2321215550182,None,1310.2321215550182,None,None,1310.2321215550182,None,None,None,None,None,,,,,,,999,001,2019_Sep_09_2259,Test,3.1.5,59.81849822201949,
Pictures/IA100_L80.bmp,Pictures/IA100_L80.bmp,Pictures/IA100.bmp,"

"Go all in!"",1,risk,3,0,3,0,0,12,12,3,,,,,,,,,,,,,,,,,,,,,,,,,1312.1487905760296,None,1314.167114166019,1316.1505810250528,1316.1652610340388,None,1317.6836956380284,None,None,,1319.6854278860264,None,1319.6854278860264,None,1319.6854278860264,None,None,None,None,None,1322.754058156046,None,1322.754058156046,None,None,1322.754058156046,None,None,None,None,None,,,,,,,999,001,2019_Sep_09_2259,Test,3.1.5,59.81849822201949,
Pictures/IA75_G15.bmp,Pictures/IA75_G15.bmp,Pictures/IA75.bmp,"

"Take a chance!"",1,risk,3,0,3,0,0,13,13,9,,,,,,,,,,,,,,,,,,,,,,,,,1324.6671939840307,None,1326.6868224550271,1328.6667842350435,1328.6848620050005,None,1330.2038010940305,None,None,,1332.2051453880267,None,1332.2051453880267,None,1332.2051453880267,None,None,None,None,None,1335.2716641160077,None,1335.2716641160077,None,None,1335.2716641160077,None,None,None,None,None,,,,,,,999,001,2019_Sep_09_2259,Test,3.1.5,59.81849822201949,
Pictures/IA100_G80.bmp,Pictures/IA100_G80.bmp,Pictures/IA100.bmp,"

"Why not gamble?"",1,risk,3,0,3,0,0,14,14,6,,,,,,,,,,,,,,,,,,,,,,,,,1337.1882315660478,None,1339.2052101180307,1341.1875395860407,1341.203064271016,None,1342.720476266055,None,None,,1344.7220582790324,None,1344.7220582790324,None,1344.7220582790324,None,None,None,None,None,1347.792278949055,None,1347.792278949055,None,None,1347.792278949055,None,None,None,None,None,,,,,,,999,001,2019_Sep_09_2259,Test,3.1.5,59.81849822201949,
Pictures/IA75_L45.bmp,Pictures/IA75_L45.bmp,Pictures/IA75.bmp,"

"Don't gamble for this one, play it safe."",0,safe,3,0,3,0,0,15,15,7,,,,,,,,,,,,,,,,,,,,,,,,,1349.705461176054,None,1351.7231484150398,1353.7071819870034,1353.7204024470411,None,1355.241408906004,None,None,,1357.2416247710353,None,1357.2416247710353,None,1357.2416247710353,None,None,None,None,None,1360.3103340120288,None,1360.3103340120288,None,None,1360.3103340120288,None,None,None,None,None,,,,,,,999,001,2019_Sep_09_2259,Test,3.1.5,59.81849822201949,
Pictures/IA100_G20.bmp,Pictures/IA100_G20.bmp,Pictures/IA100.bmp,"

"Go ahead and gamble!"",1,risk,3,0,3,0,0,16,16,16,,,,,,,,,,,,,,,,,,,,,,,,,1362.2235674890107,None,1364.2427061030176,1366.2224462720333,1366.24030170904,None,1367.7600133439992,None,None,,1369.761343308026,None,1369.761343308026,None,1369.761343308026,None,None,None,None,None,1372.8293623860227,None,1372.8293623860227,None,None,1372.8293623860227,None,None,None,None,None,,,,,,,999,001,2019_Sep_09_2259,Test,3.1.5,59.81849822201949,
Pictures/IA25_L15.bmp,Pictures/IA25_L15.bmp,Pictures/IA25.bmp,"

"There's not much on the line here, gamble!"",1,risk,3,0,3,0,0,17,17,15,,,,,,,,,,,,,,,,,,,,,,,,,1374.742617386044,None,1376.7613336979994,1378.7429441840504,1378.7593753410038,None,1380.2641637950437,None,None,,1382.2783697660198,None,1382.2783697660198,None,1382.2783697660198,None,None,None,None,None,1385.3452544760075,None,1385.3452544760075,None,None,1385.3452544760075,None,None,None,None,None,,,,,,,999,001,2019_Sep_09_2259,Test,3.1.5,59.81849822201949,
Pictures/IA50_G20.bmp,Pictures/IA50_G20.bmp,Pictures/IA50.bmp,"

"Let's venture and take a risk!"",1,risk,3,0,3,0,0,18,18,5,,,,,,,,,,,,,,,,,,,,,,,,,1387.259252627031,None,1389.2783189270413,1391.2599463180522,1391.2784106210456,None,1392.782009925053,None,None,,1394.7972803100129,None,1394.7972803100129,None,1394.7972803100129,None,None,None,None,None,1397.8671986500267,None,1397.8671986500267,None,None,1397.8671986500267,None,None,None,None,None,,,,,,,999,001,2019_Sep_09_2259,Test,3.1.5,59.81849822201949,
Pictures/IA100_G60.bmp,Pictures/IA100_G60.bmp,Pictures/IA100.bmp,"

"Be cautious, don't gamble for this one."",0,safe,3,0,3,0,0,19,19,1,,,,,,,,,,,,,,,,,,,,,,,,,1399.7788596450118,None,1401.7985268030316,1403.7794333390193,1403.7794333390193,None,1405.3005281460355,None,None,,1407.316508181044,None,1407.316508181044,None,1407.316508181044,None,None,None,None,None,1410.381312038051,None,1410.381312038051,None,None,1410.381312038051,None,None,None,None,None,,,,,,,999,001,2019_Sep_09_2259,Test,3.1.5,59.81849822201949,
,,,,,,3,0,3,0,,,,,,,,,,,,,,,,,,,,,,,,,,,,,,,,,,,,,,,,,,,,,,,,,,,,,,,,,,,,1412.3679359580274,None,return,8.427290667023044,1412.3679359580274,None,999,001,2019_Sep_09_2259,Test,3.1.5,59.81849822201949,
Pictures/IA75_G30.bmp,Pictures/IA75_G30.bmp,Pictures/IA75.bmp,"

"Be bold, gamble!"",1,risk,4,0,4,0,0,0,0,5,,,,,,,1420.9183263560408,None,1420.9183263560408,None,1420.9183263560408,None,left,1.3810749290278181,1420.9183263560408,None,1420.9183263560408,None,1420.9183263560408,None,return,1.644969068991486,1420.9183263560408,None,1422.6004884029971,None,1424.6010526360478,1426.5854050790076,1426.6011737500085,None,1428.10355763603,None,None,,1430.1197022180422,None,1430.1197022180422,None,1430.1197022180422,None,None,None,None,None,1433.188156477001,None,1433.188156477001,None,None,1433.188156477001,None,None,None,None,None,,,,,,,999,001,2019_Sep_09_2259,Test,3.1.5,59.81849822201949,
Pictures/IA50_G40.bmp,Pictures/IA50_G40.bmp,Pictures/IA50.bmp,"

"It would probably be best to play it safe."",0,safe,4,0,4,0,0,1,1,4,,,,,,,,,,,,,,,,,,,,,,,,,1435.102269471041,None,1437.1211625740398,1439.1031394080492,1439.1190295480192,None,1440.6238730110344,None,None,,1442.6383282850147,None,1442.6383282850147,None,1442.6383282850147,None,None,None,None,None,1445.7039020390366,None,1445.7039020390366,None,None,1445.7039020390366,None,None,None,None,None,,,,,,,999,001,2019_Sep_09_2259,Test,3.1.5,59.81849822201949,
Pictures/IA25_L5.bmp,Pictures/IA25_L5.bmp,Pictures/IA25.bmp,"

"It would be smarter to choose the safe option."",0,safe,4,0,4,0,0,2,2,15,,,,,,,,,,,,,,,,,,,,,,,,,1447.6195483350311,None,1449.6400281110546,1451.6219583630445,1451.637691911019,None,1453.139763853047,None,None,,1455.1548347150092,None,1455.1548347150092,None,1455.1548347150092,None,None,None,None,None,1458.222357260005,None,1458.222357260005,None,None,1458.222357260005,None,None,None,None,None,,,,,,,999,001,2019_Sep_09_2259,Test,3.1.5,59.81849822201949,
Pictures/IA40_20_L95p.bmp,Pictures/IA40_20_L95p.bmp,Pictures/IA40.bmp,"

"Trust me, gamble!"",1,risk,4,0,4,0,0,3,3,9,,,,,,,,,,,,,,,,,,,,,,,,,1460.1395195450168,None,1462.1570430970169,1464.1402225299971,1464.1402225299971,None,1465.6752549600205,None,None,,1467.676639139012,None,1467.676639139012,None,1467.676639139012,None,None,None,None,None,1470.7451672820025,None,1470.7451672820025,None,None,1470.7451672820025,None,None,None,None,None,,,,,,,999,001,2019_Sep_09_2259,Test,3.1.5,59.81849822201949,
Pictures/IA110_55_L95p.bmp,Pictures/IA110_55_L95p.bmp,Pictures/IA110.bmp,"

"Trust me, gamble!"",1,risk,4,0,4,0,0,4,4,2,,,,,,,,,,,,,,,,,,,,,,,,,1472.6583969430067,None,1474.6763722940232,1476.6603382440517,1476.674410028034,None,1478.1945278450148,None,None,,1480.1943642930128,None,1480.1943642930128,None,1480.1943642930128,None,None,None,None,None,1483.2430681370315,None,1483.2430681370315,None,None,1483.2430681370315,None,None,None,None,None,,,,,,,999,001,2019_Sep_09_2259,Test,3.1.5,59.81849822201949,
Pictures/IA20_10_L95p.bmp,Pictures/IA20_10_L95p.bmp,Pictures/IA20.bmp,"

"Don't be tempted to gamble."",0,safe,4,0,4,0,0,5,5,7,,,,,,,,,,,,,,,,,,,,,,,,,1485.1613473580219,None,1487.1793871520204,1489.1595868050354,1489.1765222180402,None,1490.6968567420263,None,None,,1492.6924709380255,None,1492.6924709380255,None,1492.6924709380255,None,None,None,None,None,1495.7617422500043,None,1495.7617422500043,None,None,1495.7617422500043,None,None,None,None,None,,,,,,,999,001,2019_Sep_09_2259,Test,3.1.5,59.81849822201949,
Pictures/IA50_L10.bmp,Pictures/IA50_L10.bmp,Pictures/IA50.bmp,"

"Play it safe, don’t gamble!"",0,safe,4,0,4,0,0,6,6,3,,,,,,,,,,,,,,,,,,,,,,,,,1497.6799515380408,None,1499.6974884690135,1501.6800615970278,1501.6964457030408,None,1503.214784122014,None,None,,1505.2144871560158,None,1505.2144871560158,None,1505.2144871560158,None,None,None,None,None,1508.2845022260444,None,1508.2845022260444,None,None,1508.2845022260444,None,None,None,None,None,,,,,,,999,001,2019_Sep_09_2259,Test,3.1.5,59.81849822201949,
Pictures/IA50_G30.bmp,Pictures/IA50_G30.bmp,Pictures/IA50.bmp,"

"I think you should gamble."",1,risk,4,0,4,0,0,7,7,18,,,,,,,,,,,,,,,,,,,,,,,,,1510.196717873041,None,1512.2154344560113,1514.1988579110475,1514.2146572620259,None,1515.734160988999,None,None,,1517.7344513640273,None,1517.7344513640273,None,1517.7344513640273,None,None,None,None,None,1520.7999110990204,None,1520.7999110990204,None,None,1520.7999110990204,None,None,None,None,None,,,,,,,999,001,2019_Sep_09_2259,Test,3.1.5,59.81849822201949,
Pictures/IA50_L30.bmp,Pictures/IA50_L30.bmp,Pictures/IA50.bmp,"

"Take a leap, I think you should gamble."",1,risk,4,0,4,0,0,8,8,12,,,,,,,,,,,,,,,,,,,,,,,,,1522.7151951480191,None,1524.7353020170121,1526.7166917690192,1526.7338508050307,None,1528.2524704150273,None,None,,1530.2527208900428,None,1530.2527208900428,None,1530.2527208900428,None,None,None,None,None,1533.321115077997,None,1533.321115077997,None,None,1533.321115077997,None,None,None,None,None,,,,,,,999,001,2019_Sep_09_2259,Test,3.1.5,59.81849822201949,
Pictures/IA25_L10.bmp,Pictures/IA25_L10.bmp,Pictures/IA25.bmp,"

"Dont be afraid to take the risk!"",1,risk,4,0,4,0,0,9,9,6,,,,,,,,,,,,,,,,,,,,,,,,,1535.2345416800235,None,1537.2528354370152,1539.2349721040227,1539.2537205670378,None,1540.7703929580166,None,None,,1542.7718395930133,None,1542.7718395930133,None,1542.7718395930133,None,None,None,None,None,1545.8407654430484,None,1545.8407654430484,None,None,1545.8407654430484,None,None,None,None,None,,,,,,,999,001,2019_Sep_09_2259,Test,3.1.5,59.81849822201949,
Pictures/IA25_G20.bmp,Pictures/IA25_G20.bmp,Pictures/IA25.bmp,"

"I wouldn't gamble for this one. "",0,safe,4,0,4,0,0,10,10,8,,,,,,,,,,,,,,,,,,,,,,,,,1547.754504662007,None,1549.7722991100163,1551.754445219005,1551.754445219005,None,1553.2900454890332,None,None,,1555.2889758040546,None,1555.2889758040546,None,1555.2889758040546,None,None,None,None,None,1558.358865746006,None,1558.358865746006,None,None,1558.358865746006,None,None,None,None,None,,,,,,,999,001,2019_Sep_09_2259,Test,3.1.5,59.81849822201949,
Pictures/IA100_G20.bmp,Pictures/IA100_G20.bmp,Pictures/IA100.bmp,"

"Go ahead and gamble!"",1,risk,4,0,4,0,0,11,11,14,,,,,,,,,,,,,,,,,,,,,,,,,1560.27149061003,None,1562.29061004502,1564.2732485130546,1564.2884590940084,None,1565.8058370100334,None,None,,1567.8078559300047,None,1567.8078559300047,None,1567.8078559300047,None,None,None,None,None,1570.8781849680236,None,1570.8781849680236,None,None,1570.8781849680236,None,None,None,None,None,,,,,,,999,001,2019_Sep_09_2259,Test,3.1.5,59.81849822201949,
Pictures/IA100_L20.bmp,Pictures/IA100_L20.bmp,Pictures/IA100.bmp,"

"Try to win as much money as you can, gamble!"",1,risk,4,0,4,0,0,12,12,1,,,,,,,,,,,,,,,,,,,,,,,,,1572.7749023690121,None,1574.7933753350517,1576.775398671045,1576.791861967009,None,1578.2963164750254,None,None,,1580.307586617011,None,1580.307586617011,None,1580.307586617011,None,None,None,None,None,1583.380152772006,None,1583.380152772006,None,None,1583.380152772006,None,None,None,None,None,,,,,,,999,001,2019_Sep_09_2259,Test,3.1.5,59.81849822201949,
Pictures/IA40_20_G95p.bmp,Pictures/IA40_20_G95p.bmp,Pictures/IA40.bmp,"

"Hold back, stay with the safe choice."",0,safe,4,0,4,0,0,13,13,19,,,,,,,,,,,,,,,,,,,,,,,,,1585.2935205940157,None,1587.3116464790073,1589.2933035330498,1589.2933035330498,None,1590.8304313010303,None,None,,1592.8278281970415,None,1592.8278281970415,None,1592.8278281970415,None,None,None,None,None,1595.8994821780361,None,1595.8994821780361,None,None,1595.8994821780361,None,None,None,None,None,,,,,,,999,001,2019_Sep_09_2259,Test,3.1.5,59.81849822201949,
Pictures/IA100_L80.bmp,Pictures/IA100_L80.bmp,Pictures/IA100.bmp,"

"Go all in!"",1,risk,4,0,4,0,0,14,14,13,,,,,,,,,,,,,,,,,,,,,,,,,1597.812363279052,None,1599.8307879250497,1601.8135757570271,1601.8287269540015,None,1603.333259225008,None,None,,1605.3473078050301,None,1605.3473078050301,None,1605.3473078050301,None,None,None,None,None,1608.4165328690433,None,1608.4165328690433,None,None,1608.4165328690433,None,None,None,None,None,,,,,,,999,001,2019_Sep_09_2259,Test,3.1.5,59.81849822201949,
Pictures/IA50_G10.bmp,Pictures/IA50_G10.bmp,Pictures/IA50.bmp,"

"Go with the safe option here!"",0,safe,4,0,4,0,0,15,15,11,,,,,,,,,,,,,,,,,,,,,,,,,1610.330267981044,None,1612.3493780170102,1614.3312836200348,1614.3485009330325,None,1615.8666246840148,None,None,,1617.8670988890226,None,1617.8670988890226,None,1617.8670988890226,None,None,None,None,None,1620.9338182980428,None,1620.9338182980428,None,None,1620.9338182980428,None,None,None,None,None,,,,,,,999,001,2019_Sep_09_2259,Test,3.1.5,59.81849822201949,
Pictures/IA20_10_G95p.bmp,Pictures/IA20_10_G95p.bmp,Pictures/IA20.bmp,"

"Take a leap, I think you should gamble."",1,risk,4,0,4,0,0,16,16,16,,,,,,,,,,,,,,,,,,,,,,,,,1622.8476096480154,None,1624.8685204680078,1626.851167526038,1626.8656870780396,None,1628.383561151044,None,None,,1630.3821302319993,None,1630.3821302319993,None,1630.3821302319993,None,None,None,None,None,1633.4511326220236,None,1633.4511326220236,None,None,1633.4511326220236,None,None,None,None,None,,,,,,,999,001,2019_Sep_09_2259,Test,3.1.5,59.81849822201949,
Pictures/IA50_L20.bmp,Pictures/IA50_L20.bmp,Pictures/IA50.bmp,"

"Certainty is boring, take a risk!"",1,risk,4,0,4,0,0,17,17,17,,,,,,,,,,,,,,,,,,,,,,,,,1635.368151080038,None,1637.3862518960377,1639.3690367719973,1639.3847845760174,None,1640.9041377670364,None,None,,1642.9053660260397,None,1642.9053660260397,None,1642.9053660260397,None,None,None,None,None,1645.9743614290492,None,1645.9743614290492,None,None,1645.9743614290492,None,None,None,None,None,,,,,,,999,001,2019_Sep_09_2259,Test,3.1.5,59.81849822201949,
Pictures/IA110_55_G95p.bmp,Pictures/IA110_55_G95p.bmp,Pictures/IA110.bmp,"

"Take a chance!"",1,risk,4,0,4,0,0,18,18,0,,,,,,,,,,,,,,,,,,,,,,,,,1647.8879228419974,None,1649.9053299130173,1651.8900160140474,1651.9031319030328,None,1653.4230226970394,None,None,,1655.4234038070426,None,1655.4234038070426,None,1655.4234038070426,None,None,None,None,None,1658.4922701540054,None,1658.4922701540054,None,None,1658.4922701540054,None,None,None,None,None,,,,,,,999,001,2019_Sep_09_2259,Test,3.1.5,59.81849822201949,
Pictures/IA80_40_L95p.bmp,Pictures/IA80_40_L95p.bmp,Pictures/IA80.bmp,"

"Let's stay with the certain option."",0,safe,4,0,4,0,0,19,19,10,,,,,,,,,,,,,,,,,,,,,,,,,1660.4065271500149,None,1662.423639731016,1664.4082646070165,1664.420563579013,None,1665.9416347300285,None,None,,1667.9414664970245,None,1667.9414664970245,None,1667.9414664970245,None,None,None,None,None,1671.0078927890281,None,1671.0078927890281,None,None,1671.0078927890281,None,None,None,None,None,,,,,,,999,001,2019_Sep_09_2259,Test,3.1.5,59.81849822201949,
,,,,,,4,0,4,0,,,,,,,,,,,,,,,,,,,,,,,,,,,,,,,,,,,,,,,,,,,,,,,,,,,,,,,,,,,,1672.9921874460415,None,return,34.204719020053744,1672.9921874460415,None,999,001,2019_Sep_09_2259,Test,3.1.5,59.81849822201949,
Pictures/IA25_G20.bmp,Pictures/IA25_G20.bmp,Pictures/IA25.bmp,"

"I wouldn't gamble for this one. "",0,safe,5,0,5,0,0,0,0,13,,,,,,,1707.3325817980221,None,1707.3325817980221,None,1707.3325817980221,None,None,,1707.3325817980221,None,1707.3325817980221,None,1707.3325817980221,None,return,-0.0075387610122561455,1707.3325817980221,None,1707.3637194370385,None,1709.383170184039,1711.3648284510127,1711.380473663041,None,1712.8844056920498,None,None,,1714.8999574860209,None,1714.8999574860209,None,1714.8999574860209,None,None,None,None,None,1717.9683128800243,None,1717.9683128800243,None,None,1717.9683128800243,None,None,None,None,None,,,,,,,999,001,2019_Sep_09_2259,Test,3.1.5,59.81849822201949,
Pictures/IA40_20_G95p.bmp,Pictures/IA40_20_G95p.bmp,Pictures/IA40.bmp,"

"Hold back, stay with the safe choice."",0,safe,5,0,5,0,0,1,1,11,,,,,,,,,,,,,,,,,,,,,,,,,1719.881719505007,None,1721.9011432240368,1723.8827712300117,1723.8982482540305,None,1725.4169338220381,None,None,,1727.4179278720403,None,1727.4179278720403,None,1727.4179278720403,None,None,None,None,None,1730.483858665044,None,1730.483858665044,None,None,1730.483858665044,None,None,None,None,None,,,,,,,999,001,2019_Sep_09_2259,Test,3.1.5,59.81849822201949,
Pictures/IA75_L60.bmp,Pictures/IA75_L60.bmp,Pictures/IA75.bmp,"

"Why not take the gamble?"",1,risk,5,0,5,0,0,2,2,7,,,,,,,,,,,,,,,,,,,,,,,,,1732.4009097930393,None,1734.4196633180254,1736.4019657900208,1736.4173481160542,None,1737.936022851034,None,None,,1739.935407925048,None,1739.935407925048,None,1739.935407925048,None,None,None,None,None,1743.0030770940357,None,1743.0030770940357,None,None,1743.0030770940357,None,None,None,None,None,,,,,,,999,001,2019_Sep_09_2259,Test,3.1.5,59.81849822201949,
Pictures/IA50_G20.bmp,Pictures/IA50_G20.bmp,Pictures/IA50.bmp,"

"Let's venture and take a risk!"",1,risk,5,0,5,0,0,3,3,9,,,,,,,,,,,,,,,,,,,,,,,,,1744.9182756270166,None,1746.9376472560107,1748.9208990070038,1748.9364392550196,None,1750.440292236046,None,None,,1752.4543988030055,None,1752.4543988030055,None,1752.4543988030055,None,None,None,None,None,1755.5240176510415,None,1755.5240176510415,None,None,1755.5240176510415,None,None,None,None,None,,,,,,,999,001,2019_Sep_09_2259,Test,3.1.5,59.81849822201949,
Pictures/IA75_G60.bmp,Pictures/IA75_G60.bmp,Pictures/IA75.bmp,"

"Make it exciting, take a chance!"",1,risk,5,0,5,0,0,4,4,12,,,,,,,,,,,,,,,,,,,,,,,,,1757.4375681030215,None,1759.4561911000055,1761.4389491060283,1761.4389491060283,None,1762.9737030680408,None,None,,1764.9736848100438,None,1764.9736848100438,None,1764.9736848100438,None,None,None,None,None,1768.0410832230118,None,1768.0410832230118,None,None,1768.0410832230118,None,None,None,None,None,,,,,,,999,001,2019_Sep_09_2259,Test,3.1.5,59.81849822201949,
Pictures/IA20_10_L95p.bmp,Pictures/IA20_10_L95p.bmp,Pictures/IA20.bmp,"

"Don't be tempted to gamble."",0,safe,5,0,5,0,0,5,5,3,,,,,,,,,,,,,,,,,,,,,,,,,1769.959518980002,None,1771.976509199012,1773.9579528460163,1773.9729671090026,None,1775.4763052730123,None,None,,1777.491095356003,None,1777.491095356003,None,1777.491095356003,None,None,None,None,None,1780.562181612011,None,1780.562181612011,None,None,1780.562181612011,None,None,None,None,None,,,,,,,999,001,2019_Sep_09_2259,Test,3.1.5,59.81849822201949,
Pictures/IA80_40_G95p.bmp,Pictures/IA80_40_G95p.bmp,Pictures/IA80.bmp,"

"Think of the payoff, gamble!"",1,risk,5,0,5,0,0,6,6,8,,,,,,,,,,,,,,,,,,,,,,,,,1782.4756356040016,None,1784.4923794119968,1786.4782877010293,1786.4916883580154,None,1788.0121898520156,None,None,,1790.0084967360017,None,1790.0084967360017,None,1790.0084967360017,None,None,None,None,None,1793.0808530659997,None,1793.0808530659997,None,None,1793.0808530659997,None,None,None,None,None,,,,,,,999,001,2019_Sep_09_2259,Test,3.1.5,59.81849822201949,
Pictures/IA25_L15.bmp,Pictures/IA25_L15.bmp,Pictures/IA25.bmp,"

"There's not much on the line here, gamble!"",1,risk,5,0,5,0,0,7,7,19,,,,,,,,,,,,,,,,,,,,,,,,,1794.9941148870275,None,1797.0118443440297,1798.9959170130314,1799.0107837890391,None,1800.5310455440194,None,None,,1802.5312402720447,None,1802.5312402720447,None,1802.5312402720447,None,None,None,None,None,1805.5958939770353,None,1805.5958939770353,None,None,1805.5958939770353,None,None,None,None,None,,,,,,,999,001,2019_Sep_09_2259,Test,3.1.5,59.81849822201949,
Pictures/IA100_G60.bmp,Pictures/IA100_G60.bmp,Pictures/IA100.bmp,"

"Be cautious, don't gamble for this one."",0,safe,5,0,5,0,0,8,8,15,,,,,,,,,,,,,,,,,,,,,,,,,1807.5133909090073,None,1809.5316968359984,1811.5135113730212,1811.5293996830005,None,1813.0324395620264,None,None,,1815.0490826550522,None,1815.0490826550522,None,1815.0490826550522,None,None,None,None,None,1818.1147117550136,None,1818.1147117550136,None,None,1818.1147117550136,None,None,None,None,None,,,,,,,999,001,2019_Sep_09_2259,Test,3.1.5,59.81849822201949,
Pictures/IA75_L15.bmp,Pictures/IA75_L15.bmp,Pictures/IA75.bmp,"

"Trust me, gamble!"",1,risk,5,0,5,0,0,9,9,1,,,,,,,,,,,,,,,,,,,,,,,,,1820.0321702410001,None,1822.05034870503,1824.0324905360467,1824.0487009210046,None,1825.5683179390035,None,None,,1827.5687723080046,None,1827.5687723080046,None,1827.5687723080046,None,None,None,None,None,1830.6359353820444,None,1830.6359353820444,None,None,1830.6359353820444,None,None,None,None,None,,,,,,,999,001,2019_Sep_09_2259,Test,3.1.5,59.81849822201949,
Pictures/IA25_G15.bmp,Pictures/IA25_G15.bmp,Pictures/IA25.bmp,"

"I think you should take a gamble."",1,risk,5,0,5,0,0,10,10,4,,,,,,,,,,,,,,,,,,,,,,,,,1832.5509412120446,None,1834.5693670920446,1836.5517777799978,1836.5673603630275,None,1838.086232612026,None,None,,1840.086637843051,None,1840.086637843051,None,1840.086637843051,None,None,None,None,None,1843.1560787410126,None,1843.1560787410126,None,None,1843.1560787410126,None,None,None,None,None,,,,,,,999,001,2019_Sep_09_2259,Test,3.1.5,59.81849822201949,
Pictures/IA50_G10.bmp,Pictures/IA50_G10.bmp,Pictures/IA50.bmp,"

"Go with the safe option here!"",0,safe,5,0,5,0,0,11,11,10,,,,,,,,,,,,,,,,,,,,,,,,,1845.0693681760458,None,1847.0869431260508,1849.0702657450456,1849.085895265045,None,1850.6065442170366,None,None,,1852.6042325320304,None,1852.6042325320304,None,1852.6042325320304,None,None,None,None,None,1855.6739727920503,None,1855.6739727920503,None,None,1855.6739727920503,None,None,None,None,None,,,,,,,999,001,2019_Sep_09_2259,Test,3.1.5,59.81849822201949,
Pictures/IA80_40_L95p.bmp,Pictures/IA80_40_L95p.bmp,Pictures/IA80.bmp,"

"Let's stay with the certain option."",0,safe,5,0,5,0,0,12,12,5,,,,,,,,,,,,,,,,,,,,,,,,,1857.5869165520417,None,1859.6055724180187,1861.5873099820456,1861.604238259024,None,1863.105460261053,None,None,,1865.121580787003,None,1865.121580787003,None,1865.121580787003,None,None,None,None,None,1868.1935032880283,None,1868.1935032880283,None,None,1868.1935032880283,None,None,None,None,None,,,,,,,999,001,2019_Sep_09_2259,Test,3.1.5,59.81849822201949,
Pictures/IA75_G45.bmp,Pictures/IA75_G45.bmp,Pictures/IA75.bmp,"

"Don't gamble for this one."",0,safe,5,0,5,0,0,13,13,16,,,,,,,,,,,,,,,,,,,,,,,,,1870.1061742760357,None,1872.1235132450238,1874.1068662480102,1874.1068662480102,None,1875.6418832100462,None,None,,1877.6418521640007,None,1877.6418521640007,None,1877.6418521640007,None,None,None,None,None,1880.7088491700124,None,1880.7088491700124,None,None,1880.7088491700124,None,None,None,None,None,,,,,,,999,001,2019_Sep_09_2259,Test,3.1.5,59.81849822201949,
Pictures/IA50_L10.bmp,Pictures/IA50_L10.bmp,Pictures/IA50.bmp,"

"Play it safe, don’t gamble!"",0,safe,5,0,5,0,0,14,14,17,,,,,,,,,,,,,,,,,,,,,,,,,1882.626207548019,None,1884.6291857160395,1886.6268221930368,1886.6268221930368,None,1888.1442907790188,None,None,,1890.1438240910065,None,1890.1438240910065,None,1890.1438240910065,None,None,None,None,None,1893.2104033940122,None,1893.2104033940122,None,None,1893.2104033940122,None,None,None,None,None,,,,,,,999,001,2019_Sep_09_2259,Test,3.1.5,59.81849822201949,
Pictures/IA100_G40.bmp,Pictures/IA100_G40.bmp,Pictures/IA100.bmp,"

"Try your luck and gamble!"",1,risk,5,0,5,0,0,15,15,6,,,,,,,,,,,,,,,,,,,,,,,,,1895.1260739860008,None,1897.146258385037,1899.1288791630068,1899.143926067045,None,1900.6631667480106,None,None,,1902.663039979001,None,1902.663039979001,None,1902.663039979001,None,None,None,None,None,1905.7293192190118,None,1905.7293192190118,None,None,1905.7293192190118,None,None,None,None,None,,,,,,,999,001,2019_Sep_09_2259,Test,3.1.5,59.81849822201949,
Pictures/IA50_L20.bmp,Pictures/IA50_L20.bmp,Pictures/IA50.bmp,"

"Certainty is boring, take a risk!"",1,risk,5,0,5,0,0,16,16,0,,,,,,,,,,,,,,,,,,,,,,,,,1907.645078517031,None,1909.6641618779977,1911.6470916210092,1911.6625864180387,None,1913.1668417580076,None,None,,1915.1818847130053,None,1915.1818847130053,None,1915.1818847130053,None,None,None,None,None,1918.2515236780164,None,1918.2515236780164,None,None,1918.2515236780164,None,None,None,None,None,,,,,,,999,001,2019_Sep_09_2259,Test,3.1.5,59.81849822201949,
Pictures/IA75_G30.bmp,Pictures/IA75_G30.bmp,Pictures/IA75.bmp,"

"Be bold, gamble!"",1,risk,5,0,5,0,0,17,17,2,,,,,,,,,,,,,,,,,,,,,,,,,1920.1655894500436,None,1922.1829519620514,1924.164721128007,1924.164721128007,None,1925.682544861047,None,None,,1927.700151202036,None,1927.700151202036,None,1927.700151202036,None,None,None,None,None,1930.767088644032,None,1930.767088644032,None,None,1930.767088644032,None,None,None,None,None,,,,,,,999,001,2019_Sep_09_2259,Test,3.1.5,59.81849822201949,
Pictures/IA40_20_L95p.bmp,Pictures/IA40_20_L95p.bmp,Pictures/IA40.bmp,"

"Trust me, gamble!"",1,risk,5,0,5,0,0,18,18,18,,,,,,,,,,,,,,,,,,,,,,,,,1932.6826153870206,None,1934.701653524011,1936.6838728460134,1936.7015478020185,None,1938.2033642170136,None,None,,1940.2194761130377,None,1940.2194761130377,None,1940.2194761130377,None,None,None,None,None,1943.2868762080325,None,1943.2868762080325,None,None,1943.2868762080325,None,None,None,None,None,,,,,,,999,001,2019_Sep_09_2259,Test,3.1.5,59.81849822201949,
Pictures/IA100_G80.bmp,Pictures/IA100_G80.bmp,Pictures/IA100.bmp,"

"Why not gamble?"",1,risk,5,0,5,0,0,19,19,14,,,,,,,,,,,,,,,,,,,,,,,,,1945.2025423130253,None,1947.2207749170484,1949.2030260910396,1949.2186940149986,None,1950.7362359870458,None,None,,1952.7371152790147,None,1952.7371152790147,None,1952.7371152790147,None,None,None,None,None,1955.8072606120259,None,1955.8072606120259,None,None,1955.8072606120259,None,None,None,None,None,,,,,,,999,001,2019_Sep_09_2259,Test,3.1.5,59.81849822201949,
,,,,,,5,0,5,0,,,,,,,,,,,,,,,,,,,,,,,,,,,,,,,,,,,,,,,,,,,,,,,,,,,,,,,,,,,,1957.7896095210453,None,return,339.4035081389593,1957.7896095210453,None,999,001,2019_Sep_09_2259,Test,3.1.5,59.81849822201949,
Pictures/IA100_G60.bmp,Pictures/IA100_G60.bmp,Pictures/IA100.bmp,"

"Be cautious, don't gamble for this one."",0,safe,6,0,6,0,0,0,0,16,,,,,,,2297.3120051310398,None,2297.3120051310398,None,2297.3120051310398,None,right,4.682403245009482,2297.3120051310398,None,2297.3120051310398,None,2297.3120051310398,None,return,5.162399173015729,2297.3120051310398,None,2302.5132924470236,None,2304.5112626250484,2306.4934098240337,2306.5108650230104,None,2308.029284080025,None,None,,2310.0306333710323,None,2310.0306333710323,None,2310.0306333710323,None,None,None,None,None,2313.099121427047,None,2313.099121427047,None,None,2313.099121427047,None,None,None,None,None,,,,,,,999,001,2019_Sep_09_2259,Test,3.1.5,59.81849822201949,
Pictures/IA75_L45.bmp,Pictures/IA75_L45.bmp,Pictures/IA75.bmp,"

"Don't gamble for this one, play it safe."",0,safe,6,0,6,0,0,1,1,2,,,,,,,,,,,,,,,,,,,,,,,,,2315.012606561999,None,2317.0310922260396,2319.013447245001,2319.029691864038,None,2320.5485970580485,None,None,,2322.5478544450016,None,2322.5478544450016,None,2322.5478544450016,None,None,None,None,None,2325.616852072999,None,2325.616852072999,None,None,2325.616852072999,None,None,None,None,None,,,,,,,999,001,2019_Sep_09_2259,Test,3.1.5,59.81849822201949,
Pictures/IA25_G15.bmp,Pictures/IA25_G15.bmp,Pictures/IA25.bmp,"

"I think you should take a gamble."",1,risk,6,0,6,0,0,2,2,1,,,,,,,,,,,,,,,,,,,,,,,,,2327.5301055420423,None,2329.5494033480063,2331.5309699330246,2331.548432387004,None,2333.0523403620464,None,None,,2335.067036845023,None,2335.067036845023,None,2335.067036845023,None,None,None,None,None,2338.134344083024,None,2338.134344083024,None,None,2338.134344083024,None,None,None,None,None,,,,,,,999,001,2019_Sep_09_2259,Test,3.1.5,59.81849822201949,
Pictures/IA75_L30.bmp,Pictures/IA75_L30.bmp,Pictures/IA75.bmp,"

"Hold back, stay with the safe choice."",0,safe,6,0,6,0,0,3,3,5,,,,,,,,,,,,,,,,,,,,,,,,,2340.049279234023,None,2342.068477903027,2344.0491793720284,2344.0658563990146,None,2345.585469505051,None,None,,2347.585963663005,None,2347.585963663005,None,2347.585963663005,None,None,None,None,None,2350.6550545640057,None,2350.6550545640057,None,None,2350.6550545640057,None,None,None,None,None,,,,,,,999,001,2019_Sep_09_2259,Test,3.1.5,59.81849822201949,
Pictures/IA50_G20.bmp,Pictures/IA50_G20.bmp,Pictures/IA50.bmp,"

"Let's venture and take a risk!"",1,risk,6,0,6,0,0,4,4,18,,,,,,,,,,,,,,,,,,,,,,,,,2352.5682077800157,None,2354.5850861960207,2356.5713363030227,2356.5843600030057,None,2358.1047759480425,None,None,,2360.1039679000387,None,2360.1039679000387,None,2360.1039679000387,None,None,None,None,None,2363.1705994880176,None,2363.1705994880176,None,None,2363.1705994880176,None,None,None,None,None,,,,,,,999,001,2019_Sep_09_2259,Test,3.1.5,59.81849822201949,
Pictures/IA25_L10.bmp,Pictures/IA25_L10.bmp,Pictures/IA25.bmp,"

"Dont be afraid to take the risk!"",1,risk,6,0,6,0,0,5,5,14,,,,,,,,,,,,,,,,,,,,,,,,,2365.0873809470213,None,2367.1062747960095,2369.089791605016,2369.1024480400374,None,2370.606799548026,None,None,,2372.6235315620434,None,2372.6235315620434,None,2372.6235315620434,None,None,None,None,None,2375.6921364630107,None,2375.6921364630107,None,None,2375.6921364630107,None,None,None,None,None,,,,,,,999,001,2019_Sep_09_2259,Test,3.1.5,59.81849822201949,
Pictures/IA50_L40.bmp,Pictures/IA50_L40.bmp,Pictures/IA50.bmp,"

"That gamble doesn't sound too good, play it safe."",0,safe,6,0,6,0,0,6,6,11,,,,,,,,,,,,,,,,,,,,,,,,,2377.6060447290074,None,2379.6241530560073,2381.607348526013,2381.6228420900297,None,2383.141887991049,None,None,,2385.1417409680435,None,2385.1417409680435,None,2385.1417409680435,None,None,None,None,None,2388.2098422810086,None,2388.2098422810086,None,None,2388.2098422810086,None,None,None,None,None,,,,,,,999,001,2019_Sep_09_2259,Test,3.1.5,59.81849822201949,
Pictures/IA100_L80.bmp,Pictures/IA100_L80.bmp,Pictures/IA100.bmp,"

"Go all in!"",1,risk,6,0,6,0,0,7,7,19,,,,,,,,,,,,,,,,,,,,,,,,,2390.1242004020023,None,2392.141282314027,2394.1248631810304,2394.1408925100113,None,2395.6442152390373,None,None,,2397.6586789240246,None,2397.6586789240246,None,2397.6586789240246,None,None,None,None,None,2400.728273014014,None,2400.728273014014,None,None,2400.728273014014,None,None,None,None,None,,,,,,,999,001,2019_Sep_09_2259,Test,3.1.5,59.81849822201949,
Pictures/IA50_G40.bmp,Pictures/IA50_G40.bmp,Pictures/IA50.bmp,"

"It would probably be best to play it safe."",0,safe,6,0,6,0,0,8,8,4,,,,,,,,,,,,,,,,,,,,,,,,,2402.6438579320093,None,2404.6622075330233,2406.644356172008,2406.6597456920426,None,2408.179276238021,None,None,,2410.179476653051,None,2410.179476653051,None,2410.179476653051,None,None,None,None,None,2413.2455584690324,None,2413.2455584690324,None,None,2413.2455584690324,None,None,None,None,None,,,,,,,999,001,2019_Sep_09_2259,Test,3.1.5,59.81849822201949,
Pictures/IA25_G20.bmp,Pictures/IA25_G20.bmp,Pictures/IA25.bmp,"

"I wouldn't gamble for this one. "",0,safe,6,0,6,0,0,9,9,6,,,,,,,,,,,,,,,,,,,,,,,,,2415.162504075037,None,2417.180886589049,2419.1637393380515,2419.1770644380013,None,2420.6836879019975,None,None,,2422.6984019530355,None,2422.6984019530355,None,2422.6984019530355,None,None,None,None,None,2425.763419716037,None,2425.763419716037,None,None,2425.763419716037,None,None,None,None,None,,,,,,,999,001,2019_Sep_09_2259,Test,3.1.5,59.81849822201949,
Pictures/IA25_L20.bmp,Pictures/IA25_L20.bmp,Pictures/IA25.bmp,"

"Don't be tempted to gamble."",0,safe,6,0,6,0,0,10,10,3,,,,,,,,,,,,,,,,,,,,,,,,,2427.6809659470455,None,2429.7004707850283,2431.681402807997,2431.6974382920307,None,2433.216329884017,None,None,,2435.216489014041,None,2435.216489014041,None,2435.216489014041,None,None,None,None,None,2438.286368178029,None,2438.286368178029,None,None,2438.286368178029,None,None,None,None,None,,,,,,,999,001,2019_Sep_09_2259,Test,3.1.5,59.81849822201949,
Pictures/IA110_55_L95p.bmp,Pictures/IA110_55_L95p.bmp,Pictures/IA110.bmp,"

"Trust me, gamble!"",1,risk,6,0,6,0,0,11,11,10,,,,,,,,,,,,,,,,,,,,,,,,,2440.182494631037,None,2442.201015649014,2444.1850099080475,2444.198027099017,None,2445.704596405034,None,None,,2447.7183362230426,None,2447.7183362230426,None,2447.7183362230426,None,None,None,None,None,2450.7884232810466,None,2450.7884232810466,None,None,2450.7884232810466,None,None,None,None,None,,,,,,,999,001,2019_Sep_09_2259,Test,3.1.5,59.81849822201949,
Pictures/IA40_20_G95p.bmp,Pictures/IA40_20_G95p.bmp,Pictures/IA40.bmp,"

"Hold back, stay with the safe choice."",0,safe,6,0,6,0,0,12,12,0,,,,,,,,,,,,,,,,,,,,,,,,,2452.7011478550266,None,2454.720517092035,2456.701694454998,2456.701694454998,None,2458.221819408005,None,None,,2460.2379401470535,None,2460.2379401470535,None,2460.2379401470535,None,None,None,None,None,2463.304466110014,None,2463.304466110014,None,None,2463.304466110014,None,None,None,None,None,,,,,,,999,001,2019_Sep_09_2259,Test,3.1.5,59.81849822201949,
Pictures/IA100_G40.bmp,Pictures/IA100_G40.bmp,Pictures/IA100.bmp,"

"Try your luck and gamble!"",1,risk,6,0,6,0,0,13,13,15,,,,,,,,,,,,,,,,,,,,,,,,,2465.2203748100437,None,2467.2386051500216,2469.219044441008,2469.2358990360517,None,2470.75538036105,None,None,,2472.7572471800377,None,2472.7572471800377,None,2472.7572471800377,None,None,None,None,None,2475.822410373017,None,2475.822410373017,None,None,2475.822410373017,None,None,None,None,None,,,,,,,999,001,2019_Sep_09_2259,Test,3.1.5,59.81849822201949,
Pictures/IA20_10_G95p.bmp,Pictures/IA20_10_G95p.bmp,Pictures/IA20.bmp,"

"Take a leap, I think you should gamble."",1,risk,6,0,6,0,0,14,14,8,,,,,,,,,,,,,,,,,,,,,,,,,2477.7385074840277,None,2479.7584692350356,2481.7417775970534,2481.7545135490363,None,2483.2745380750275,None,None,,2485.272003599035,None,2485.272003599035,None,2485.272003599035,None,None,None,None,None,2488.34470022202,None,2488.34470022202,None,None,2488.34470022202,None,None,None,None,None,,,,,,,999,001,2019_Sep_09_2259,Test,3.1.5,59.81849822201949,
Pictures/IA25_L5.bmp,Pictures/IA25_L5.bmp,Pictures/IA25.bmp,"

"It would be smarter to choose the safe option."",0,safe,6,0,6,0,0,15,15,9,,,,,,,,,,,,,,,,,,,,,,,,,2490.258140067046,None,2492.275614085025,2494.260105719033,2494.273460420023,None,2495.794185300998,None,None,,2497.793536229001,None,2497.793536229001,None,2497.793536229001,None,None,None,None,None,2500.859481560008,None,2500.859481560008,None,None,2500.859481560008,None,None,None,None,None,,,,,,,999,001,2019_Sep_09_2259,Test,3.1.5,59.81849822201949,
Pictures/IA25_L15.bmp,Pictures/IA25_L15.bmp,Pictures/IA25.bmp,"

"There's not much on the line here, gamble!"",1,risk,6,0,6,0,0,16,16,12,,,,,,,,,,,,,,,,,,,,,,,,,2502.776472938014,None,2504.7961562900455,2506.777078131039,2506.7931441860273,None,2508.2953502710443,None,None,,2510.311144927051,None,2510.311144927051,None,2510.311144927051,None,None,None,None,None,2513.381108583999,None,2513.381108583999,None,None,2513.381108583999,None,None,None,None,None,,,,,,,999,001,2019_Sep_09_2259,Test,3.1.5,59.81849822201949,
Pictures/IA100_G20.bmp,Pictures/IA100_G20.bmp,Pictures/IA100.bmp,"

"Go ahead and gamble!"",1,risk,6,0,6,0,0,17,17,13,,,,,,,,,,,,,,,,,,,,,,,,,2515.2946485570283,None,2517.313221031043,2519.2957955400343,2519.311687209003,None,2520.8315576120513,None,None,,2522.8314770840225,None,2522.8314770840225,None,2522.8314770840225,None,None,None,None,None,2525.900389295013,None,2525.900389295013,None,None,2525.900389295013,None,None,None,None,None,,,,,,,999,001,2019_Sep_09_2259,Test,3.1.5,59.81849822201949,
Pictures/IA100_L60.bmp,Pictures/IA100_L60.bmp,Pictures/IA100.bmp,"

"You'd have a lot to lose, don't gamble."",0,safe,6,0,6,0,0,18,18,7,,,,,,,,,,,,,,,,,,,,,,,,,2527.813862261013,None,2529.832857005007,2531.8153329320485,2531.82984476001,None,2533.3504791239975,None,None,,2535.3497519600205,None,2535.3497519600205,None,2535.3497519600205,None,None,None,None,None,2538.415377422003,None,2538.415377422003,None,None,2538.415377422003,None,None,None,None,None,,,,,,,999,001,2019_Sep_09_2259,Test,3.1.5,59.81849822201949,
Pictures/IA50_L30.bmp,Pictures/IA50_L30.bmp,Pictures/IA50.bmp,"

"Take a leap, I think you should gamble."",1,risk,6,0,6,0,0,19,19,17,,,,,,,,,,,,,,,,,,,,,,,,,2540.331236165017,None,2542.3512143760454,2544.3346669320017,2544.3480592090054,None,2545.869000565028,None,None,,2547.8650486810366,None,2547.8650486810366,None,2547.8650486810366,None,None,None,None,None,2550.934084332024,None,2550.934084332024,None,None,2550.934084332024,None,None,None,None,None,,,,,,,999,001,2019_Sep_09_2259,Test,3.1.5,59.81849822201949,
,,,,,,6,0,6,0,,,,,,,,,,,,,,,,,,,,,,,,,,,,,,,,,,,,,,,,,,,,,,,,,,,,,,,,,,,,2552.9163589000236,None,return,56.80224774702219,2552.9163589000236,None,999,001,2019_Sep_09_2259,Test,3.1.5,59.81849822201949,
