Choice,Choice2,Amount,AdviceVar1,GambleAdviceNum,GambleAdviceType,trials_2.thisRepN,trials_2.thisTrialN,trials_2.thisN,trials_2.thisIndex,trials.thisRepN,trials.thisTrialN,trials.thisN,trials.thisIndex,instructions.started,instructions.stopped,space.keys,space.rt,space.started,space.stopped,chooseInst.started,chooseInst.stopped,Ad1.started,Ad1.stopped,Ad2.started,Ad2.stopped,key_resp_3.keys,key_resp_3.rt,key_resp_3.started,key_resp_3.stopped,Ad1pic.started,Ad1pic.stopped,Ad2pic.started,Ad2pic.stopped,enter.keys,enter.rt,enter.started,enter.stopped,iSi.started,iSi.stopped,receiveMoneyPicture.started,receiveMoneyPicture.stopped,ISI2.started,ISI2.stopped,ChoicePic.started,ChoicePic.stopped,response.keys,response.started,response.stopped,yesNo.started,yesNo.stopped,ask.started,ask.stopped,getAdv.started,getAdv.stopped,textForCode.started,textForCode.stopped,blank.started,blank.stopped,ChoicePic2.started,ChoicePic2.stopped,resp.keys,resp.started,resp.stopped,checkL1.started,checkL1.stopped,checkR1.started,checkR1.stopped,response.rt,participant,session,date,expName,psychopyVersion,frameRate,
,,,,,,,,,,,,,,10.395637036999688,None,space,0.9178072909999173,10.395637036999688,None,,,,,,,,,,,,,,,,,,,,,,,,,,,,,,,,,,,,,,,,,,,,,,,,,,999,001,2019_Sep_30_0912,Test,3.1.5,60.84796149063992,
Pictures/IA75_L30.bmp,Pictures/IA75_L30.bmp,Pictures/IA75.bmp,"

"Hold back, stay with the safe choice."",0,safe,0,0,0,0,0,0,0,4,,,,,,,11.63116791198263,None,11.63116791198263,None,11.63116791198263,None,left,1.0094291559944395,11.63116791198263,None,11.63116791198263,None,11.63116791198263,None,return,2.190723543986678,11.63116791198263,None,13.86464946900378,None,15.88619761998416,17.36393017799128,17.379882771987468,None,18.936267768993275,None,None,20.94631470699096,None,20.94631470699096,None,20.94631470699096,None,None,None,None,None,24.053611387993442,None,24.053611387993442,None,None,24.053611387993442,None,None,None,None,None,,999,001,2019_Sep_30_0912,Test,3.1.5,60.84796149063992,
Pictures/IA25_L10.bmp,Pictures/IA25_L10.bmp,Pictures/IA25.bmp,"

"Dont be afraid to take the risk!"",1,risk,0,0,0,0,0,1,1,10,,,,,,,,,,,,,,,,,,,,,,,,,25.88190922999638,None,27.900512952997815,29.382515793986386,29.39889327099081,None,30.918792179989396,None,None,32.93169982498512,None,32.93169982498512,None,32.93169982498512,None,None,None,None,None,36.018006711005,None,36.018006711005,None,None,36.018006711005,None,None,None,None,None,,999,001,2019_Sep_30_0912,Test,3.1.5,60.84796149063992,
Pictures/IA25_G15.bmp,Pictures/IA25_G15.bmp,Pictures/IA25.bmp,"

"I think you should take a gamble."",1,risk,0,0,0,0,0,2,2,13,,,,,,,,,,,,,,,,,,,,,,,,,37.90042411899776,None,39.920594116003485,41.40058866000618,41.41730558799463,None,42.92337446199963,None,None,44.95028509799158,None,44.95028509799158,None,44.95028509799158,None,None,None,None,None,48.02436133599258,None,48.02436133599258,None,None,48.02436133599258,None,None,None,None,None,,999,001,2019_Sep_30_0912,Test,3.1.5,60.84796149063992,
Pictures/IA50_G30.bmp,Pictures/IA50_G30.bmp,Pictures/IA50.bmp,"

"I think you should gamble."",1,risk,0,0,0,0,0,3,3,12,,,,,,,,,,,,,,,,,,,,,,,,,49.92033800799982,None,51.93506486300612,53.42044140098733,53.436502972996095,None,54.95059181097895,None,y,56.96753683499992,None,56.96753683499992,None,56.96753683499992,None,57.973676977999276,None,57.973676977999276,58.972018728993135,60.08595826200326,None,60.08595826200326,None,None,60.08595826200326,None,None,None,None,None,0.9685845880012494,999,001,2019_Sep_30_0912,Test,3.1.5,60.84796149063992,
Pictures/IA100_L60.bmp,Pictures/IA100_L60.bmp,Pictures/IA100.bmp,"

"You'd have a lot to lose, don't gamble."",0,safe,0,0,0,0,0,4,4,15,,,,,,,,,,,,,,,,,,,,,,,,,61.97148122798535,None,63.985235714004375,65.46763045099215,65.48342470699572,None,66.99162049399456,None,None,69.01710014298442,None,69.01710014298442,None,69.01710014298442,None,None,None,None,None,72.10150295199128,None,72.10150295199128,None,None,72.10150295199128,None,None,None,None,None,,999,001,2019_Sep_30_0912,Test,3.1.5,60.84796149063992,
Pictures/IA80_40_L95p.bmp,Pictures/IA80_40_L95p.bmp,Pictures/IA80.bmp,"

"Let's stay with the certain option."",0,safe,0,0,0,0,0,5,5,14,,,,,,,,,,,,,,,,,,,,,,,,,73.98376506500063,None,75.99261300600483,77.47540730299079,77.48977638198994,None,79.00190033900435,None,None,81.01704201000393,None,81.01704201000393,None,81.01704201000393,None,None,None,None,None,84.09753780299798,None,84.09753780299798,None,None,84.09753780299798,None,None,None,None,None,,999,001,2019_Sep_30_0912,Test,3.1.5,60.84796149063992,
Pictures/IA100_G60.bmp,Pictures/IA100_G60.bmp,Pictures/IA100.bmp,"

"Be cautious, don't gamble for this one."",0,safe,0,0,0,0,0,6,6,1,,,,,,,,,,,,,,,,,,,,,,,,,85.97575936699286,None,87.98562870998285,89.4746429429797,89.4936170919973,None,90.98538616098813,None,None,93.01738937900518,None,93.01738937900518,None,93.01738937900518,None,None,None,None,None,96.10437152898521,None,96.10437152898521,None,None,96.10437152898521,None,None,None,None,None,,999,001,2019_Sep_30_0912,Test,3.1.5,60.84796149063992,
Pictures/IA75_L45.bmp,Pictures/IA75_L45.bmp,Pictures/IA75.bmp,"

"Don't gamble for this one, play it safe."",0,safe,0,0,0,0,0,7,7,16,,,,,,,,,,,,,,,,,,,,,,,,,97.99361285200575,None,100.00352227900294,101.49478707200615,101.51071370800491,None,103.02363760099979,None,None,105.03704299099627,None,105.03704299099627,None,105.03704299099627,None,None,None,None,None,108.11940871799015,None,108.11940871799015,None,None,108.11940871799015,None,None,None,None,None,,999,001,2019_Sep_30_0912,Test,3.1.5,60.84796149063992,
Pictures/IA100_L80.bmp,Pictures/IA100_L80.bmp,Pictures/IA100.bmp,"

"Go all in!"",1,risk,0,0,0,0,0,8,8,2,,,,,,,,,,,,,,,,,,,,,,,,,109.99589789600577,None,112.01312030298868,113.49554631000501,113.51270431198645,None,115.0323955930071,None,None,117.03577327899984,None,117.03577327899984,None,117.03577327899984,None,None,None,None,None,120.12056735699298,None,120.12056735699298,None,None,120.12056735699298,None,None,None,None,None,,999,001,2019_Sep_30_0912,Test,3.1.5,60.84796149063992,
Pictures/IA75_G15.bmp,Pictures/IA75_G15.bmp,Pictures/IA75.bmp,"

"Take a chance!"",1,risk,0,0,0,0,0,9,9,11,,,,,,,,,,,,,,,,,,,,,,,,,122.0143959489942,None,124.03497187799076,125.51446719598607,125.53149465998285,None,127.03910743200686,None,None,129.0649195399892,None,129.0649195399892,None,129.0649195399892,None,None,None,None,None,132.13424070097972,None,132.13424070097972,None,None,132.13424070097972,None,None,None,None,None,,999,001,2019_Sep_30_0912,Test,3.1.5,60.84796149063992,
Pictures/IA50_L30.bmp,Pictures/IA50_L30.bmp,Pictures/IA50.bmp,"

"Take a leap, I think you should gamble."",1,risk,0,0,0,0,0,10,10,18,,,,,,,,,,,,,,,,,,,,,,,,,134.0331786040042,None,136.0522476240003,137.53332501699333,137.55001039800118,None,139.06808655898203,None,None,141.08280785300303,None,141.08280785300303,None,141.08280785300303,None,None,None,None,None,144.15142483098316,None,144.15142483098316,None,None,144.15142483098316,None,None,None,None,None,,999,001,2019_Sep_30_0912,Test,3.1.5,60.84796149063992,
Pictures/IA25_G10.bmp,Pictures/IA25_G10.bmp,Pictures/IA25.bmp,"

"What's life without a little risk?"",1,risk,0,0,0,0,0,11,11,7,,,,,,,,,,,,,,,,,,,,,,,,,146.0508068089839,None,148.0705934180005,149.55155385000398,149.56776900799014,None,151.07436301498092,None,None,153.1180443560006,None,153.1180443560006,None,153.1180443560006,None,None,None,None,None,156.18871541297995,None,156.18871541297995,None,None,156.18871541297995,None,None,None,None,None,,999,001,2019_Sep_30_0912,Test,3.1.5,60.84796149063992,
Pictures/IA75_G45.bmp,Pictures/IA75_G45.bmp,Pictures/IA75.bmp,"

"Don't gamble for this one."",0,safe,0,0,0,0,0,12,12,9,,,,,,,,,,,,,,,,,,,,,,,,,158.07006890099728,None,160.08489873900544,161.57056983897928,161.5878130699857,None,163.10116233400186,None,None,165.11854645897984,None,165.11854645897984,None,165.11854645897984,None,None,None,None,None,168.18804212499526,None,168.18804212499526,None,None,168.18804212499526,None,None,None,None,None,,999,001,2019_Sep_30_0912,Test,3.1.5,60.84796149063992,
Pictures/IA25_G20.bmp,Pictures/IA25_G20.bmp,Pictures/IA25.bmp,"

"I wouldn't gamble for this one. "",0,safe,0,0,0,0,0,13,13,3,,,,,,,,,,,,,,,,,,,,,,,,,170.08440913900267,None,172.0935514229932,173.58894633798627,173.58894633798627,None,175.10392464898177,None,None,177.1173286389967,None,177.1173286389967,None,177.1173286389967,None,None,None,None,None,180.19139622699004,None,180.19139622699004,None,None,180.19139622699004,None,None,None,None,None,,999,001,2019_Sep_30_0912,Test,3.1.5,60.84796149063992,
Pictures/IA100_L20.bmp,Pictures/IA100_L20.bmp,Pictures/IA100.bmp,"

"Try to win as much money as you can, gamble!"",1,risk,0,0,0,0,0,14,14,17,,,,,,,,,,,,,,,,,,,,,,,,,182.07357800399768,None,184.08488131698687,185.57436842098832,185.59056610800326,None,187.1028536069789,None,None,189.11656331599806,None,189.11656331599806,None,189.11656331599806,None,None,None,None,None,192.20215810099035,None,192.20215810099035,None,None,192.20215810099035,None,None,None,None,None,,999,001,2019_Sep_30_0912,Test,3.1.5,60.84796149063992,
Pictures/IA50_L10.bmp,Pictures/IA50_L10.bmp,Pictures/IA50.bmp,"

"Play it safe, don’t gamble!"",0,safe,0,0,0,0,0,15,15,6,,,,,,,,,,,,,,,,,,,,,,,,,194.09303449999425,None,196.10151314700488,197.59331236899015,197.6095779830066,None,199.11868799998774,None,None,201.13529692598968,None,201.13529692598968,None,201.13529692598968,None,None,None,None,None,204.21767643099884,None,204.21767643099884,None,None,204.21767643099884,None,None,None,None,None,,999,001,2019_Sep_30_0912,Test,3.1.5,60.84796149063992,
Pictures/IA75_G30.bmp,Pictures/IA75_G30.bmp,Pictures/IA75.bmp,"

"Be bold, gamble!"",1,risk,0,0,0,0,0,16,16,0,,,,,,,,,,,,,,,,,,,,,,,,,206.11188715699245,None,208.12280993699096,209.61182679998456,209.62805381198996,None,211.13343848398654,None,None,213.15104503498878,None,213.15104503498878,None,213.15104503498878,None,None,None,None,None,216.23284480097936,None,216.23284480097936,None,None,216.23284480097936,None,None,None,None,None,,999,001,2019_Sep_30_0912,Test,3.1.5,60.84796149063992,
Pictures/IA50_G40.bmp,Pictures/IA50_G40.bmp,Pictures/IA50.bmp,"

"It would probably be best to play it safe."",0,safe,0,0,0,0,0,17,17,8,,,,,,,,,,,,,,,,,,,,,,,,,218.13078748999396,None,220.13868379499763,221.63019418300246,221.64668963500299,None,223.16526121197967,None,None,225.17998729500687,None,225.17998729500687,None,225.17998729500687,None,None,None,None,None,228.26652828400256,None,228.26652828400256,None,None,228.26652828400256,None,None,None,None,None,,999,001,2019_Sep_30_0912,Test,3.1.5,60.84796149063992,
Pictures/IA75_L15.bmp,Pictures/IA75_L15.bmp,Pictures/IA75.bmp,"

"Trust me, gamble!"",1,risk,0,0,0,0,0,18,18,19,,,,,,,,,,,,,,,,,,,,,,,,,230.14901959800045,None,232.16727135298424,233.64984403099515,233.6663913129887,None,235.18403875498916,None,None,237.19903989098384,None,237.19903989098384,None,237.19903989098384,None,None,None,None,None,240.27278184398892,None,240.27278184398892,None,None,240.27278184398892,None,None,None,None,None,,999,001,2019_Sep_30_0912,Test,3.1.5,60.84796149063992,
Pictures/IA25_L5.bmp,Pictures/IA25_L5.bmp,Pictures/IA25.bmp,"

"It would be smarter to choose the safe option."",0,safe,0,0,0,0,0,19,19,5,,,,,,,,,,,,,,,,,,,,,,,,,242.1670249879826,None,244.18510446499567,245.66754473399487,245.6831427529978,None,247.20181616800255,None,None,249.23490303798462,None,249.23490303798462,None,249.23490303798462,None,None,None,None,None,252.3050836279872,None,252.3050836279872,None,None,252.3050836279872,None,None,None,None,None,,999,001,2019_Sep_30_0912,Test,3.1.5,60.84796149063992,
