Choice,Choice2,Amount,AdviceVar1,GambleAdviceNum,GambleAdviceType,trials_2.thisRepN,trials_2.thisTrialN,trials_2.thisN,trials_2.thisIndex,trials.thisRepN,trials.thisTrialN,trials.thisN,trials.thisIndex,instructions.started,instructions.stopped,space.keys,space.rt,space.started,space.stopped,chooseInst.started,chooseInst.stopped,Ad1.started,Ad1.stopped,Ad2.started,Ad2.stopped,key_resp_3.keys,key_resp_3.rt,key_resp_3.started,key_resp_3.stopped,Ad1pic.started,Ad1pic.stopped,Ad2pic.started,Ad2pic.stopped,enter.keys,enter.rt,enter.started,enter.stopped,iSi.started,iSi.stopped,receiveMoneyPicture.started,receiveMoneyPicture.stopped,ISI2.started,ISI2.stopped,ChoicePic.started,ChoicePic.stopped,response.keys,response.started,response.stopped,yesNo.started,yesNo.stopped,ask.started,ask.stopped,getAdv.started,getAdv.stopped,textForCode.started,textForCode.stopped,blank.started,blank.stopped,ChoicePic2.started,ChoicePic2.stopped,resp.keys,resp.started,resp.stopped,checkL1.started,checkL1.stopped,checkR1.started,checkR1.stopped,participant,session,date,expName,psychopyVersion,frameRate,
,,,,,,,,,,,,,,16.284816900035366,None,space,1.3429511999711394,16.284816900035366,None,,,,,,,,,,,,,,,,,,,,,,,,,,,,,,,,,,,,,,,,,,,,,,,,,999,001,2019_Sep_17_1121,Test,3.1.2,59.43532872000871,
Pictures\IA50_L20.bmp,Pictures\IA50_L20.bmp,Pictures\IA50.bmp,"

"Certainty is boring, take a risk!"",1,risk,0,0,0,0,0,0,0,18,,,,,,,27.520968299999367,None,27.520968299999367,None,27.520968299999367,None,right,1.2570275999605656,27.520968299999367,None,27.520968299999367,None,27.520968299999367,None,return,2.2664897000067867,27.520968299999367,None,29.835736600041855,None,32.1892419999931,33.34781659999862,33.34781659999862,None,34.87579510000069,None,None,38.123678600008134,None,38.123678600008134,None,38.123678600008134,None,None,None,None,None,40.81543720001355,None,40.81543720001355,None,None,40.81543720001355,None,None,None,None,None,999,001,2019_Sep_17_1121,Test,3.1.2,59.43532872000871,
Pictures\IA110_55_G95p.bmp,Pictures\IA110_55_G95p.bmp,Pictures\IA110.bmp,"

"Take a chance!"",1,risk,0,0,0,0,0,1,1,3,,,,,,,,,,,,,,,,,,,,,,,,,42.45920050004497,None,44.51324310002383,45.964121100027114,45.98896009998862,None,47.483206400007475,None,None,49.54850690002786,None,49.54850690002786,None,49.54850690002786,None,None,None,None,None,52.624451700015925,None,52.624451700015925,None,None,52.624451700015925,None,None,None,None,None,999,001,2019_Sep_17_1121,Test,3.1.2,59.43532872000871,
Pictures\IA80_40_L95p.bmp,Pictures\IA80_40_L95p.bmp,Pictures\IA80.bmp,"

"Let's stay with the certain option."",0,safe,0,0,0,0,0,2,2,12,,,,,,,,,,,,,,,,,,,,,,,,,54.557281300018076,None,56.62628880003467,58.05576610000571,58.07838459999766,None,59.61910660000285,None,None,61.64757970004575,None,61.64757970004575,None,61.64757970004575,None,None,None,None,None,64.73669789999258,None,64.73669789999258,None,None,64.73669789999258,None,None,None,None,None,999,001,2019_Sep_17_1121,Test,3.1.2,59.43532872000871,
Pictures\IA75_L15.bmp,Pictures\IA75_L15.bmp,Pictures\IA75.bmp,"

"Trust me, gamble!"",1,risk,0,0,0,0,0,3,3,4,,,,,,,,,,,,,,,,,,,,,,,,,66.66462080000201,None,68.71054600004572,70.18367250001756,70.18367250001756,None,71.70011570001952,None,None,73.7454577999888,None,73.7454577999888,None,73.7454577999888,None,None,None,None,None,76.83540810004342,None,76.83540810004342,None,None,76.83540810004342,None,None,None,None,None,999,001,2019_Sep_17_1121,Test,3.1.2,59.43532872000871,
Pictures\IA100_L20.bmp,Pictures\IA100_L20.bmp,Pictures\IA100.bmp,"

"Try to win as much money as you can, gamble!"",1,risk,0,0,0,0,0,4,4,13,,,,,,,,,,,,,,,,,,,,,,,,,78.76619840000058,None,80.81895919999806,82.28596340003423,82.28596340003423,None,83.83385840000119,None,None,85.8881314000464,None,85.8881314000464,None,85.8881314000464,None,None,None,None,None,88.91558100003749,None,88.91558100003749,None,None,88.91558100003749,None,None,None,None,None,999,001,2019_Sep_17_1121,Test,3.1.2,59.43532872000871,
Pictures\IA100_G40.bmp,Pictures\IA100_G40.bmp,Pictures\IA100.bmp,"

"Try your luck and gamble!"",1,risk,0,0,0,0,0,5,5,17,,,,,,,,,,,,,,,,,,,,,,,,,90.85714630002622,None,92.90830589999678,94.35581290000118,94.37838370003738,None,95.89793030003784,None,None,97.96240750001743,None,97.96240750001743,None,97.96240750001743,None,None,None,None,None,101.02071070001693,None,101.02071070001693,None,None,101.02071070001693,None,None,None,None,None,999,001,2019_Sep_17_1121,Test,3.1.2,59.43532872000871,
Pictures\IA100_G60.bmp,Pictures\IA100_G60.bmp,Pictures\IA100.bmp,"

"Be cautious, don't gamble for this one."",0,safe,0,0,0,0,0,6,6,16,,,,,,,,,,,,,,,,,,,,,,,,,102.9623786000302,None,105.00187580002239,106.44287160004023,106.47070910001639,None,108.01982680003857,None,None,110.05644130002474,None,110.05644130002474,None,110.05644130002474,None,None,None,None,None,113.13162790000206,None,113.13162790000206,None,None,113.13162790000206,None,None,None,None,None,999,001,2019_Sep_17_1121,Test,3.1.2,59.43532872000871,
Pictures\IA50_G30.bmp,Pictures\IA50_G30.bmp,Pictures\IA50.bmp,"

"I think you should gamble."",1,risk,0,0,0,0,0,7,7,10,,,,,,,,,,,,,,,,,,,,,,,,,115.05744120001327,None,117.10936830000719,118.55573409999488,118.57879990001675,None,120.12384030001704,None,None,122.15235260000918,None,122.15235260000918,None,122.15235260000918,None,None,None,None,None,125.2041982000228,None,125.2041982000228,None,None,125.2041982000228,None,None,None,None,None,999,001,2019_Sep_17_1121,Test,3.1.2,59.43532872000871,
Pictures\IA50_L40.bmp,Pictures\IA50_L40.bmp,Pictures\IA50.bmp,"

"That gamble doesn't sound too good, play it safe."",0,safe,0,0,0,0,0,8,8,0,,,,,,,,,,,,,,,,,,,,,,,,,127.14574280002853,None,129.1998702000128,130.6445687999949,130.66956230002688,None,132.18713279999793,None,None,134.24611280002864,None,134.24611280002864,None,134.24611280002864,None,None,None,None,None,137.32070690003457,None,137.32070690003457,None,None,137.32070690003457,None,None,None,None,None,999,001,2019_Sep_17_1121,Test,3.1.2,59.43532872000871,
Pictures\IA40_20_G95p.bmp,Pictures\IA40_20_G95p.bmp,Pictures\IA40.bmp,"

"Hold back, stay with the safe choice."",0,safe,0,0,0,0,0,9,9,7,,,,,,,,,,,,,,,,,,,,,,,,,139.26340729999356,None,141.3062800000189,142.7937164999894,142.7937164999894,None,144.2964670000365,None,None,146.3795740000205,None,146.3795740000205,None,146.3795740000205,None,None,None,None,None,149.4197417999967,None,149.4197417999967,None,None,149.4197417999967,None,None,None,None,None,999,001,2019_Sep_17_1121,Test,3.1.2,59.43532872000871,
Pictures\IA100_L40.bmp,Pictures\IA100_L40.bmp,Pictures\IA100.bmp,"

"Think of the payoff, gamble!"",1,risk,0,0,0,0,0,10,10,5,,,,,,,,,,,,,,,,,,,,,,,,,151.3645034999936,None,153.4184191999957,154.88950570003362,154.88950570003362,None,156.43903609999688,None,None,158.4605590000283,None,158.4605590000283,None,158.4605590000283,None,None,None,None,None,161.52181679999921,None,161.52181679999921,None,None,161.52181679999921,None,None,None,None,None,999,001,2019_Sep_17_1121,Test,3.1.2,59.43532872000871,
Pictures\IA50_G20.bmp,Pictures\IA50_G20.bmp,Pictures\IA50.bmp,"

"Let's venture and take a risk!"",1,risk,0,0,0,0,0,11,11,19,,,,,,,,,,,,,,,,,,,,,,,,,163.4543607000378,None,165.49250300001586,166.96803520002868,166.96803520002868,None,168.4800121000153,None,None,170.5441007000045,None,170.5441007000045,None,170.5441007000045,None,None,None,None,None,173.60712440003408,None,173.60712440003408,None,None,173.60712440003408,None,None,None,None,None,999,001,2019_Sep_17_1121,Test,3.1.2,59.43532872000871,
Pictures\IA80_40_G95p.bmp,Pictures\IA80_40_G95p.bmp,Pictures\IA80.bmp,"

"Think of the payoff, gamble!"",1,risk,0,0,0,0,0,12,12,15,,,,,,,,,,,,,,,,,,,,,,,,,175.54947750002611,None,177.60100610001246,179.06734870001674,179.06734870001674,None,180.59713480004575,None,None,182.64636140002403,None,182.64636140002403,None,182.64636140002403,None,None,None,None,None,185.7078615000355,None,185.7078615000355,None,None,185.7078615000355,None,None,None,None,None,999,001,2019_Sep_17_1121,Test,3.1.2,59.43532872000871,
Pictures\IA25_L15.bmp,Pictures\IA25_L15.bmp,Pictures\IA25.bmp,"

"There's not much on the line here, gamble!"",1,risk,0,0,0,0,0,13,13,6,,,,,,,,,,,,,,,,,,,,,,,,,187.64096560003236,None,189.69065629999386,191.13518690003548,191.15960740001174,None,192.7094386999961,None,None,194.73977829999058,None,194.73977829999058,None,194.73977829999058,None,None,None,None,None,197.81105160003062,None,197.81105160003062,None,None,197.81105160003062,None,None,None,None,None,999,001,2019_Sep_17_1121,Test,3.1.2,59.43532872000871,
Pictures\IA25_G5.bmp,Pictures\IA25_G5.bmp,Pictures\IA25.bmp,"

"Let's stay with the certain option."",0,safe,0,0,0,0,0,14,14,1,,,,,,,,,,,,,,,,,,,,,,,,,199.7477596999961,None,201.80111950001447,203.2714726999984,203.2714726999984,None,204.7660097000189,None,None,206.83909429999767,None,206.83909429999767,None,206.83909429999767,None,None,None,None,None,209.89384860004066,None,209.89384860004066,None,None,209.89384860004066,None,None,None,None,None,999,001,2019_Sep_17_1121,Test,3.1.2,59.43532872000871,
Pictures\IA50_L30.bmp,Pictures\IA50_L30.bmp,Pictures\IA50.bmp,"

"Take a leap, I think you should gamble."",1,risk,0,0,0,0,0,15,15,8,,,,,,,,,,,,,,,,,,,,,,,,,211.82721650000894,None,213.8767751000123,215.34406830003718,215.34406830003718,None,216.8947437000461,None,None,218.92539769998984,None,218.92539769998984,None,218.92539769998984,None,None,None,None,None,221.9973314999952,None,221.9973314999952,None,None,221.9973314999952,None,None,None,None,None,999,001,2019_Sep_17_1121,Test,3.1.2,59.43532872000871,
Pictures\IA75_L60.bmp,Pictures\IA75_L60.bmp,Pictures\IA75.bmp,"

"Why not take the gamble?"",1,risk,0,0,0,0,0,16,16,11,,,,,,,,,,,,,,,,,,,,,,,,,223.94086900004186,None,225.98486080003204,227.45223970001098,227.45223970001098,None,228.9940593999927,None,None,231.03376439999556,None,231.03376439999556,None,231.03376439999556,None,None,None,None,None,234.07456660002936,None,234.07456660002936,None,None,234.07456660002936,None,None,None,None,None,999,001,2019_Sep_17_1121,Test,3.1.2,59.43532872000871,
Pictures\IA20_10_L95p.bmp,Pictures\IA20_10_L95p.bmp,Pictures\IA20.bmp,"

"Don't be tempted to gamble."",0,safe,0,0,0,0,0,17,17,2,,,,,,,,,,,,,,,,,,,,,,,,,236.0196833999944,None,238.06224769999972,239.49973450001562,239.52705850003986,None,241.04617470002268,None,None,243.11054120003246,None,243.11054120003246,None,243.11054120003246,None,None,None,None,None,246.17299130000174,None,246.17299130000174,None,None,246.17299130000174,None,None,None,None,None,999,001,2019_Sep_17_1121,Test,3.1.2,59.43532872000871,
Pictures\IA25_L20.bmp,Pictures\IA25_L20.bmp,Pictures\IA25.bmp,"

"Don't be tempted to gamble."",0,safe,0,0,0,0,0,18,18,14,,,,,,,,,,,,,,,,,,,,,,,,,248.1164654000313,None,250.14938360004453,251.6086573000066,251.6323473000084,None,253.14940380002372,None,None,255.2436638000072,None,255.2436638000072,None,255.2436638000072,None,None,None,None,None,258.24827730003744,None,258.24827730003744,None,None,258.24827730003744,None,None,None,None,None,999,001,2019_Sep_17_1121,Test,3.1.2,59.43532872000871,
Pictures\IA25_L10.bmp,Pictures\IA25_L10.bmp,Pictures\IA25.bmp,"

"Dont be afraid to take the risk!"",1,risk,0,0,0,0,0,19,19,9,,,,,,,,,,,,,,,,,,,,,,,,,260.1537580000004,None,262.20773460000055,263.6530017000041,263.6771039000014,None,265.1876498000347,None,None,267.2409725000034,None,267.2409725000034,None,267.2409725000034,None,None,None,None,None,270.3110949000111,None,270.3110949000111,None,None,270.3110949000111,None,None,None,None,None,999,001,2019_Sep_17_1121,Test,3.1.2,59.43532872000871,
