Choice,Choice2,Amount,AdviceVar1,GambleAdviceNum,GambleAdviceType,trials_2.thisRepN,trials_2.thisTrialN,trials_2.thisN,trials_2.thisIndex,trials.thisRepN,trials.thisTrialN,trials.thisN,trials.thisIndex,instructions.started,instructions.stopped,space.keys,space.rt,space.started,space.stopped,chooseInst.started,chooseInst.stopped,Ad1.started,Ad1.stopped,Ad2.started,Ad2.stopped,key_resp_3.keys,key_resp_3.rt,key_resp_3.started,key_resp_3.stopped,Ad1pic.started,Ad1pic.stopped,Ad2pic.started,Ad2pic.stopped,enter.keys,enter.rt,enter.started,enter.stopped,iSi.started,iSi.stopped,receiveMoneyPicture.started,receiveMoneyPicture.stopped,ISI2.started,ISI2.stopped,ChoicePic.started,ChoicePic.stopped,response.keys,response.rt,response.started,response.stopped,yesNo.started,yesNo.stopped,ask.started,ask.stopped,getAdv.started,getAdv.stopped,textForCode.started,textForCode.stopped,blank.started,blank.stopped,ChoicePic2.started,ChoicePic2.stopped,resp.keys,resp.rt,resp.started,resp.stopped,checkL1.started,checkL1.stopped,checkR1.started,checkR1.stopped,participant,session,date,expName,psychopyVersion,frameRate,
,,,,,,,,,,,,,,5.797413120137207,None,space,11.617464549208307,5.797413120137207,None,,,,,,,,,,,,,,,,,,,,,,,,,,,,,,,,,,,,,,,,,,,,,,,,,,,,001,2019_Jul_24_1305,Test,3.1.2,59.841281953514475,
Pictures\IA50_G20.bmp,Pictures\IA50_G20.bmp,Pictures\IA50.bmp,"

"Let's venture and take a risk!"",1,risk,0,0,0,0,0,0,0,13,,,,,,,19.8347719747635,None,19.8347719747635,None,19.8347719747635,None,left,2.2920158044253185,19.8347719747635,None,19.8347719747635,None,19.8347719747635,None,return,9.139606481756346,19.8347719747635,None,29.0375697212894,None,31.14393142541485,33.022254830184465,33.03888406127953,None,34.55585571744086,None,y,1.8678699543615949,36.90629713787348,None,36.90629713787348,None,36.90629713787348,None,39.073596508196715,None,39.073596508196715,40.057551670108296,41.24085700192336,None,41.24085700192336,None,right,1.1973758608055505,41.24085700192336,None,None,None,42.458233161301905,None,,001,2019_Jul_24_1305,Test,3.1.2,59.841281953514475,
Pictures\IA50_L10.bmp,Pictures\IA50_L10.bmp,Pictures\IA50.bmp,"

"Play it safe, don’t gamble!"",0,safe,0,0,0,0,0,1,1,12,,,,,,,,,,,,,,,,,,,,,,,,,43.05843867854492,None,45.092160549771506,47.05957449720154,47.07623887273985,None,48.57661737528906,None,None,,50.59763437462425,None,50.59763437462425,None,50.59763437462425,None,None,None,None,None,53.68007390907587,None,53.68007390907587,None,None,,53.68007390907587,None,None,None,None,None,,001,2019_Jul_24_1305,Test,3.1.2,59.841281953514475,
Pictures\IA25_L20.bmp,Pictures\IA25_L20.bmp,Pictures\IA25.bmp,"

"Don't be tempted to gamble."",0,safe,0,0,0,0,0,2,2,5,,,,,,,,,,,,,,,,,,,,,,,,,55.62868900028661,None,57.64826601047207,59.629826996033444,59.646493548661965,None,61.14686054373669,None,n,0.5900036761704541,63.16760260778028,None,63.16760260778028,None,63.16760260778028,None,None,None,None,None,63.88474022035916,None,63.88474022035916,None,left,1.1687947197497124,63.88474022035916,None,65.08133979327613,None,None,None,,001,2019_Jul_24_1305,Test,3.1.2,59.841281953514475,
Pictures\IA110_55_G95p.bmp,Pictures\IA110_55_G95p.bmp,Pictures\IA110.bmp,"

"Take a chance!"",1,risk,0,0,0,0,0,3,3,11,,,,,,,,,,,,,,,,,,,,,,,,,65.83158471583738,None,67.8494679504438,69.83272084550663,69.84939144130112,None,71.349632165191,None,y,1.8050298230136832,73.36826338552419,None,73.36826338552419,None,73.36826338552419,None,75.25478228794782,None,75.25478228794782,76.25119942077072,77.31784043924927,None,77.31784043924927,None,left,1.5274114220064803,77.31784043924927,None,78.86858030754229,None,None,None,,001,2019_Jul_24_1305,Test,3.1.2,59.841281953514475,
Pictures\IA100_G20.bmp,Pictures\IA100_G20.bmp,Pictures\IA100.bmp,"

"Go ahead and gamble!"",1,risk,0,0,0,0,0,4,4,9,,,,,,,,,,,,,,,,,,,,,,,,,79.25191226205243,None,81.2700642116979,83.25321447254464,83.26987449390435,None,84.77016995604208,None,n,0.7533388776555512,86.7873848241943,None,86.7873848241943,None,86.7873848241943,None,None,None,None,None,87.65410434229852,None,87.65410434229852,None,left,0.9347445434359543,87.65410434229852,None,88.62140539209031,None,None,None,,001,2019_Jul_24_1305,Test,3.1.2,59.841281953514475,
Pictures\IA100_L80.bmp,Pictures\IA100_L80.bmp,Pictures\IA100.bmp,"

"Go all in!"",1,risk,0,0,0,0,0,5,5,14,,,,,,,,,,,,,,,,,,,,,,,,,89.60498640563128,None,91.62680053071199,93.60615083746416,93.62283107465555,None,95.12323756835212,None,y,1.560255615180722,97.14039738724387,None,97.14039738724387,None,97.14039738724387,None,98.77411981829391,None,98.77411981829391,99.77454403971933,100.85784507956123,None,100.85784507956123,None,right,0.9067064306855173,100.85784507956123,None,None,None,101.791830751823,None,,001,2019_Jul_24_1305,Test,3.1.2,59.841281953514475,
Pictures\IA40_20_L95p.bmp,Pictures\IA40_20_L95p.bmp,Pictures\IA40.bmp,"

"Trust me, gamble!"",1,risk,0,0,0,0,0,6,6,19,,,,,,,,,,,,,,,,,,,,,,,,,102.77543540233637,None,104.79826840526948,106.77658303947828,106.79322782121199,None,108.29365919593329,None,y,0.6935457384715846,110.31077827215086,None,110.31077827215086,None,110.31077827215086,None,111.0794902002981,None,111.0794902002981,112.07810215028076,113.16134440870519,None,113.16134440870519,None,right,1.3789049986589816,113.16134440870519,None,None,None,114.56213724247391,None,,001,2019_Jul_24_1305,Test,3.1.2,59.841281953514475,
,,,,,,,,,,,,,,,,,,,,,,,,,,,,,,,,,,,,,,115.07895370325969,None,,,,,,,,,,,,,,,,,,,,,,,,,,,,,,,,,,,,,
