Choice,Choice2,AdviceVar,Amount,AdviceVar2,AdviceVar1,GambleAdvice,Not_GamblePercent,trials_2.thisRepN,trials_2.thisTrialN,trials_2.thisN,trials_2.thisIndex,trials.thisRepN,trials.thisTrialN,trials.thisN,trials.thisIndex,instructions.started,instructions.stopped,space.keys,space.rt,space.started,space.stopped,chooseInst.started,chooseInst.stopped,Ad1.started,Ad1.stopped,Ad2.started,Ad2.stopped,key_resp_3.keys,key_resp_3.rt,key_resp_3.started,key_resp_3.stopped,Ad1pic.started,Ad1pic.stopped,Ad2pic.started,Ad2pic.stopped,enter.keys,enter.rt,enter.started,enter.stopped,iSi.started,iSi.stopped,receiveMoneyPicture.started,receiveMoneyPicture.stopped,ISI2.started,ISI2.stopped,ChoicePic.started,ChoicePic.stopped,text_3.started,text_3.stopped,ask.started,ask.stopped,response.keys,response.rt,response.started,response.stopped,Advice.started,Advice.stopped,blank.started,blank.stopped,ChoicePic2.started,ChoicePic2.stopped,resp.keys,resp.rt,resp.started,resp.stopped,checkL1.started,checkL1.stopped,checkR1.started,checkR1.stopped,participant,session,date,expName,psychopyVersion,frameRate,
,,,,,,,,,,,,,,,,5.669079732877435,None,space,1.6370768516208045,5.669079732877435,None,,,,,,,,,,,,,,,,,,,,,,,,,,,,,,,,,,,,,,,,,,,,,,,,,,001,2019_Jul_17_1543,Test,3.1.2,59.87740606186003,
Pictures\IA25_L15.bmp,Pictures\IA25_L15.bmp,"Advisor 1 says:

"I think you should take a gamble."",Pictures\IA25.bmp,"Advisor 2 says:

"Think of the payoff, gamble!"","

"I think you should take a gamble."",1,70,0,0,0,0,0,0,0,10,,,,,,,9.822010448260698,None,9.822010448260698,None,9.822010448260698,None,right,1.3962515780003741,9.822010448260698,None,9.822010448260698,None,9.822010448260698,None,return,2.140110342093976,9.822010448260698,None,12.003009697771631,None,15.137336705171037,17.004644084663596,17.021337223937735,None,19.060346664191457,None,23.19318017474143,None,23.19318017474143,None,n,1.112618430837756,23.19318017474143,None,None,None,24.423135453806026,None,24.423135453806026,None,right,0.7946640923037194,24.423135453806026,None,None,None,25.24039887127583,27.307300188811496,,001,2019_Jul_17_1543,Test,3.1.2,59.87740606186003,
Pictures\IA75_L60.bmp,Pictures\IA75_L60.bmp,"Advisor 1 says:

"Make it exciting, take a chance!"",Pictures\IA75.bmp,"Advisor 2 says:

"Let's stay with the certain option."","

"Make it exciting, take a chance!"",1,95,0,0,0,0,0,1,1,15,,,,,,,,,,,,,,,,,,,,,,,,,27.324236542277504,None,30.34747811462148,32.32581992261112,32.3424371740839,None,34.359693562582834,None,38.41212021498359,39.57795683291624,38.41212021498359,39.57795683291624,y,1.069432984397281,38.41212021498359,42.32875466562109,39.56111098497058,None,42.59510343289003,None,42.59510343289003,None,right,0.4224409560265485,42.59510343289003,None,None,None,43.04560919088544,45.49626796852681,,001,2019_Jul_17_1543,Test,3.1.2,59.87740606186003,
Pictures\IA25_L20.bmp,Pictures\IA25_L20.bmp,"Advisor 1 says:

"Don't be tempted to gamble."",Pictures\IA25.bmp,"Advisor 2 says:

"Take a leap, I think you should gamble."","

"Don't be tempted to gamble."",0,70,0,0,0,0,0,2,2,27,,,,,,,,,,,,,,,,,,,,,,,,,45.513000917824684,None,48.53223598742625,50.51450063494849,50.531165782827884,None,52.53168393476517,None,56.56589005040587,None,56.56589005040587,None,n,1.0594608917890582,56.56589005040587,None,None,None,57.749777701625135,None,57.749777701625135,None,right,0.5874054862651974,57.749777701625135,None,None,None,58.366754238290014,60.634146151831374,,001,2019_Jul_17_1543,Test,3.1.2,59.87740606186003,
Pictures\IA25_L10.bmp,Pictures\IA25_L10.bmp,"Advisor 1 says:

"What's life without a little risk?"",Pictures\IA25.bmp,"Advisor 2 says:

"Don't gamble for this one, play it safe."","

"What's life without a little risk?"",1,65,0,0,0,0,0,3,3,9,,,,,,,,,,,,,,,,,,,,,,,,,60.65080259126262,None,63.67384169244906,65.6523085286899,65.66896496815025,None,67.6694038111309,None,71.7203596708714,None,71.7203596708714,None,n,0.33660532091744244,71.7203596708714,None,None,None,72.157197538123,None,72.157197538123,None,right,0.57978404944879,72.157197538123,None,None,None,72.75437388988212,75.07168224907946,,001,2019_Jul_17_1543,Test,3.1.2,59.87740606186003,
Pictures\IA100_L20.bmp,Pictures\IA100_L20.bmp,"Advisor 1 says:

"Go ahead and gamble!"",Pictures\IA100.bmp,"Advisor 2 says:

"Be cautious, don't gamble for this one."","

"Go ahead and gamble!"",1,40,0,0,0,0,0,4,4,4,,,,,,,,,,,,,,,,,,,,,,,,,75.08837072312599,None,78.10814820390078,80.08980606001569,80.10652625764487,None,82.10716570567456,None,86.1255974220694,None,86.1255974220694,None,n,0.9392536808154546,86.1255974220694,None,None,None,87.1915893300611,None,87.1915893300611,None,right,0.4971901297394652,87.1915893300611,None,None,None,87.70865491050063,90.07607005687896,,001,2019_Jul_17_1543,Test,3.1.2,59.87740606186003,
Pictures\IA100_L80.bmp,Pictures\IA100_L80.bmp,"Advisor 1 says:

"Why not gamble?"",Pictures\IA100.bmp,"Advisor 2 says:

"That gamble doesn't sound too good, play it safe."","

"Why not gamble?"",1,55,0,0,0,0,0,5,5,7,,,,,,,,,,,,,,,,,,,,,,,,,90.0926621161052,None,93.14349108148599,95.0942756649456,95.11084875219967,None,97.1011491092795,None,101.12927269318607,None,101.12927269318607,None,n,1.1912652518076357,101.12927269318607,None,None,None,102.46286831633188,None,102.46286831633188,None,right,0.4816116703150328,102.46286831633188,None,None,None,102.9632043686579,105.3306210701412,,001,2019_Jul_17_1543,Test,3.1.2,59.87740606186003,
Pictures\IA25_L5.bmp,Pictures\IA25_L5.bmp,"Advisor 1 says:

"Let's stay with the certain option."",Pictures\IA25.bmp,"Advisor 2 says:

"Take a chance!"","

"Let's stay with the certain option."",0,60,0,0,0,0,0,6,6,8,,,,,,,,,,,,,,,,,,,,,,,,,105.3471860709833,None,108.3703203429468,110.34869822874316,110.36529370912467,None,112.36581808139454,None,116.40274838247569,None,116.40274838247569,None,n,1.3815060183114838,116.40274838247569,None,None,None,117.91744184709387,None,117.91744184709387,None,right,0.5227164225361776,117.91744184709387,None,None,None,118.46774379655835,120.78509072170709,,001,2019_Jul_17_1543,Test,3.1.2,59.87740606186003,
Pictures\IA50_L40.bmp,Pictures\IA50_L40.bmp,"Advisor 1 says:

"That gamble doesn't sound too good, play it safe."",Pictures\IA50.bmp,"Advisor 2 says:

"Let's venture and take a risk!"","

"That gamble doesn't sound too good, play it safe."",0,30,0,0,0,0,0,7,7,19,,,,,,,,,,,,,,,,,,,,,,,,,120.80182989127934,None,123.82285454455996,125.80329539670493,125.81987283818307,None,127.82054058861104,None,131.8229770846956,None,131.8229770846956,None,n,0.43298718336154707,131.8229770846956,None,None,None,132.39356751355808,None,132.39356751355808,None,right,0.8303665038547479,132.39356751355808,None,None,None,133.25548530404922,135.27270188255352,,001,2019_Jul_17_1543,Test,3.1.2,59.87740606186003,
Pictures\IA100_L20.bmp,Pictures\IA100_L20.bmp,"Advisor 1 says:

"Try to win as much money as you can, gamble!"",Pictures\IA100.bmp,"Advisor 2 says:

"I wouldn't gamble for this one. "","

"Try to win as much money as you can, gamble!"",1,35,0,0,0,0,0,8,8,20,,,,,,,,,,,,,,,,,,,,,,,,,135.28932504332624,None,138.31137760309502,140.290812319814,140.30747186942608,None,142.3079048031068,None,146.3435020914185,None,146.3435020914185,None,n,1.1121687023260165,146.3435020914185,None,None,None,147.57599308053614,None,147.57599308053614,None,right,0.5355822040583007,147.57599308053614,None,None,None,148.1432027700357,150.46055964764673,,001,2019_Jul_17_1543,Test,3.1.2,59.87740606186003,
Pictures\IA75_L30.bmp,Pictures\IA75_L30.bmp,"Advisor 1 says:

"Hold back, stay with the safe choice."",Pictures\IA75.bmp,"Advisor 2 says:

"Try to win as much money as you can, gamble!"","

"Hold back, stay with the safe choice."",0,80,0,0,0,0,0,9,9,29,,,,,,,,,,,,,,,,,,,,,,,,,150.47721888622618,None,153.5278873675852,155.47869869836723,155.49523197562667,None,157.49584218821838,None,161.53020256754826,None,161.53020256754826,None,n,0.5969101224036422,161.53020256754826,None,None,None,162.23032072238857,None,162.23032072238857,None,right,0.8574245484196581,162.23032072238857,None,None,None,163.11428547435207,165.1314277201309,,001,2019_Jul_17_1543,Test,3.1.2,59.87740606186003,
Pictures\IA25_L10.bmp,Pictures\IA25_L10.bmp,"Advisor 1 says:

"Dont be afraid to take the risk!"",Pictures\IA25.bmp,"Advisor 2 says:

"Be bold, gamble!"","

"Dont be afraid to take the risk!"",1,60,0,0,0,0,0,10,10,25,,,,,,,,,,,,,,,,,,,,,,,,,165.14811495010508,None,168.16757426198456,170.14967002801131,170.16631278276327,None,172.16677930613514,None,176.20132442875183,177.78524716253742,176.20132442875183,177.78524716253742,y,1.4937736236024648,176.20132442875183,180.15256744917133,177.76833880046615,None,180.8023965616594,None,180.8023965616594,None,left,1.2684997510223184,180.8023965616594,None,182.10315391569748,183.70363729613018,None,None,,001,2019_Jul_17_1543,Test,3.1.2,59.87740606186003,
Pictures\IA100_L60.bmp,Pictures\IA100_L60.bmp,"Advisor 1 says:

"Be cautious, don't gamble for this one."",Pictures\IA100.bmp,"Advisor 2 says:

"Why not take the gamble?"","

"Be cautious, don't gamble for this one."",0,50,0,0,0,0,0,11,11,6,,,,,,,,,,,,,,,,,,,,,,,,,183.72027196447016,None,186.72626585673424,188.72166935747373,188.72166935747373,None,190.72197944001528,None,194.7731744707271,None,194.7731744707271,None,n,0.8576494126755279,194.7731744707271,None,None,None,195.72596386060468,None,195.72596386060468,None,right,0.4886962941964157,195.72596386060468,None,None,None,196.24060787374037,198.64137788611697,,001,2019_Jul_17_1543,Test,3.1.2,59.87740606186003,
Pictures\IA100_L40.bmp,Pictures\IA100_L40.bmp,"Advisor 1 says:

"Try your luck and gamble!"",Pictures\IA100.bmp,"Advisor 2 says:

"Go with the safe option here!"","

"Try your luck and gamble!"",1,45,0,0,0,0,0,12,12,5,,,,,,,,,,,,,,,,,,,,,,,,,198.657992027438,None,201.6778180266556,203.6595035631617,203.67608940205537,None,205.67660475487355,None,209.6975149544014,None,209.6975149544014,None,n,1.0929921036295127,209.6975149544014,None,None,None,210.89592299005017,None,210.89592299005017,None,right,0.7184444369340781,210.89592299005017,None,None,None,211.64520399979665,213.79552156224963,,001,2019_Jul_17_1543,Test,3.1.2,59.87740606186003,
Pictures\IA25_L5.bmp,Pictures\IA25_L5.bmp,"Advisor 1 says:

"It would be smarter to choose the safe option."",Pictures\IA25.bmp,"Advisor 2 says:

"Certainty is boring, take a risk!"","

"It would be smarter to choose the safe option."",0,55,0,0,0,0,0,13,13,24,,,,,,,,,,,,,,,,,,,,,,,,,213.81217520253267,None,216.81567972610355,218.8138736586261,218.8138736586261,None,220.83121526538162,None,224.8653697524278,226.2325227127003,224.8653697524278,226.2325227127003,y,1.2608689837506972,224.8653697524278,228.81692005624063,226.21579567273147,None,229.2366237641545,None,229.2366237641545,None,left,1.2095091147639323,229.2366237641545,None,230.46733823223622,232.1345437852433,None,None,,001,2019_Jul_17_1543,Test,3.1.2,59.87740606186003,
Pictures\IA75_L15.bmp,Pictures\IA75_L15.bmp,"Advisor 1 says:

"Take a chance!"",Pictures\IA75.bmp,"Advisor 2 says:

"I don't think you should gamble."","

"Take a chance!"",1,80,0,0,0,0,0,14,14,12,,,,,,,,,,,,,,,,,,,,,,,,,232.15104129572865,None,235.1852387029212,237.15268190289498,237.17132075564587,None,239.16977531922748,None,243.1911775454355,None,243.1911775454355,None,n,0.4547281055129133,243.1911775454355,None,None,None,243.74084626717377,None,243.74084626717377,None,left,0.9214094728522468,243.74084626717377,None,244.6882541544619,246.6554326802143,None,None,,001,2019_Jul_17_1543,Test,3.1.2,59.87740606186003,
Pictures\IA50_G20.bmp,Pictures\IA50_G20.bmp,"Advisor 1 says:

"Let's venture and take a risk!"",Pictures\IA50.bmp,"Advisor 2 says:

"Don't gamble for this one."","

"Let's venture and take a risk!"",1,25,0,0,0,0,0,15,15,1,,,,,,,,,,,,,,,,,,,,,,,,,246.6720695256663,None,249.70618233660934,251.673541562428,251.6901553927164,None,253.69070184708107,None,257.7250616044039,None,257.7250616044039,None,n,0.6806768818642013,257.7250616044039,None,None,None,258.50856987881707,None,258.50856987881707,None,right,1.6729677386465482,258.50856987881707,None,None,None,260.20948827674147,261.4097393907141,,001,2019_Jul_17_1543,Test,3.1.2,59.87740606186003,
Pictures\IA50_L10.bmp,Pictures\IA50_L10.bmp,"Advisor 1 says:

"Play it safe, don’t gamble!"",Pictures\IA50.bmp,"Advisor 2 says:

"It would probably be best to play it safe."","

"Play it safe, don’t gamble!"",0,100,0,0,0,0,0,16,16,16,,,,,,,,,,,,,,,,,,,,,,,,,261.42650624067755,None,264.4282249127864,266.42794251063606,266.42794251063606,None,268.44504245830467,None,272.47959660034394,None,272.47959660034394,None,n,1.101717023702804,272.47959660034394,None,None,None,273.69639871947584,None,273.69639871947584,None,right,0.6368255510460585,273.69639871947584,None,None,None,274.36344752061996,276.5974326285941,,001,2019_Jul_17_1543,Test,3.1.2,59.87740606186003,
Pictures\IA50_G10.bmp,Pictures\IA50_G10.bmp,"Advisor 1 says:

"Go with the safe option here!"",Pictures\IA50.bmp,"Advisor 2 says:

"Try your luck and gamble!"","

"Go with the safe option here!"",0,20,0,0,0,0,0,17,17,0,,,,,,,,,,,,,,,,,,,,,,,,,276.61425483934,None,279.6168222729466,281.61575424543116,281.61575424543116,None,283.6176209609548,None,287.66739838264766,None,287.66739838264766,None,n,1.0736413362028543,287.66739838264766,None,None,None,288.8390292208642,None,288.8390292208642,None,right,0.5819763982726727,288.8390292208642,None,None,None,289.45140117185656,291.7517632250965,,001,2019_Jul_17_1543,Test,3.1.2,59.87740606186003,
Pictures\IA100_L40.bmp,Pictures\IA100_L40.bmp,"Advisor 1 says:

"Think of the payoff, gamble!"",Pictures\IA100.bmp,"Advisor 2 says:

"I think you should take a gamble."","

"Think of the payoff, gamble!"",1,40,0,0,0,0,0,18,18,21,,,,,,,,,,,,,,,,,,,,,,,,,291.7684576084139,None,294.7904436108656,296.7698500251863,296.7865745770396,None,298.7872868027189,None,302.82187018022523,None,302.82187018022523,None,n,0.4549259114137385,302.82187018022523,None,None,None,303.38846188178286,None,303.38846188178286,None,right,0.7122091965575237,303.38846188178286,None,None,None,304.1223342465819,306.28964103513863,,001,2019_Jul_17_1543,Test,3.1.2,59.87740606186003,
Pictures\IA50_G30.bmp,Pictures\IA50_G30.bmp,"Advisor 1 says:

"I think you should gamble."",Pictures\IA50.bmp,"Advisor 2 says:

"Don't be tempted to gamble."","

"I think you should gamble."",1,30,0,0,0,0,0,19,19,2,,,,,,,,,,,,,,,,,,,,,,,,,306.30615751756704,None,309.34035741287516,311.3077017099422,311.3245077478641,None,313.32497209412395,None,317.3592503653781,None,317.3592503653781,None,n,1.1893400653789286,317.3592503653781,None,None,None,318.6595900254906,None,318.6595900254906,None,right,0.5449179587594699,318.6595900254906,None,None,None,319.22683703686926,321.56084599971655,,001,2019_Jul_17_1543,Test,3.1.2,59.87740606186003,
Pictures\IA100_L60.bmp,Pictures\IA100_L60.bmp,"Advisor 1 says:

"You'd have a lot to lose, don't gamble."",Pictures\IA100.bmp,"Advisor 2 says:

"Make it exciting, take a chance!"","

"You'd have a lot to lose, don't gamble."",0,45,0,0,0,0,0,20,20,22,,,,,,,,,,,,,,,,,,,,,,,,,321.577476624836,None,324.6002351899806,326.5789642123855,326.5970640751184,None,328.5960461211216,None,332.6318884897337,None,332.6318884897337,None,n,0.42838757392019033,332.6318884897337,None,None,None,333.1501082489849,None,333.1501082489849,None,right,0.7266359652858227,333.1501082489849,None,None,None,333.8978310706443,336.06504673164454,,001,2019_Jul_17_1543,Test,3.1.2,59.87740606186003,
Pictures\IA50_L20.bmp,Pictures\IA50_L20.bmp,"Advisor 1 says:

"Certainty is boring, take a risk!"",Pictures\IA50.bmp,"Advisor 2 says:

"You'd have a lot to lose, don't gamble."","

"Certainty is boring, take a risk!"",1,20,0,0,0,0,0,21,21,17,,,,,,,,,,,,,,,,,,,,,,,,,336.0817747046822,None,339.1025604979659,341.0831515706377,341.09992370789405,None,343.10072581705754,None,347.10364532031235,None,347.10364532031235,None,n,0.9003107978787739,347.10364532031235,None,None,None,348.1184586814197,None,348.1184586814197,None,right,0.4692142782150768,348.1184586814197,None,None,None,348.618735329801,351.01939928584034,,001,2019_Jul_17_1543,Test,3.1.2,59.87740606186003,
Pictures\IA75_L30.bmp,Pictures\IA75_L30.bmp,"Advisor 1 says:

"Be bold, gamble!"",Pictures\IA75.bmp,"Advisor 2 says:

"Dont be afraid to take the risk!"","

"Be bold, gamble!"",1,85,0,0,0,0,0,22,22,13,,,,,,,,,,,,,,,,,,,,,,,,,351.0361313020694,None,354.059305073024,356.03765527842916,356.05432135934825,None,358.05471821522224,None,362.07256802145275,None,362.07256802145275,None,n,0.6108454865170643,362.07256802145275,None,None,None,362.7444901257113,None,362.7444901257113,None,right,0.9393333007756155,362.7444901257113,None,None,None,363.7065760823316,365.6904723175976,,001,2019_Jul_17_1543,Test,3.1.2,59.87740606186003,
Pictures\IA25_L15.bmp,Pictures\IA25_L15.bmp,"Advisor 1 says:

"There's not much on the line here, gamble!"",Pictures\IA25.bmp,"Advisor 2 says:

"Go all in!"","

"There's not much on the line here, gamble!"",1,65,0,0,0,0,0,23,23,26,,,,,,,,,,,,,,,,,,,,,,,,,365.7069950203295,None,368.7296027429111,370.7084536834154,370.72509799324325,None,372.72569452112657,None,376.743436715944,None,376.743436715944,None,n,0.45988132266211323,376.743436715944,None,None,None,377.293519399449,None,377.293519399449,None,right,0.7338468615198508,377.293519399449,None,None,None,378.0439887997054,380.2113923141151,,001,2019_Jul_17_1543,Test,3.1.2,59.87740606186003,
Pictures\IA25_L20.bmp,Pictures\IA25_L20.bmp,"Advisor 1 says:

"I wouldn't gamble for this one. "",Pictures\IA25.bmp,"Advisor 2 says:

"Why not gamble?"","

"I wouldn't gamble for this one. "",0,75,0,0,0,0,0,24,24,11,,,,,,,,,,,,,,,,,,,,,,,,,380.2280944728409,None,383.24718709732406,385.22957615109044,385.2462297913735,None,387.24648202501703,None,391.24761070054956,None,391.24761070054956,None,n,0.8915314500627574,391.24761070054956,None,None,None,392.2357983287948,None,392.2357983287948,None,right,0.6473720893845893,392.2357983287948,None,None,None,392.9151493512327,395.14905390614877,,001,2019_Jul_17_1543,Test,3.1.2,59.87740606186003,
Pictures\IA100_L80.bmp,Pictures\IA100_L80.bmp,"Advisor 1 says:

"Go all in!"",Pictures\IA100.bmp,"Advisor 2 says:

"There's not much on the line here, gamble!"","

"Go all in!"",1,50,0,0,0,0,0,25,25,23,,,,,,,,,,,,,,,,,,,,,,,,,395.16574922253494,None,398.1880788971903,400.16729652506183,400.18391688668635,None,402.18431560866884,None,406.2021943393338,None,406.2021943393338,None,n,1.3365698651177809,406.2021943393338,None,None,None,407.64012324926443,None,407.64012324926443,None,right,0.4267127550265286,407.64012324926443,None,None,None,408.0862775882415,410.5536714922928,,001,2019_Jul_17_1543,Test,3.1.2,59.87740606186003,
Pictures\IA50_G40.bmp,Pictures\IA50_G40.bmp,"Advisor 1 says:

"It would probably be best to play it safe."",Pictures\IA50.bmp,"Advisor 2 says:

"What's life without a little risk?"","

"It would probably be best to play it safe."",0,35,0,0,0,0,0,26,26,3,,,,,,,,,,,,,,,,,,,,,,,,,410.57035094688763,None,413.5918380803196,415.5718245386961,415.5884918636875,None,417.58889929408906,None,421.62335795437684,None,421.62335795437684,None,n,1.1632215988938697,421.62335795437684,None,None,None,422.87534028993105,None,422.87534028993105,None,right,0.44712035337579437,422.87534028993105,None,None,None,423.3407107265957,425.79146374197444,,001,2019_Jul_17_1543,Test,3.1.2,59.87740606186003,
Pictures\IA75_L15.bmp,Pictures\IA75_L15.bmp,"Advisor 1 says:

"Trust me, gamble!"",Pictures\IA75.bmp,"Advisor 2 says:

"Play it safe, don’t gamble!"","

"Trust me, gamble!"",1,75,0,0,0,0,0,27,27,28,,,,,,,,,,,,,,,,,,,,,,,,,425.80814817280043,None,428.828540220391,430.8095741792349,430.84287928271806,None,432.82686166928033,None,436.82782581759966,None,436.82782581759966,None,n,1.0785675119841471,436.82782581759966,None,None,None,437.99653435338405,None,437.99653435338405,None,left,0.6057025328918826,437.99653435338405,None,438.6285615560482,440.91255859145895,None,None,,001,2019_Jul_17_1543,Test,3.1.2,59.87740606186003,
Pictures\IA75_L45.bmp,Pictures\IA75_L45.bmp,"Advisor 1 says:

"Don't gamble for this one, play it safe."",Pictures\IA75.bmp,"Advisor 2 says:

"Go ahead and gamble!"","

"Don't gamble for this one, play it safe."",0,85,0,0,0,0,0,28,28,30,,,,,,,,,,,,,,,,,,,,,,,,,440.9292563959607,None,443.95059921816573,445.9307458495896,445.94727570566465,None,447.94789027245133,None,451.9510097587481,None,451.9510097587481,None,n,1.0750415283546317,451.9510097587481,None,None,None,453.11682989282417,None,453.11682989282417,None,left,0.4376866288075689,453.11682989282417,None,453.582990309078,456.0336926289019,None,None,,001,2019_Jul_17_1543,Test,3.1.2,59.87740606186003,
Pictures\IA50_L30.bmp,Pictures\IA50_L30.bmp,"Advisor 1 says:

"Take a leap, I think you should gamble."",Pictures\IA50.bmp,"Advisor 2 says:

"Hold back, stay with the safe choice."","

"Take a leap, I think you should gamble."",1,25,0,0,0,0,0,29,29,18,,,,,,,,,,,,,,,,,,,,,,,,,456.0502411459456,None,459.0700276461721,461.05182452625013,461.06842840404715,None,463.08575508208014,None,467.103362918162,None,467.103362918162,None,n,1.3624074845283758,467.103362918162,None,None,None,468.57031984531204,None,468.57031984531204,None,left,1.0791559534845874,468.57031984531204,None,469.6707819211588,471.47158857117756,None,None,,001,2019_Jul_17_1543,Test,3.1.2,59.87740606186003,
Pictures\IA75_L60.bmp,Pictures\IA75_L60.bmp,"Advisor 1 says:

"Why not take the gamble?"",Pictures\IA75.bmp,"Advisor 2 says:

"It would be smarter to choose the safe option."","

"Why not take the gamble?"",1,90,0,0,0,0,0,30,30,31,,,,,,,,,,,,,,,,,,,,,,,,,471.48823350304156,None,474.51124367976445,476.48973384220153,476.5062801821332,None,478.5067837163515,None,482.54130271365284,483.7916721224028,482.54130271365284,483.7916721224028,y,1.1801315160410013,482.54130271365284,486.4926695182803,483.7789095980406,None,486.7923572897271,None,486.7923572897271,None,right,1.2329354303656146,486.7923572897271,None,None,None,488.04368213834823,489.72691650132765,,001,2019_Jul_17_1543,Test,3.1.2,59.87740606186003,
Pictures\IA75_L45.bmp,Pictures\IA75_L45.bmp,"Advisor 1 says:

"Don't gamble for this one."",Pictures\IA75.bmp,"Advisor 2 says:

"Trust me, gamble!"","

"Don't gamble for this one."",0,90,0,0,0,0,0,31,31,14,,,,,,,,,,,,,,,,,,,,,,,,,489.7435178910091,None,492.7630823261279,494.745042489405,494.76175833281013,None,496.7452810383402,None,500.781409852294,None,500.781409852294,None,n,0.41960667102830485,500.781409852294,None,None,None,501.2996890155191,None,501.2996890155191,None,left,0.9414394982741214,501.2996890155191,None,502.2639676319959,504.21447758868453,None,None,,001,2019_Jul_17_1543,Test,3.1.2,59.87740606186003,
