Choice,Choice2,AdviceVar,Amount,AdviceVar2,AdviceVar1,GambleAdvice,Not_GamblePercent,trials_2.thisRepN,trials_2.thisTrialN,trials_2.thisN,trials_2.thisIndex,trials.thisRepN,trials.thisTrialN,trials.thisN,trials.thisIndex,instructions.started,instructions.stopped,space.keys,space.rt,space.started,space.stopped,chooseInst.started,chooseInst.stopped,Ad1.started,Ad1.stopped,Ad2.started,Ad2.stopped,key_resp_3.keys,key_resp_3.rt,key_resp_3.started,key_resp_3.stopped,Ad1pic.started,Ad1pic.stopped,Ad2pic.started,Ad2pic.stopped,enter.keys,enter.rt,enter.started,enter.stopped,iSi.started,iSi.stopped,receiveMoneyPicture.started,receiveMoneyPicture.stopped,ISI2.started,ISI2.stopped,ChoicePic.started,ChoicePic.stopped,text_3.started,text_3.stopped,ask.started,ask.stopped,response.keys,response.rt,response.started,response.stopped,Advice.started,Advice.stopped,blank.started,blank.stopped,ChoicePic2.started,ChoicePic2.stopped,resp.keys,resp.started,resp.stopped,checkL1.started,checkL1.stopped,checkR1.started,checkR1.stopped,nGamble,resp.rt,participant,session,date,expName,psychopyVersion,frameRate,
,,,,,,,,,,,,,,,,23.240860729390988,None,space,8.487858107226202,23.240860729390988,None,,,,,,,,,,,,,,,,,,,,,,,,,,,,,,,,,,,,,,,,,,,,,,,,,,,001,2019_Jul_17_1451,Test,3.1.2,59.98005809180591,
Pictures\IA25_L10.bmp,Pictures\IA25_L10.bmp,"Advisor 1 says:

"What's life without a little risk?"",Pictures\IA25.bmp,"Advisor 2 says:

"Don't gamble for this one, play it safe."","

"What's life without a little risk?"",1,65,0,0,0,0,0,0,0,9,,,,,,,31.85952234850265,None,31.85952234850265,None,31.85952234850265,None,right,0.8371099437063094,31.85952234850265,None,31.85952234850265,None,31.85952234850265,None,return,1.3730799841869157,31.85952234850265,None,33.293488608906046,None,36.4145517348079,38.27845442673424,38.29513139321352,None,40.32882962038275,None,45.513895398617024,46.98067660196102,45.513895398617024,46.98067660196102,y,1.3665430587134324,45.513895398617024,48.281410007795785,46.96404442173662,None,50.08725200005574,None,50.08725200005574,None,None,50.08725200005574,None,None,None,None,None,0,,,001,2019_Jul_17_1451,Test,3.1.2,59.98005809180591,
Pictures\IA100_L40.bmp,Pictures\IA100_L40.bmp,"Advisor 1 says:

"Try your luck and gamble!"",Pictures\IA100.bmp,"Advisor 2 says:

"Go with the safe option here!"","

"Try your luck and gamble!"",1,45,0,0,0,0,0,1,1,5,,,,,,,,,,,,,,,,,,,,,,,,,52.89934509448358,None,55.93350797894527,57.9008917749743,57.91750716036768,None,59.918149096512934,None,63.95247961836867,None,63.95247961836867,None,n,1.7116487464518286,63.95247961836867,None,None,None,65.81953849643469,None,65.81953849643469,None,right,65.81953849643469,None,None,None,66.83683562796796,68.6707380679727,112,0.9966217487526592,,001,2019_Jul_17_1451,Test,3.1.2,59.98005809180591,
Pictures\IA100_L20.bmp,Pictures\IA100_L20.bmp,"Advisor 1 says:

"Try to win as much money as you can, gamble!"",Pictures\IA100.bmp,"Advisor 2 says:

"I wouldn't gamble for this one. "","

"Try to win as much money as you can, gamble!"",1,35,0,0,0,0,0,2,2,20,,,,,,,,,,,,,,,,,,,,,,,,,68.68741192427115,None,71.72147932695225,73.68887680766056,73.7055431996123,None,75.70613257412333,None,79.74034366599517,None,79.74034366599517,None,n,1.379447095154319,79.74034366599517,None,None,None,81.27407750446582,None,81.27407750446582,None,right,81.27407750446582,None,None,None,81.97462890399038,84.12526681250893,131,0.6778055860486347,,001,2019_Jul_17_1451,Test,3.1.2,59.98005809180591,
Pictures\IA50_L10.bmp,Pictures\IA50_L10.bmp,"Advisor 1 says:

"Play it safe, don’t gamble!"",Pictures\IA50.bmp,"Advisor 2 says:

"It would probably be best to play it safe."","

"Play it safe, don’t gamble!"",0,100,0,0,0,0,0,3,3,16,,,,,,,,,,,,,,,,,,,,,,,,,84.14194253488677,None,87.16440221405355,89.14343012243626,89.160084695759,None,91.16061839851318,None,95.19489200451062,None,95.19489200451062,None,n,1.7007184149115346,95.19489200451062,None,None,None,96.99538515080349,None,96.99538515080349,None,right,96.99538515080349,None,None,None,97.59582841020892,99.89657736683148,140,0.5802132509415969,,001,2019_Jul_17_1451,Test,3.1.2,59.98005809180591,
Pictures\IA25_L10.bmp,Pictures\IA25_L10.bmp,"Advisor 1 says:

"Dont be afraid to take the risk!"",Pictures\IA25.bmp,"Advisor 2 says:

"Be bold, gamble!"","

"Dont be afraid to take the risk!"",1,60,0,0,0,0,0,4,4,25,,,,,,,,,,,,,,,,,,,,,,,,,99.91323287322302,None,102.93312169759884,104.914668832178,104.93137627816759,None,106.93196192049072,None,110.96633069726522,None,110.96633069726522,None,n,1.2570151896798052,110.96633069726522,None,None,None,112.36670136565226,None,112.36670136565226,None,right,112.36670136565226,None,None,None,113.10045119031565,115.23443110429798,130,0.7045109389000572,,001,2019_Jul_17_1451,Test,3.1.2,59.98005809180591,
Pictures\IA75_L45.bmp,Pictures\IA75_L45.bmp,"Advisor 1 says:

"Don't gamble for this one, play it safe."",Pictures\IA75.bmp,"Advisor 2 says:

"Go ahead and gamble!"","

"Don't gamble for this one, play it safe."",0,85,0,0,0,0,0,5,5,30,,,,,,,,,,,,,,,,,,,,,,,,,115.25108381154132,None,118.2735176764254,120.25255740337889,120.2716780192568,None,122.26975096671958,None,126.30400466773426,None,126.30400466773426,None,n,1.223037359479349,126.30400466773426,None,None,None,127.67120365830488,None,127.67120365830488,None,left,127.67120365830488,None,128.48826771473978,130.53892344445921,None,None,0,0.7997280479758047,,001,2019_Jul_17_1451,Test,3.1.2,59.98005809180591,
Pictures\IA50_L30.bmp,Pictures\IA50_L30.bmp,"Advisor 1 says:

"Take a leap, I think you should gamble."",Pictures\IA50.bmp,"Advisor 2 says:

"Hold back, stay with the safe choice."","

"Take a leap, I think you should gamble."",1,25,0,0,0,0,0,6,6,18,,,,,,,,,,,,,,,,,,,,,,,,,130.5555702424026,None,133.57810176617932,135.55705907399533,135.57371893461095,None,137.57412387689692,None,141.62517957261298,None,141.62517957261298,None,n,0.42161023343214765,141.62517957261298,None,None,None,142.14496653940296,None,142.14496653940296,None,right,142.14496653940296,None,None,None,142.82581603492144,145.05983006730094,136,0.6537329800485168,,001,2019_Jul_17_1451,Test,3.1.2,59.98005809180591,
Pictures\IA100_L80.bmp,Pictures\IA100_L80.bmp,"Advisor 1 says:

"Why not gamble?"",Pictures\IA100.bmp,"Advisor 2 says:

"That gamble doesn't sound too good, play it safe."","

"Why not gamble?"",1,55,0,0,0,0,0,7,7,7,,,,,,,,,,,,,,,,,,,,,,,,,145.07650578970788,None,148.09857825448853,150.0779955543403,150.0946616352594,None,152.0950476056023,None,156.12958837399492,None,156.12958837399492,None,n,0.9089912427298259,156.12958837399492,None,None,None,157.13084207780776,None,157.13084207780776,None,right,157.13084207780776,None,None,None,157.86360380597762,160.0475944033533,133,0.7076605936745182,,001,2019_Jul_17_1451,Test,3.1.2,59.98005809180591,
Pictures\IA25_L5.bmp,Pictures\IA25_L5.bmp,"Advisor 1 says:

"Let's stay with the certain option."",Pictures\IA25.bmp,"Advisor 2 says:

"Take a chance!"","

"Let's stay with the certain option."",0,60,0,0,0,0,0,8,8,8,,,,,,,,,,,,,,,,,,,,,,,,,160.0642598622362,None,163.08258147910237,165.06573749726522,165.08232582427445,None,167.08297087060055,None,171.11717605317244,None,171.11717605317244,None,n,1.0089852401288226,171.11717605317244,None,None,None,172.21764621543116,None,172.21764621543116,None,right,172.21764621543116,None,None,None,172.91804179613246,175.1353496266238,135,0.684551513986662,,001,2019_Jul_17_1451,Test,3.1.2,59.98005809180591,
Pictures\IA75_L45.bmp,Pictures\IA75_L45.bmp,"Advisor 1 says:

"Don't gamble for this one."",Pictures\IA75.bmp,"Advisor 2 says:

"Trust me, gamble!"","

"Don't gamble for this one."",0,90,0,0,0,0,0,9,9,14,,,,,,,,,,,,,,,,,,,,,,,,,175.15202472699457,None,178.17139477736782,180.15346939436859,180.1700639417104,None,182.17074382177088,None,186.1894196853682,None,186.1894196853682,None,n,0.5765532196091954,186.1894196853682,None,None,None,186.8571601851727,None,186.8571601851727,None,right,186.8571601851727,None,None,None,187.58903458586428,189.7730183409003,133,0.7006583888723981,,001,2019_Jul_17_1451,Test,3.1.2,59.98005809180591,
Pictures\IA100_L60.bmp,Pictures\IA100_L60.bmp,"Advisor 1 says:

"You'd have a lot to lose, don't gamble."",Pictures\IA100.bmp,"Advisor 2 says:

"Make it exciting, take a chance!"","

"You'd have a lot to lose, don't gamble."",0,45,0,0,0,0,0,10,10,22,,,,,,,,,,,,,,,,,,,,,,,,,189.78964709996944,None,192.80984569585416,194.79113468748983,194.80772767972667,None,196.8083895208838,None,200.84272501899977,None,200.84272501899977,None,n,0.5469908775994554,200.84272501899977,None,None,None,201.49278832622804,None,201.49278832622804,None,right,201.49278832622804,None,None,None,202.17664036614588,204.39393388992175,135,0.6648819555703085,,001,2019_Jul_17_1451,Test,3.1.2,59.98005809180591,
Pictures\IA100_L80.bmp,Pictures\IA100_L80.bmp,"Advisor 1 says:

"Go all in!"",Pictures\IA100.bmp,"Advisor 2 says:

"There's not much on the line here, gamble!"","

"Go all in!"",1,50,0,0,0,0,0,11,11,23,,,,,,,,,,,,,,,,,,,,,,,,,204.4106198758236,None,207.43298811640125,209.4121111955319,209.4287212936615,None,211.42919870256446,None,215.4470780552656,None,215.4470780552656,None,n,0.43021852266974747,215.4470780552656,None,None,None,215.98038020409876,None,215.98038020409876,None,right,215.98038020409876,None,None,None,216.64755807671463,218.88155873544747,136,0.6409570820396766,,001,2019_Jul_17_1451,Test,3.1.2,59.98005809180591,
Pictures\IA50_L20.bmp,Pictures\IA50_L20.bmp,"Advisor 1 says:

"Certainty is boring, take a risk!"",Pictures\IA50.bmp,"Advisor 2 says:

"You'd have a lot to lose, don't gamble."","

"Certainty is boring, take a risk!"",1,20,0,0,0,0,0,12,12,17,,,,,,,,,,,,,,,,,,,,,,,,,218.89823445785441,None,221.92140231950907,223.8996962310921,223.9163862602145,None,225.91691405363963,None,229.9511696207628,None,229.9511696207628,None,n,1.1099645349022467,229.9511696207628,None,None,None,231.16830825875513,None,231.16830825875513,None,right,231.16830825875513,None,None,None,231.75200519521604,234.06934434495633,141,0.556751790601993,,001,2019_Jul_17_1451,Test,3.1.2,59.98005809180591,
Pictures\IA50_G20.bmp,Pictures\IA50_G20.bmp,"Advisor 1 says:

"Let's venture and take a risk!"",Pictures\IA50.bmp,"Advisor 2 says:

"Don't gamble for this one."","

"Let's venture and take a risk!"",1,25,0,0,0,0,0,13,13,1,,,,,,,,,,,,,,,,,,,,,,,,,234.08602006736328,None,237.10812892092508,239.08746971096843,239.10406954557402,None,241.10454850958195,None,245.13896953695803,None,245.13896953695803,None,n,1.0177552574896254,245.13896953695803,None,None,None,246.25604046686203,None,246.25604046686203,None,right,246.25604046686203,None,None,None,246.85642960955738,249.15711636305787,140,0.5807923619577195,,001,2019_Jul_17_1451,Test,3.1.2,59.98005809180591,
Pictures\IA25_L20.bmp,Pictures\IA25_L20.bmp,"Advisor 1 says:

"Don't be tempted to gamble."",Pictures\IA25.bmp,"Advisor 2 says:

"Take a leap, I think you should gamble."","

"Don't be tempted to gamble."",0,70,0,0,0,0,0,14,14,27,,,,,,,,,,,,,,,,,,,,,,,,,249.17379892780446,None,252.1956269343209,254.1752659883059,254.1918658229115,None,256.19231555142323,None,260.22687280364335,None,260.22687280364335,None,n,0.46579092973843217,260.22687280364335,None,None,None,260.77862315269886,None,260.77862315269886,None,right,260.77862315269886,None,None,None,261.4607291511493,263.69471799128223,136,0.6499333027168177,,001,2019_Jul_17_1451,Test,3.1.2,59.98005809180591,
Pictures\IA100_L60.bmp,Pictures\IA100_L60.bmp,"Advisor 1 says:

"Be cautious, don't gamble for this one."",Pictures\IA100.bmp,"Advisor 2 says:

"Why not take the gamble?"","

"Be cautious, don't gamble for this one."",0,50,0,0,0,0,0,15,15,6,,,,,,,,,,,,,,,,,,,,,,,,,263.7113884264254,None,266.7304452841345,268.71284522340284,268.7294145784981,None,270.73011871776544,None,274.7643123927701,None,274.7643123927701,None,n,0.5599776441813447,274.7643123927701,None,None,None,275.4150412733143,None,275.4150412733143,None,right,275.4150412733143,None,None,None,276.2484013021749,278.33237550902413,127,0.8051179480098654,,001,2019_Jul_17_1451,Test,3.1.2,59.98005809180591,
Pictures\IA50_G30.bmp,Pictures\IA50_G30.bmp,"Advisor 1 says:

"I think you should gamble."",Pictures\IA50.bmp,"Advisor 2 says:

"Don't be tempted to gamble."","

"I think you should gamble."",1,30,0,0,0,0,0,16,16,2,,,,,,,,,,,,,,,,,,,,,,,,,278.34903723571915,None,281.3691571446834,283.35050118606887,283.3671576255001,None,285.36775353134726,None,289.3891218568315,289.91881000463036,289.3891218568315,289.91881000463036,y,0.4468105818668846,289.3891218568315,None,289.90216040753876,292.8533119893691,293.42267421772704,None,293.42267421772704,None,left,293.42267421772704,None,293.9869003347412,296.3376111453108,None,None,0,0.5411593354656361,,001,2019_Jul_17_1451,Test,3.1.2,59.98005809180591,
Pictures\IA100_L40.bmp,Pictures\IA100_L40.bmp,"Advisor 1 says:

"Think of the payoff, gamble!"",Pictures\IA100.bmp,"Advisor 2 says:

"I think you should take a gamble."","

"Think of the payoff, gamble!"",1,40,0,0,0,0,0,17,17,21,,,,,,,,,,,,,,,,,,,,,,,,,296.3543101938849,None,299.3739122618863,301.3557806755416,301.3891255890194,None,303.3730009862338,None,307.3738957780588,None,307.3738957780588,None,n,0.6535454376717098,307.3738957780588,None,None,None,308.1084946752526,None,308.1084946752526,None,right,308.1084946752526,None,None,None,308.87465636665,311.0419973669341,132,0.7432367329311091,,001,2019_Jul_17_1451,Test,3.1.2,59.98005809180591,
Pictures\IA75_L15.bmp,Pictures\IA75_L15.bmp,"Advisor 1 says:

"Take a chance!"",Pictures\IA75.bmp,"Advisor 2 says:

"I don't think you should gamble."","

"Take a chance!"",1,80,0,0,0,0,0,18,18,12,,,,,,,,,,,,,,,,,,,,,,,,,311.0586444759101,None,314.0819653572107,316.060123666015,316.0767841486668,None,318.0772615575697,None,322.0950908367813,None,322.0950908367813,None,n,0.6683746605704073,322.0950908367813,None,None,None,322.87850611752947,None,322.87850611752947,None,right,322.87850611752947,None,None,None,323.59562002978055,325.7796812276938,133,0.7007703544804826,,001,2019_Jul_17_1451,Test,3.1.2,59.98005809180591,
Pictures\IA75_L30.bmp,Pictures\IA75_L30.bmp,"Advisor 1 says:

"Hold back, stay with the safe choice."",Pictures\IA75.bmp,"Advisor 2 says:

"Try to win as much money as you can, gamble!"","

"Hold back, stay with the safe choice."",0,80,0,0,0,0,0,19,19,29,,,,,,,,,,,,,,,,,,,,,,,,,325.7962922588631,None,328.8302934152016,330.79778948787134,330.8144736076938,None,332.81482598834555,None,336.8658844832098,None,336.8658844832098,None,n,0.5851521783624776,336.8658844832098,None,None,None,337.55437438748777,None,337.55437438748777,None,right,337.55437438748777,None,None,None,338.33332410655566,340.4672803833382,130,0.7607916963752359,,001,2019_Jul_17_1451,Test,3.1.2,59.98005809180591,
Pictures\IA25_L15.bmp,Pictures\IA25_L15.bmp,"Advisor 1 says:

"I think you should take a gamble."",Pictures\IA25.bmp,"Advisor 2 says:

"Think of the payoff, gamble!"","

"I think you should take a gamble."",1,70,0,0,0,0,0,20,20,10,,,,,,,,,,,,,,,,,,,,,,,,,340.48393962191767,None,343.50707171676913,345.48545209071017,345.5019891001575,None,347.5026661810698,None,351.5370368239528,None,351.5370368239528,None,n,0.8578549939556979,351.5370368239528,None,None,None,352.4880829715112,None,352.4880829715112,None,right,352.4880829715112,None,None,None,353.0543244695,355.40500853271806,143,0.538735902053304,,001,2019_Jul_17_1451,Test,3.1.2,59.98005809180591,
Pictures\IA50_G10.bmp,Pictures\IA50_G10.bmp,"Advisor 1 says:

"Go with the safe option here!"",Pictures\IA50.bmp,"Advisor 2 says:

"Try your luck and gamble!"","

"Go with the safe option here!"",0,20,0,0,0,0,0,21,21,0,,,,,,,,,,,,,,,,,,,,,,,,,355.4216795898974,None,358.4400742954167,360.4231519376335,360.43972440288053,None,362.4246015812678,None,366.4604884251021,None,366.4604884251021,None,n,1.28599095629761,366.4604884251021,None,None,None,367.8439392238215,None,367.8439392238215,None,right,367.8439392238215,None,None,None,368.45885248313425,370.7595271070313,140,0.582648191950284,,001,2019_Jul_17_1451,Test,3.1.2,59.98005809180591,
Pictures\IA75_L60.bmp,Pictures\IA75_L60.bmp,"Advisor 1 says:

"Why not take the gamble?"",Pictures\IA75.bmp,"Advisor 2 says:

"It would be smarter to choose the safe option."","

"Why not take the gamble?"",1,90,0,0,0,0,0,22,22,31,,,,,,,,,,,,,,,,,,,,,,,,,370.77621371496934,None,373.79582573549123,375.7776543391519,375.79421249765437,None,377.79492441233015,None,381.81382358513656,382.3127501148556,381.81382358513656,382.3127501148556,y,0.4284727922058664,381.81382358513656,None,382.29606537299696,385.26380248271744,385.84697473590495,None,385.84697473590495,None,right,385.84697473590495,None,None,None,386.38073469966184,388.7648078405764,145,0.5071843044133857,,001,2019_Jul_17_1451,Test,3.1.2,59.98005809180591,
Pictures\IA75_L60.bmp,Pictures\IA75_L60.bmp,"Advisor 1 says:

"Make it exciting, take a chance!"",Pictures\IA75.bmp,"Advisor 2 says:

"Let's stay with the certain option."","

"Make it exciting, take a chance!"",1,95,0,0,0,0,0,23,23,15,,,,,,,,,,,,,,,,,,,,,,,,,388.7814832519798,None,391.79927894147113,393.78297239457606,393.7996387864987,None,395.80029191923677,None,399.834545931255,None,399.834545931255,None,n,0.5434502762218472,399.834545931255,None,None,None,400.48473053454654,None,400.48473053454654,None,left,400.48473053454654,None,401.3184504084056,403.38577750630793,None,None,0,0.8132528715359513,,001,2019_Jul_17_1451,Test,3.1.2,59.98005809180591,
Pictures\IA50_L40.bmp,Pictures\IA50_L40.bmp,"Advisor 1 says:

"That gamble doesn't sound too good, play it safe."",Pictures\IA50.bmp,"Advisor 2 says:

"Let's venture and take a risk!"","

"That gamble doesn't sound too good, play it safe."",0,30,0,0,0,0,0,24,24,19,,,,,,,,,,,,,,,,,,,,,,,,,403.40243550081505,None,406.42342874151655,408.40392308833543,408.42052043482545,None,410.4210012649128,None,414.4721284942352,None,414.4721284942352,None,n,0.46561551693594083,414.4721284942352,None,None,None,415.0275668660179,None,415.0275668660179,None,right,415.0275668660179,None,None,None,415.9061131045455,417.9400654314668,124,0.8460192960337736,,001,2019_Jul_17_1451,Test,3.1.2,59.98005809180591,
Pictures\IA25_L5.bmp,Pictures\IA25_L5.bmp,"Advisor 1 says:

"It would be smarter to choose the safe option."",Pictures\IA25.bmp,"Advisor 2 says:

"Certainty is boring, take a risk!"","

"It would be smarter to choose the safe option."",0,55,0,0,0,0,0,25,25,24,,,,,,,,,,,,,,,,,,,,,,,,,417.95673959879787,None,420.9782662312209,422.9582063482667,422.97489046808914,None,424.975249380077,None,429.026296367374,None,429.026296367374,None,n,0.9992165517469402,429.026296367374,None,None,None,430.12682375649456,None,430.12682375649456,None,right,430.12682375649456,None,None,None,430.9772591627552,433.0278103912133,125,0.8265285716042854,,001,2019_Jul_17_1451,Test,3.1.2,59.98005809180591,
Pictures\IA75_L15.bmp,Pictures\IA75_L15.bmp,"Advisor 1 says:

"Trust me, gamble!"",Pictures\IA75.bmp,"Advisor 2 says:

"Play it safe, don’t gamble!"","

"Trust me, gamble!"",1,75,0,0,0,0,0,26,26,28,,,,,,,,,,,,,,,,,,,,,,,,,433.0444077377033,None,436.06571292702574,438.0459248716943,438.0626506676199,None,440.06303539389046,None,444.0974990304094,None,444.0974990304094,None,n,0.40787702941452153,444.0974990304094,None,None,None,444.614372714248,None,444.614372714248,None,right,444.614372714248,None,None,None,445.34809641359607,447.51541377668036,132,0.71467523908359,,001,2019_Jul_17_1451,Test,3.1.2,59.98005809180591,
Pictures\IA100_L20.bmp,Pictures\IA100_L20.bmp,"Advisor 1 says:

"Go ahead and gamble!"",Pictures\IA100.bmp,"Advisor 2 says:

"Be cautious, don't gamble for this one."","

"Go ahead and gamble!"",1,40,0,0,0,0,0,27,27,4,,,,,,,,,,,,,,,,,,,,,,,,,447.5320316501893,None,450.55351038620574,452.53357117730775,452.5502083337924,None,454.55061483115423,None,458.5851577766589,None,458.5851577766589,None,n,1.4317474752606358,458.5851577766589,None,None,None,460.1189180514484,None,460.1189180514484,None,right,460.1189180514484,None,None,None,460.96930898248684,463.0199659562495,125,0.8258754388953093,,001,2019_Jul_17_1451,Test,3.1.2,59.98005809180591,
Pictures\IA75_L30.bmp,Pictures\IA75_L30.bmp,"Advisor 1 says:

"Be bold, gamble!"",Pictures\IA75.bmp,"Advisor 2 says:

"Dont be afraid to take the risk!"","

"Be bold, gamble!"",1,85,0,0,0,0,0,28,28,13,,,,,,,,,,,,,,,,,,,,,,,,,463.0366410566203,None,466.0578529412742,468.0381168255408,468.05478166238754,None,470.0551775852218,None,474.07313966809306,None,474.07313966809306,None,n,1.6314804372668732,474.07313966809306,None,None,None,475.8068322658946,None,475.8068322658946,None,right,475.8068322658946,None,None,None,476.64062771652243,478.7079206026974,126,0.8098307670734357,,001,2019_Jul_17_1451,Test,3.1.2,59.98005809180591,
Pictures\IA25_L15.bmp,Pictures\IA25_L15.bmp,"Advisor 1 says:

"There's not much on the line here, gamble!"",Pictures\IA25.bmp,"Advisor 2 says:

"Go all in!"","

"There's not much on the line here, gamble!"",1,65,0,0,0,0,0,29,29,26,,,,,,,,,,,,,,,,,,,,,,,,,478.7245767311251,None,481.7455401143234,483.72601206804393,483.742659799027,None,485.74329955808935,None,489.77751593722496,490.52785004570615,489.77751593722496,490.52785004570615,y,0.6628258315904532,489.77751593722496,None,490.5126298762334,493.4622481512488,493.812166183081,None,493.812166183081,None,right,493.812166183081,None,None,None,494.37915971677285,496.7131957379752,142,0.5479711987136398,,001,2019_Jul_17_1451,Test,3.1.2,59.98005809180591,
Pictures\IA25_L20.bmp,Pictures\IA25_L20.bmp,"Advisor 1 says:

"I wouldn't gamble for this one. "",Pictures\IA25.bmp,"Advisor 2 says:

"Why not gamble?"","

"I wouldn't gamble for this one. "",0,75,0,0,0,0,0,30,30,11,,,,,,,,,,,,,,,,,,,,,,,,,496.72988732217345,None,499.75112595414976,501.7313553157146,501.748043167725,None,503.7484098550922,None,507.7828514095163,None,507.7828514095163,None,n,1.2091483367257752,507.7828514095163,None,None,None,509.08401090669213,None,509.08401090669213,None,left,509.08401090669213,None,510.15040837900597,512.0010363039328,None,None,0,1.043964229465928,,001,2019_Jul_17_1451,Test,3.1.2,59.98005809180591,
Pictures\IA50_G40.bmp,Pictures\IA50_G40.bmp,"Advisor 1 says:

"It would probably be best to play it safe."",Pictures\IA50.bmp,"Advisor 2 says:

"What's life without a little risk?"","

"It would probably be best to play it safe."",0,35,0,0,0,0,0,31,31,3,,,,,,,,,,,,,,,,,,,,,,,,,512.0177350414742,None,515.0359316300601,517.0190126934904,517.0355341521499,None,519.0364224126679,None,523.0707516904513,None,523.0707516904513,None,n,1.1048178490600549,523.0707516904513,None,None,None,524.2876607989601,None,524.2876607989601,None,left,524.2876607989601,None,524.9048398067534,527.1888415073918,None,None,0,0.599968338618055,,001,2019_Jul_17_1451,Test,3.1.2,59.98005809180591,
