Choice,Choice2,AdviceVar,Amount,AdviceVar2,AdviceVar1,GambleAdvice,GambleAdviceNum,trials_2.thisRepN,trials_2.thisTrialN,trials_2.thisN,trials_2.thisIndex,trials.thisRepN,trials.thisTrialN,trials.thisN,trials.thisIndex,instructions.started,instructions.stopped,space.keys,space.rt,space.started,space.stopped,chooseInst.started,chooseInst.stopped,Ad1.started,Ad1.stopped,Ad2.started,Ad2.stopped,key_resp_3.keys,key_resp_3.rt,key_resp_3.started,key_resp_3.stopped,Ad1pic.started,Ad1pic.stopped,Ad2pic.started,Ad2pic.stopped,enter.keys,enter.rt,enter.started,enter.stopped,iSi.started,iSi.stopped,receiveMoneyPicture.started,receiveMoneyPicture.stopped,ISI2.started,ISI2.stopped,ChoicePic.started,ChoicePic.stopped,text_3.started,text_3.stopped,ask.started,ask.stopped,response.keys,response.rt,response.started,response.stopped,Advice.started,Advice.stopped,blank.started,blank.stopped,ChoicePic2.started,ChoicePic2.stopped,resp.keys,resp.rt,resp.started,resp.stopped,checkL1.started,checkL1.stopped,checkR1.started,checkR1.stopped,participant,session,date,expName,psychopyVersion,frameRate,
,,,,,,,,,,,,,,,,5.685179454449099,None,space,1.0806276792427525,5.685179454449099,None,,,,,,,,,,,,,,,,,,,,,,,,,,,,,,,,,,,,,,,,,,,,,,,,,,001,2019_Jul_19_1621,Test,3.1.2,59.916794476387835,
Pictures\IA25_G5.bmp,Pictures\IA25_G5.bmp,"Advisor 1 says:

"Let's stay with the certain option."",Pictures\IA25.bmp,"Advisor 2 says:

"Take a chance!"","

"Let's stay with the certain option."",safe,0,0,0,0,0,0,0,0,8,,,,,,,9.189092185988557,None,9.189092185988557,None,9.189092185988557,None,right,0.8165869585936889,9.189092185988557,None,9.189092185988557,None,9.189092185988557,None,return,1.2805652894894592,9.189092185988557,None,10.518748485774267,None,12.652755147079006,14.52002489368897,14.536607622459996,None,16.57040941779269,None,19.704526489658747,22.0885399155668,19.704526489658747,22.0885399155668,y,2.277025932155084,19.704526489658747,24.522912673361134,22.07183309161337,None,25.208778850210365,None,25.208778850210365,None,left,0.8526535693672486,25.208778850210365,None,26.09009685961064,27.990568452514708,None,None,,001,2019_Jul_19_1621,Test,3.1.2,59.916794476387835,
Pictures\IA25_G15.bmp,Pictures\IA25_G15.bmp,"Advisor 1 says:

"I think you should take a gamble."",Pictures\IA25.bmp,"Advisor 2 says:

"Think of the payoff, gamble!"","

"I think you should take a gamble."",risk,1,0,0,0,0,0,1,1,18,,,,,,,,,,,,,,,,,,,,,,,,,28.374120331311133,None,30.407850282092113,32.37529939139495,32.391958940948825,None,34.392394673777744,None,37.42657684121514,38.6935855835909,37.42657684121514,38.6935855835909,y,1.170581782644149,37.42657684121514,None,38.67694438388571,41.627987110288814,42.4791468718322,None,42.4791468718322,None,right,1.1421111053205095,42.4791468718322,None,None,None,43.64522919204319,45.36243360984372,,001,2019_Jul_19_1621,Test,3.1.2,59.916794476387835,
Pictures\IA50_L10.bmp,Pictures\IA50_L10.bmp,"Advisor 1 says:

"Play it safe, don’t gamble!"",Pictures\IA50.bmp,"Advisor 2 says:

"It would probably be best to play it safe."","

"Play it safe, don’t gamble!"",safe,0,0,0,0,0,0,2,2,1,,,,,,,,,,,,,,,,,,,,,,,,,45.3790287792217,None,47.4129142377642,49.38023831881583,49.39687360916287,None,51.38052600820083,None,54.43157983786659,55.76525850215694,54.43157983786659,55.76525850215694,y,1.2454463430913165,54.43157983786659,None,55.748587445006706,58.699683666054625,59.452995126717724,None,59.452995126717724,None,left,0.7277487789979205,59.452995126717724,None,60.20000883284956,62.36741950060241,None,None,,001,2019_Jul_19_1621,Test,3.1.2,59.916794476387835,
Pictures\IA100_L20.bmp,Pictures\IA100_L20.bmp,"Advisor 1 says:

"Try to win as much money as you can, gamble!"",Pictures\IA100.bmp,"Advisor 2 says:

"I wouldn't gamble for this one. "","

"Try to win as much money as you can, gamble!"",risk,1,0,0,0,0,0,3,3,9,,,,,,,,,,,,,,,,,,,,,,,,,62.383938471146394,None,64.40648056945065,66.38527739327401,66.40185514575569,None,68.40239289170131,None,71.43650290346704,None,71.43650290346704,None,n,0.8961727355490439,71.43650290346704,None,None,None,72.4200091251987,None,72.4200091251987,None,left,0.8645020189578645,72.4200091251987,None,73.30383236508351,75.3378923034179,None,None,,001,2019_Jul_19_1621,Test,3.1.2,59.916794476387835,
Pictures\IA75_L45.bmp,Pictures\IA75_L45.bmp,"Advisor 1 says:

"Don't gamble for this one, play it safe."",Pictures\IA75.bmp,"Advisor 2 says:

"Go ahead and gamble!"","

"Don't gamble for this one, play it safe."",safe,0,0,0,0,0,0,4,4,19,,,,,,,,,,,,,,,,,,,,,,,,,75.35459104093025,None,77.37622777291108,79.35576263663825,79.37242249725387,None,81.37299725407502,None,84.42371176567394,85.67404820682714,84.42371176567394,85.67404820682714,y,1.1566485956427641,84.42371176567394,None,85.6572807347984,88.60847368172836,89.42602634365903,None,89.42602634365903,None,right,0.30626201879931614,89.42602634365903,None,None,None,89.75873868254712,92.34287570603192,,001,2019_Jul_19_1621,Test,3.1.2,59.916794476387835,
Pictures\IA100_G20.bmp,Pictures\IA100_G20.bmp,"Advisor 1 says:

"Go ahead and gamble!"",Pictures\IA100.bmp,"Advisor 2 says:

"Be cautious, don't gamble for this one."","

"Go ahead and gamble!"",risk,1,0,0,0,0,0,5,5,14,,,,,,,,,,,,,,,,,,,,,,,,,92.35952716926113,None,94.38277682795888,96.36075319268275,96.3772930012783,None,98.3778002676554,None,101.39645715930965,102.84580718341749,101.39645715930965,102.84580718341749,y,1.3674633538466878,101.39645715930965,None,102.82919273106381,105.79684182337951,106.43284193909494,None,106.43284193909494,None,right,0.987104983010795,106.43284193909494,None,None,None,107.4473492608522,109.34782987326616,,001,2019_Jul_19_1621,Test,3.1.2,59.916794476387835,
Pictures\IA50_G30.bmp,Pictures\IA50_G30.bmp,"Advisor 1 says:

"I think you should gamble."",Pictures\IA50.bmp,"Advisor 2 says:

"Don't be tempted to gamble."","

"I think you should gamble."",risk,1,0,0,0,0,0,6,6,10,,,,,,,,,,,,,,,,,,,,,,,,,109.3645183473127,None,111.38620670780074,113.36570176156238,113.38228138018167,None,115.38281912612729,None,118.41725135006709,None,118.41725135006709,None,n,1.338439690764062,118.41725135006709,None,None,None,119.85325009725057,None,119.85325009725057,None,right,0.9744366963277571,119.85325009725057,None,None,None,120.85122569685336,122.768528519955,,001,2019_Jul_19_1621,Test,3.1.2,59.916794476387835,
Pictures\IA25_G20.bmp,Pictures\IA25_G20.bmp,"Advisor 1 says:

"I wouldn't gamble for this one. "",Pictures\IA25.bmp,"Advisor 2 says:

"Why not gamble?"","

"I wouldn't gamble for this one. "",safe,0,0,0,0,0,0,7,7,4,,,,,,,,,,,,,,,,,,,,,,,,,122.78511995717417,None,124.80225256143603,126.78636744065443,126.80298375908751,None,128.80350160005037,None,131.83770584955346,133.05469613312744,131.83770584955346,133.05469613312744,y,1.1418371006147936,131.83770584955346,None,133.04070789634716,136.00574632390635,136.84499418869382,None,136.84499418869382,None,left,0.8703506669844501,136.84499418869382,None,137.73979565652553,139.77340306719998,None,None,,001,2019_Jul_19_1621,Test,3.1.2,59.916794476387835,
Pictures\IA100_L80.bmp,Pictures\IA100_L80.bmp,"Advisor 1 says:

"Go all in!"",Pictures\IA100.bmp,"Advisor 2 says:

"There's not much on the line here, gamble!"","

"Go all in!"",risk,1,0,0,0,0,0,8,8,0,,,,,,,,,,,,,,,,,,,,,,,,,139.79001596441958,None,141.81280158791924,143.79136110685067,143.80798644467723,None,145.7974647876108,None,148.81242961331736,149.84301955078263,148.81242961331736,149.84301955078263,y,0.9506480476120487,148.81242961331736,None,149.82636435539462,152.79402029002085,153.84941651922418,None,153.84941651922418,None,right,0.561830364051275,153.84941651922418,None,None,None,154.42772728786804,156.7784489839687,,001,2019_Jul_19_1621,Test,3.1.2,59.916794476387835,
Pictures\IA50_G20.bmp,Pictures\IA50_G20.bmp,"Advisor 1 says:

"Let's venture and take a risk!"",Pictures\IA50.bmp,"Advisor 2 says:

"Don't gamble for this one."","

"Let's venture and take a risk!"",risk,1,0,0,0,0,0,9,9,13,,,,,,,,,,,,,,,,,,,,,,,,,156.7951085335808,None,158.81720494653564,160.79639955924358,160.81301121244906,None,162.81338598619914,None,165.8310103061376,166.3478457350284,165.8310103061376,166.3478457350284,y,0.41976342286216095,165.8310103061376,None,166.33111527387518,169.28220371954376,170.87053976446623,None,170.87053976446623,None,None,,170.87053976446623,None,None,None,None,None,,001,2019_Jul_19_1621,Test,3.1.2,59.916794476387835,
Pictures\IA25_L10.bmp,Pictures\IA25_L10.bmp,"Advisor 1 says:

"Dont be afraid to take the risk!"",Pictures\IA25.bmp,"Advisor 2 says:

"Be bold, gamble!"","

"Dont be afraid to take the risk!"",risk,1,0,0,0,0,0,10,10,16,,,,,,,,,,,,,,,,,,,,,,,,,173.80018399684923,None,175.81731629010756,177.80137114331592,177.81795915932162,None,179.81842163950205,None,182.83601610187907,183.8363977179979,182.83601610187907,183.8363977179979,y,0.9104719879105687,182.83601610187907,None,183.81961003004108,186.77066613006173,187.88727675692644,None,187.88727675692644,None,left,2.459202064666897,187.88727675692644,None,190.37165211164393,None,None,None,,001,2019_Jul_19_1621,Test,3.1.2,59.916794476387835,
Pictures\IA75_G30.bmp,Pictures\IA75_G30.bmp,"Advisor 1 says:

"Be bold, gamble!"",Pictures\IA75.bmp,"Advisor 2 says:

"Dont be afraid to take the risk!"","

"Be bold, gamble!"",risk,1,0,0,0,0,0,11,11,3,,,,,,,,,,,,,,,,,,,,,,,,,190.8050538788084,None,192.8223715373315,194.8063063385198,194.82289124437375,None,196.82360782427713,None,199.84316759416834,200.72461934026796,199.84316759416834,200.72461934026796,y,0.8154564169235528,199.84316759416834,None,200.70940041483846,203.675631276099,204.8756174048176,None,204.8756174048176,None,right,0.7265942891826853,204.8756174048176,None,None,None,205.62617357843556,207.79333481169306,,001,2019_Jul_19_1621,Test,3.1.2,59.916794476387835,
Pictures\IA75_G15.bmp,Pictures\IA75_G15.bmp,"Advisor 1 says:

"Take a chance!"",Pictures\IA75.bmp,"Advisor 2 says:

"I don't think you should gamble."","

"Take a chance!"",risk,1,0,0,0,0,0,12,12,12,,,,,,,,,,,,,,,,,,,,,,,,,207.81019589939388,None,209.828414259071,211.81122287281323,211.82788802072173,None,213.81615900114411,None,216.84598041907884,217.92964205530006,216.84598041907884,217.92964205530006,y,1.0038724549813196,216.84598041907884,None,217.9130092530395,220.88070219854126,221.89750574837672,None,221.89750574837672,None,right,0.5922728800796904,221.89750574837672,None,None,None,222.51452333910856,224.79842240456492,,001,2019_Jul_19_1621,Test,3.1.2,59.916794476387835,
Pictures\IA75_L30.bmp,Pictures\IA75_L30.bmp,"Advisor 1 says:

"Hold back, stay with the safe choice."",Pictures\IA75.bmp,"Advisor 2 says:

"Try to win as much money as you can, gamble!"","

"Hold back, stay with the safe choice."",safe,0,0,0,0,0,0,13,13,6,,,,,,,,,,,,,,,,,,,,,,,,,224.81517588085262,None,226.83496300317347,228.8162149839336,228.8328204168356,None,230.83359640068375,None,233.8843541435199,234.38433594908565,233.8843541435199,234.38433594908565,y,0.41329429880715907,233.8843541435199,None,234.36758776003262,237.318763601128,238.8867150627775,None,238.8867150627775,None,left,0.8828388755791821,238.8867150627775,None,239.78619824815542,241.80331374664092,None,None,,001,2019_Jul_19_1621,Test,3.1.2,59.916794476387835,
Pictures\IA50_G10.bmp,Pictures\IA50_G10.bmp,"Advisor 1 says:

"Go with the safe option here!"",Pictures\IA50.bmp,"Advisor 2 says:

"Try your luck and gamble!"","

"Go with the safe option here!"",safe,0,0,0,0,0,0,14,14,7,,,,,,,,,,,,,,,,,,,,,,,,,241.82011978456285,None,243.8427738484461,245.82135824859142,245.83786446752492,None,247.83860934979748,None,250.87267706351122,251.43949767254526,250.87267706351122,251.43949767254526,y,0.49663403385784477,250.87267706351122,None,251.4229230301571,254.39054568618303,255.89061457611388,None,255.89061457611388,None,right,0.7025051994132809,255.89061457611388,None,None,None,256.62452955008484,258.8085005534813,,001,2019_Jul_19_1621,Test,3.1.2,59.916794476387835,
Pictures\IA25_L5.bmp,Pictures\IA25_L5.bmp,"Advisor 1 says:

"It would be smarter to choose the safe option."",Pictures\IA25.bmp,"Advisor 2 says:

"Certainty is boring, take a risk!"","

"It would be smarter to choose the safe option."",safe,0,0,0,0,0,0,15,15,15,,,,,,,,,,,,,,,,,,,,,,,,,258.82506431028014,None,260.8481973381713,262.82631334883627,262.84302888123784,None,264.8434123634361,None,267.87762283330085,269.59483533748426,267.87762283330085,269.59483533748426,y,1.6193635812960565,267.87762283330085,None,269.5781583710341,272.52921353804413,272.91227836639155,None,272.91227836639155,None,left,1.232642142684199,272.91227836639155,None,274.1629690542468,275.8135122585227,None,None,,001,2019_Jul_19_1621,Test,3.1.2,59.916794476387835,
Pictures\IA50_L40.bmp,Pictures\IA50_L40.bmp,"Advisor 1 says:

"That gamble doesn't sound too good, play it safe."",Pictures\IA50.bmp,"Advisor 2 says:

"Let's venture and take a risk!"","

"That gamble doesn't sound too good, play it safe."",safe,0,0,0,0,0,0,16,16,2,,,,,,,,,,,,,,,,,,,,,,,,,275.83018176059704,None,277.84932259254856,279.83100564091,279.84788352344185,None,281.8484134940081,None,284.8824385985499,285.94960521237226,284.8824385985499,285.94960521237226,y,0.982300725299865,284.8824385985499,None,285.93307038000785,288.88402944325935,289.90066877682693,None,289.90066877682693,None,right,0.3878040838171728,289.90066877682693,None,None,None,290.317780169833,292.8182549351477,,001,2019_Jul_19_1621,Test,3.1.2,59.916794476387835,
Pictures\IA50_L20.bmp,Pictures\IA50_L20.bmp,"Advisor 1 says:

"Certainty is boring, take a risk!"",Pictures\IA50.bmp,"Advisor 2 says:

"You'd have a lot to lose, don't gamble."","

"Certainty is boring, take a risk!"",risk,1,0,0,0,0,0,17,17,5,,,,,,,,,,,,,,,,,,,,,,,,,292.83503080456285,None,294.8549115424976,296.8362580720568,296.85302305588266,None,298.85354929429013,None,301.8876384680625,303.4212447901373,301.8876384680625,303.4212447901373,y,1.4407840329222381,301.8876384680625,None,303.4045712448424,306.355841945624,306.905606771179,None,306.905606771179,None,left,1.3746879347600043,306.905606771179,None,308.3062663730234,309.82346444611903,None,None,,001,2019_Jul_19_1621,Test,3.1.2,59.916794476387835,
Pictures\IA75_G45.bmp,Pictures\IA75_G45.bmp,"Advisor 1 says:

"Don't gamble for this one."",Pictures\IA75.bmp,"Advisor 2 says:

"Trust me, gamble!"","

"Don't gamble for this one."",safe,0,0,0,0,0,0,18,18,17,,,,,,,,,,,,,,,,,,,,,,,,,309.8400375333731,None,311.8582493617432,313.8413360234117,313.8579607392894,None,315.858589923766,None,318.8759032281232,319.959618670051,318.8759032281232,319.959618670051,y,1.0125696947216056,318.8759032281232,None,319.94296254159417,322.91065984132,323.92727118352195,None,323.92727118352195,None,right,0.4807047488866374,323.92727118352195,None,None,None,324.4277157802717,326.82848828076385,,001,2019_Jul_19_1621,Test,3.1.2,59.916794476387835,
Pictures\IA25_L20.bmp,Pictures\IA25_L20.bmp,"Advisor 1 says:

"Don't be tempted to gamble."",Pictures\IA25.bmp,"Advisor 2 says:

"Take a leap, I think you should gamble."","

"Don't be tempted to gamble."",safe,0,0,0,0,0,0,19,19,11,,,,,,,,,,,,,,,,,,,,,,,,,326.84504426218336,None,328.86501643876545,330.8463430632837,330.8629264140618,None,332.86355248838663,None,335.897678362031,338.3150528742117,335.897678362031,338.3150528742117,y,2.318098960793577,335.897678362031,340.8492641216144,338.29842318210285,None,341.31857543665683,None,341.31857543665683,None,left,1.8410990295233205,341.31857543665683,None,343.183297032665,344.23351920663845,None,None,,001,2019_Jul_19_1621,Test,3.1.2,59.916794476387835,
