Choice,Choice2,Amount,AdviceVar1,GambleAdviceNum,GambleAdviceType,trials_2.thisRepN,trials_2.thisTrialN,trials_2.thisN,trials_2.thisIndex,trials.thisRepN,trials.thisTrialN,trials.thisN,trials.thisIndex,space.keys,space.rt,key_resp_3.keys,key_resp_3.rt,enter.keys,enter.rt,response.keys,response.rt,resp.keys,resp.rt,key_resp_2.keys,key_resp_2.rt,participant,session,date,expName,psychopyVersion,frameRate,
,,,,,,,,,,,,,,space,2.3996798999869497,,,,,,,,,,,,001,2019_Jul_21_0952,Test,3.0.7,59.94779745478505,
Pictures\IA100_L40.bmp,Pictures\IA100_L40.bmp,Pictures\IA100.bmp,"

"Think of the payoff, gamble!"",1,risk,0,0,0,0,0,0,0,1,,,right,1.1873727000056533,return,1.6540967000037199,y,1.8125643999956083,right,0.9022212999989279,,,,001,2019_Jul_21_0952,Test,3.0.7,59.94779745478505,
Pictures\IA25_L15.bmp,Pictures\IA25_L15.bmp,Pictures\IA25.bmp,"

"There's not much on the line here, gamble!"",1,risk,0,0,0,0,0,1,1,19,,,,,,,y,0.7934749999985797,left,0.7773481999902287,,,,001,2019_Jul_21_0952,Test,3.0.7,59.94779745478505,
Pictures\IA25_G20.bmp,Pictures\IA25_G20.bmp,Pictures\IA25.bmp,"

"I wouldn't gamble for this one. "",0,safe,0,0,0,0,0,2,2,14,,,,,,,y,0.9009162000002107,right,0.484909399994649,,,,001,2019_Jul_21_0952,Test,3.0.7,59.94779745478505,
Pictures\IA100_G60.bmp,Pictures\IA100_G60.bmp,Pictures\IA100.bmp,"

"Be cautious, don't gamble for this one."",0,safe,0,0,0,0,0,3,3,5,,,,,,,y,0.43292429999564774,left,0.5006008999916958,,,,001,2019_Jul_21_0952,Test,3.0.7,59.94779745478505,
Pictures\IA75_L15.bmp,Pictures\IA75_L15.bmp,Pictures\IA75.bmp,"

"Trust me, gamble!"",1,risk,0,0,0,0,0,4,4,7,,,,,,,y,0.4602500000037253,right,0.39815369999269024,,,,001,2019_Jul_21_0952,Test,3.0.7,59.94779745478505,
Pictures\IA50_L10.bmp,Pictures\IA50_L10.bmp,Pictures\IA50.bmp,"

"Play it safe, don’t gamble!"",0,safe,0,0,0,0,0,5,5,18,,,,,,,y,0.9812377000052948,left,0.8717514000018127,,,,001,2019_Jul_21_0952,Test,3.0.7,59.94779745478505,
Pictures\IA100_G40.bmp,Pictures\IA100_G40.bmp,Pictures\IA100.bmp,"

"Try your luck and gamble!"",1,risk,0,0,0,0,0,6,6,3,,,,,,,y,0.6805410999950254,left,0.6962217999971472,,,,001,2019_Jul_21_0952,Test,3.0.7,59.94779745478505,
Pictures\IA100_L60.bmp,Pictures\IA100_L60.bmp,Pictures\IA100.bmp,"

"You'd have a lot to lose, don't gamble."",0,safe,0,0,0,0,0,7,7,16,,,,,,,y,0.4632560000027297,left,0.4398635999968974,,,,001,2019_Jul_21_0952,Test,3.0.7,59.94779745478505,
Pictures\IA100_G20.bmp,Pictures\IA100_G20.bmp,Pictures\IA100.bmp,"

"Go ahead and gamble!"",1,risk,0,0,0,0,0,8,8,12,,,,,,,y,0.41495850001228973,right,1.888960299998871,,,,001,2019_Jul_21_0952,Test,3.0.7,59.94779745478505,
Pictures\IA75_G15.bmp,Pictures\IA75_G15.bmp,Pictures\IA75.bmp,"

"Take a chance!"",1,risk,0,0,0,0,0,9,9,4,,,,,,,n,0.4092674999992596,left,0.6377017000049818,,,,001,2019_Jul_21_0952,Test,3.0.7,59.94779745478505,
Pictures\IA25_L10.bmp,Pictures\IA25_L10.bmp,Pictures\IA25.bmp,"

"Dont be afraid to take the risk!"",1,risk,0,0,0,0,0,10,10,11,,,,,,,y,0.4448285999969812,left,1.0953081000043312,,,,001,2019_Jul_21_0952,Test,3.0.7,59.94779745478505,
Pictures\IA50_L30.bmp,Pictures\IA50_L30.bmp,Pictures\IA50.bmp,"

"Take a leap, I think you should gamble."",1,risk,0,0,0,0,0,11,11,15,,,,,,,y,0.7894299000035971,right,0.7364909000025364,,,,001,2019_Jul_21_0952,Test,3.0.7,59.94779745478505,
Pictures\IA75_L45.bmp,Pictures\IA75_L45.bmp,Pictures\IA75.bmp,"

"Don't gamble for this one, play it safe."",0,safe,0,0,0,0,0,12,12,10,,,,,,,y,0.9471281000005547,right,0.6060680000082357,,,,001,2019_Jul_21_0952,Test,3.0.7,59.94779745478505,
Pictures\IA100_G80.bmp,Pictures\IA100_G80.bmp,Pictures\IA100.bmp,"

"Why not gamble?"",1,risk,0,0,0,0,0,13,13,0,,,,,,,y,0.46450719999847934,right,0.8380604999983916,,,,001,2019_Jul_21_0952,Test,3.0.7,59.94779745478505,
Pictures\IA100_L80.bmp,Pictures\IA100_L80.bmp,Pictures\IA100.bmp,"

"Go all in!"",1,risk,0,0,0,0,0,14,14,6,,,,,,,y,0.4614218999922741,right,0.5868102999957046,,,,001,2019_Jul_21_0952,Test,3.0.7,59.94779745478505,
Pictures\IA50_L20.bmp,Pictures\IA50_L20.bmp,Pictures\IA50.bmp,"

"Certainty is boring, take a risk!"",1,risk,0,0,0,0,0,15,15,13,,,,,,,y,0.42476119998900685,left,1.051561699990998,,,,001,2019_Jul_21_0952,Test,3.0.7,59.94779745478505,
Pictures\IA50_G10.bmp,Pictures\IA50_G10.bmp,Pictures\IA50.bmp,"

"Go with the safe option here!"",0,safe,0,0,0,0,0,16,16,9,,,,,,,n,0.4804295999929309,right,0.5794828000070993,,,,001,2019_Jul_21_0952,Test,3.0.7,59.94779745478505,
Pictures\IA25_L20.bmp,Pictures\IA25_L20.bmp,Pictures\IA25.bmp,"

"Don't be tempted to gamble."",0,safe,0,0,0,0,0,17,17,17,,,,,,,n,0.44163750000006985,right,0.5235984000028111,,,,001,2019_Jul_21_0952,Test,3.0.7,59.94779745478505,
Pictures\IA25_G10.bmp,Pictures\IA25_G10.bmp,Pictures\IA25.bmp,"

"What's life without a little risk?"",1,risk,0,0,0,0,0,18,18,2,,,,,,,y,0.40835409999999683,right,1.4032766000018455,,,,001,2019_Jul_21_0952,Test,3.0.7,59.94779745478505,
Pictures\IA50_G20.bmp,Pictures\IA50_G20.bmp,Pictures\IA50.bmp,"

"Let's venture and take a risk!"",1,risk,0,0,0,0,0,19,19,8,,,,,,,y,0.5377757999958703,left,1.3423659999971278,,,,001,2019_Jul_21_0952,Test,3.0.7,59.94779745478505,
,,,,,,0,0,0,0,,,,,,,,,,,,,,,return,69.39846039999975,,001,2019_Jul_21_0952,Test,3.0.7,59.94779745478505,
Pictures\IA75_L30.bmp,Pictures\IA75_L30.bmp,Pictures\IA75.bmp,"

"Hold back, stay with the safe choice."",0,safe,1,0,1,0,0,0,0,3,,,right,1.3160591000050772,return,2.1129322000051616,n,0.5612768999999389,left,0.8547815000056289,,,,001,2019_Jul_21_0952,Test,3.0.7,59.94779745478505,
Pictures\IA100_G20.bmp,Pictures\IA100_G20.bmp,Pictures\IA100.bmp,"

"Go ahead and gamble!"",1,risk,1,0,1,0,0,1,1,6,,,,,,,y,0.39844170000287704,right,0.5239336000086041,,,,001,2019_Jul_21_0952,Test,3.0.7,59.94779745478505,
Pictures\IA25_G5.bmp,Pictures\IA25_G5.bmp,Pictures\IA25.bmp,"

"Let's stay with the certain option."",0,safe,1,0,1,0,0,2,2,2,,,,,,,y,1.0308914000052027,left,0.6918071999971289,,,,001,2019_Jul_21_0952,Test,3.0.7,59.94779745478505,
Pictures\IA100_L40.bmp,Pictures\IA100_L40.bmp,Pictures\IA100.bmp,"

"Think of the payoff, gamble!"",1,risk,1,0,1,0,0,3,3,10,,,,,,,y,0.39358799999172334,right,1.1318969999992987,,,,001,2019_Jul_21_0952,Test,3.0.7,59.94779745478505,
Pictures\IA25_L15.bmp,Pictures\IA25_L15.bmp,Pictures\IA25.bmp,"

"There's not much on the line here, gamble!"",1,risk,1,0,1,0,0,4,4,7,,,,,,,y,0.9370677999977488,right,1.0696272000059253,,,,001,2019_Jul_21_0952,Test,3.0.7,59.94779745478505,
Pictures\IA75_G45.bmp,Pictures\IA75_G45.bmp,Pictures\IA75.bmp,"

"Don't gamble for this one."",0,safe,1,0,1,0,0,5,5,14,,,,,,,y,0.38451619999250397,left,0.5390266999893356,,,,001,2019_Jul_21_0952,Test,3.0.7,59.94779745478505,
Pictures\IA75_L15.bmp,Pictures\IA75_L15.bmp,Pictures\IA75.bmp,"

"Trust me, gamble!"",1,risk,1,0,1,0,0,6,6,5,,,,,,,y,0.7177016999921761,right,0.5235272999998415,,,,001,2019_Jul_21_0952,Test,3.0.7,59.94779745478505,
Pictures\IA50_L40.bmp,Pictures\IA50_L40.bmp,Pictures\IA50.bmp,"

"That gamble doesn't sound too good, play it safe."",0,safe,1,0,1,0,0,7,7,17,,,,,,,y,0.4595088000060059,right,0.7075120999943465,,,,001,2019_Jul_21_0952,Test,3.0.7,59.94779745478505,
Pictures\IA100_L80.bmp,Pictures\IA100_L80.bmp,Pictures\IA100.bmp,"

"Go all in!"",1,risk,1,0,1,0,0,8,8,8,,,,,,,y,0.3769763000018429,right,0.363229800001136,,,,001,2019_Jul_21_0952,Test,3.0.7,59.94779745478505,
Pictures\IA75_G15.bmp,Pictures\IA75_G15.bmp,Pictures\IA75.bmp,"

"Take a chance!"",1,risk,1,0,1,0,0,9,9,1,,,,,,,n,0.3626247000065632,right,0.8153639999945881,,,,001,2019_Jul_21_0952,Test,3.0.7,59.94779745478505,
Pictures\IA25_G20.bmp,Pictures\IA25_G20.bmp,Pictures\IA25.bmp,"

"I wouldn't gamble for this one. "",0,safe,1,0,1,0,0,10,10,15,,,,,,,y,0.38070009999501053,right,2.550283299991861,,,,001,2019_Jul_21_0952,Test,3.0.7,59.94779745478505,
Pictures\IA25_L20.bmp,Pictures\IA25_L20.bmp,Pictures\IA25.bmp,"

"Don't be tempted to gamble."",0,safe,1,0,1,0,0,11,11,9,,,,,,,y,0.7062922000040999,right,0.38486000000557397,,,,001,2019_Jul_21_0952,Test,3.0.7,59.94779745478505,
Pictures\IA25_L10.bmp,Pictures\IA25_L10.bmp,Pictures\IA25.bmp,"

"Dont be afraid to take the risk!"",1,risk,1,0,1,0,0,12,12,12,,,,,,,y,0.9641562999895541,right,0.6599356000078842,,,,001,2019_Jul_21_0952,Test,3.0.7,59.94779745478505,
Pictures\IA25_L5.bmp,Pictures\IA25_L5.bmp,Pictures\IA25.bmp,"

"It would be smarter to choose the safe option."",0,safe,1,0,1,0,0,13,13,11,,,,,,,y,1.5716599000006681,left,0.8535339999943972,,,,001,2019_Jul_21_0952,Test,3.0.7,59.94779745478505,
Pictures\IA50_L30.bmp,Pictures\IA50_L30.bmp,Pictures\IA50.bmp,"

"Take a leap, I think you should gamble."",1,risk,1,0,1,0,0,14,14,18,,,,,,,y,0.3521650999900885,right,0.4415086000080919,,,,001,2019_Jul_21_0952,Test,3.0.7,59.94779745478505,
Pictures\IA75_G30.bmp,Pictures\IA75_G30.bmp,Pictures\IA75.bmp,"

"Be bold, gamble!"",1,risk,1,0,1,0,0,15,15,16,,,,,,,n,0.3419863000017358,left,0.7808073000051081,,,,001,2019_Jul_21_0952,Test,3.0.7,59.94779745478505,
Pictures\IA100_L20.bmp,Pictures\IA100_L20.bmp,Pictures\IA100.bmp,"

"Try to win as much money as you can, gamble!"",1,risk,1,0,1,0,0,16,16,19,,,,,,,y,0.43963029999576975,left,0.685000299999956,,,,001,2019_Jul_21_0952,Test,3.0.7,59.94779745478505,
Pictures\IA75_L60.bmp,Pictures\IA75_L60.bmp,Pictures\IA75.bmp,"

"Why not take the gamble?"",1,risk,1,0,1,0,0,17,17,13,,,,,,,n,0.7381562999944435,right,0.6964475999993738,,,,001,2019_Jul_21_0952,Test,3.0.7,59.94779745478505,
Pictures\IA50_G30.bmp,Pictures\IA50_G30.bmp,Pictures\IA50.bmp,"

"I think you should gamble."",1,risk,1,0,1,0,0,18,18,4,,,,,,,n,1.1382458999869414,right,0.7671126000059303,,,,001,2019_Jul_21_0952,Test,3.0.7,59.94779745478505,
Pictures\IA75_G60.bmp,Pictures\IA75_G60.bmp,Pictures\IA75.bmp,"

"Make it exciting, take a chance!"",1,risk,1,0,1,0,0,19,19,0,,,,,,,y,0.5033782000100473,right,0.8298309999954654,,,,001,2019_Jul_21_0952,Test,3.0.7,59.94779745478505,
