Choice,Choice2,Amount,AdviceVar1,GambleAdviceNum,GambleAdviceType,trials_2.thisRepN,trials_2.thisTrialN,trials_2.thisN,trials_2.thisIndex,trials.thisRepN,trials.thisTrialN,trials.thisN,trials.thisIndex,instructions.started,instructions.stopped,space.keys,space.rt,space.started,space.stopped,chooseInst.started,chooseInst.stopped,Ad1.started,Ad1.stopped,Ad2.started,Ad2.stopped,key_resp_3.keys,key_resp_3.rt,key_resp_3.started,key_resp_3.stopped,Ad1pic.started,Ad1pic.stopped,Ad2pic.started,Ad2pic.stopped,enter.keys,enter.rt,enter.started,enter.stopped,iSi.started,iSi.stopped,receiveMoneyPicture.started,receiveMoneyPicture.stopped,ISI2.started,ISI2.stopped,ChoicePic.started,ChoicePic.stopped,response.keys,response.rt,response.started,response.stopped,yesNo.started,yesNo.stopped,ask.started,ask.stopped,getAdv.started,getAdv.stopped,textForCode.started,textForCode.stopped,blank.started,blank.stopped,ChoicePic2.started,ChoicePic2.stopped,resp.keys,resp.rt,resp.started,resp.stopped,checkL1.started,checkL1.stopped,checkR1.started,checkR1.stopped,endText.started,endText.stopped,key_resp_2.keys,key_resp_2.rt,key_resp_2.started,key_resp_2.stopped,participant,session,date,expName,psychopyVersion,frameRate,
,,,,,,,,,,,,,,17.67869135840101,None,space,4.6154155494728,17.67869135840101,None,,,,,,,,,,,,,,,,,,,,,,,,,,,,,,,,,,,,,,,,,,,,,,,,,,,,,,,,,,001,2019_Oct_15_1124,Test,3.1.2,59.94528010619114,
Pictures/IA75_L60.bmp,Pictures/IA75_L60.bmp,Pictures/IA75.bmp,"

"Why not take the gamble?"",1,risk,0,0,0,0,0,0,0,18,,,,,,,25.128437927354753,None,25.128437927354753,None,25.128437927354753,None,right,4.117390964935112,25.128437927354753,None,25.128437927354753,None,25.128437927354753,None,return,5.637464999083932,25.128437927354753,None,30.83029372622468,None,32.947690289440516,34.314502065609986,34.33127606893731,None,35.88255647343158,None,y,2.112077574750174,38.165770993629394,None,38.165770993629394,None,38.165770993629394,None,40.449538810545846,None,40.449538810545846,41.41686973392302,42.61692024285344,None,42.61692024285344,None,right,1.6928649604560633,42.61692024285344,None,None,None,44.33423973640811,None,,,,,,,,001,2019_Oct_15_1124,Test,3.1.2,59.94528010619114,
Pictures/IA75_L30.bmp,Pictures/IA75_L30.bmp,Pictures/IA75.bmp,"

"Hold back, stay with the safe choice."",0,safe,0,0,0,0,0,1,1,9,,,,,,,,,,,,,,,,,,,,,,,,,44.417795005276275,None,46.42006137581484,47.918570833643116,47.918570833643116,None,49.46904197559593,None,n,1.48007680840783,51.46954519880592,None,51.46954519880592,None,51.46954519880592,None,None,None,None,None,53.08697519619636,None,53.08697519619636,None,None,,53.08697519619636,None,None,None,None,None,,,,,,,,001,2019_Oct_15_1124,Test,3.1.2,59.94528010619114,
Pictures/IA40_20_L95p.bmp,Pictures/IA40_20_L95p.bmp,Pictures/IA40.bmp,"

"Trust me, gamble!"",1,risk,0,0,0,0,0,2,2,16,,,,,,,,,,,,,,,,,,,,,,,,,55.03724442683415,None,57.093261443118536,58.538580394262,58.55527228947585,None,60.06083402560216,None,y,2.260538996222067,62.072675321815495,None,62.072675321815495,None,62.072675321815495,None,64.39086167799746,None,64.39086167799746,65.39044491711911,66.47387857889521,None,66.47387857889521,None,None,,66.47387857889521,None,None,None,None,None,,,,,,,,001,2019_Oct_15_1124,Test,3.1.2,59.94528010619114,
Pictures/IA50_G40.bmp,Pictures/IA50_G40.bmp,Pictures/IA50.bmp,"

"It would probably be best to play it safe."",0,safe,0,0,0,0,0,3,3,3,,,,,,,,,,,,,,,,,,,,,,,,,68.39131762683905,None,70.50845573610695,71.89234599985753,71.89234599985753,None,73.41240012900926,None,n,1.5231944534723425,75.40989396545797,None,75.40989396545797,None,75.40989396545797,None,None,None,None,None,77.06372242730254,None,77.06372242730254,None,left,0.933219045474516,77.06372242730254,None,78.02735817456255,None,None,None,,,,,,,,001,2019_Oct_15_1124,Test,3.1.2,59.94528010619114,
Pictures/IA100_L60.bmp,Pictures/IA100_L60.bmp,Pictures/IA100.bmp,"

"You'd have a lot to lose, don't gamble."",0,safe,0,0,0,0,0,4,4,5,,,,,,,,,,,,,,,,,,,,,,,,,79.01128520035468,None,81.09510669856036,82.51232072673133,82.52899551608834,None,84.04592860388516,None,n,1.467903347553829,86.03294370338062,None,86.03294370338062,None,86.03294370338062,None,None,None,None,None,87.64687011025194,None,87.64687011025194,None,right,0.982087990662194,87.64687011025194,None,None,None,88.6473518733867,None,,,,,,,,001,2019_Oct_15_1124,Test,3.1.2,59.94528010619114,
Pictures/IA75_L15.bmp,Pictures/IA75_L15.bmp,Pictures/IA75.bmp,"

"Trust me, gamble!"",1,risk,0,0,0,0,0,5,5,17,,,,,,,,,,,,,,,,,,,,,,,,,89.59769388167047,None,91.61467377731219,93.09838853497035,93.11505865909362,None,94.66569743844457,None,n,0.8924259308619185,96.61619526553432,None,96.61619526553432,None,96.61619526553432,None,None,None,None,None,97.59969713302735,None,97.59969713302735,None,left,0.43696165146798194,97.59969713302735,None,98.06656293260312,99.53397891874192,None,None,,,,,,,,001,2019_Oct_15_1124,Test,3.1.2,59.94528010619114,
Pictures/IA75_G15.bmp,Pictures/IA75_G15.bmp,Pictures/IA75.bmp,"

"Take a chance!"",1,risk,0,0,0,0,0,6,6,2,,,,,,,,,,,,,,,,,,,,,,,,,99.55066397161295,None,101.57188705282579,103.05154025801221,103.06804243372176,None,104.58967496694686,None,y,1.1630073091771465,106.58570112086909,None,106.58570112086909,None,106.58570112086909,None,107.80269171544683,None,107.80269171544683,108.80300957337067,109.88668458323764,None,109.88668458323764,None,right,0.9977401607889078,109.88668458323764,None,None,None,110.90400161976913,None,,,,,,,,001,2019_Oct_15_1124,Test,3.1.2,59.94528010619114,
Pictures/IA25_L5.bmp,Pictures/IA25_L5.bmp,Pictures/IA25.bmp,"

"It would be smarter to choose the safe option."",0,safe,0,0,0,0,0,7,7,10,,,,,,,,,,,,,,,,,,,,,,,,,111.80423870694653,None,113.85448856131347,115.30516382279211,115.32160286233852,None,116.84034637183208,None,n,1.6694809429868656,118.8227864321318,None,118.8227864321318,None,118.8227864321318,None,None,None,None,None,120.62342388966658,None,120.62342388966658,None,left,1.116694912064986,120.62342388966658,None,121.75682469264666,None,None,None,,,,,,,,001,2019_Oct_15_1124,Test,3.1.2,59.94528010619114,
Pictures/IA20_10_G95p.bmp,Pictures/IA20_10_G95p.bmp,Pictures/IA20.bmp,"

"Take a leap, I think you should gamble."",1,risk,0,0,0,0,0,8,8,15,,,,,,,,,,,,,,,,,,,,,,,,,122.59053025979438,None,124.64104945365443,126.09145879681137,126.10812612179438,None,127.64199183086475,None,n,1.7381587815405055,129.6258840229118,None,129.6258840229118,None,129.6258840229118,None,None,None,None,None,131.4929855100952,None,131.4929855100952,None,right,0.9270696454079825,131.4929855100952,None,None,None,132.44361303068195,None,,,,,,,,001,2019_Oct_15_1124,Test,3.1.2,59.94528010619114,
Pictures/IA40_20_G95p.bmp,Pictures/IA40_20_G95p.bmp,Pictures/IA40.bmp,"

"Hold back, stay with the safe choice."",0,safe,0,0,0,0,0,9,9,4,,,,,,,,,,,,,,,,,,,,,,,,,133.44372468527558,None,135.46154587806382,136.94471635845548,136.96128789063937,None,138.4954151638135,None,n,1.188593938990607,140.47927003399082,None,140.47927003399082,None,140.47927003399082,None,None,None,None,None,141.7794625837371,None,141.7794625837371,None,right,0.93619484255305,141.7794625837371,None,None,None,142.74653505316655,None,,,,,,,,001,2019_Oct_15_1124,Test,3.1.2,59.94528010619114,
Pictures/IA100_L40.bmp,Pictures/IA100_L40.bmp,Pictures/IA100.bmp,"

"Think of the payoff, gamble!"",1,risk,0,0,0,0,0,10,10,6,,,,,,,,,,,,,,,,,,,,,,,,,143.73009476955758,None,145.74975406442945,147.230975410175,147.24782094708598,None,148.81724693361957,None,y,1.134198557945183,150.76554214836506,None,150.76554214836506,None,150.76554214836506,None,151.98241455702214,None,151.98241455702214,152.9663484251571,154.04974725318812,None,154.04974725318812,None,right,1.593695776377217,154.04974725318812,None,None,None,155.66688209679228,None,,,,,,,,001,2019_Oct_15_1124,Test,3.1.2,59.94528010619114,
Pictures/IA25_G15.bmp,Pictures/IA25_G15.bmp,Pictures/IA25.bmp,"

"I think you should take a gamble."",1,risk,0,0,0,0,0,11,11,13,,,,,,,,,,,,,,,,,,,,,,,,,155.96720869425394,None,157.98710062878013,159.4681462507226,159.48493829295376,None,161.03527476516,None,n,1.271171996903604,162.98811298449618,None,162.98811298449618,None,162.98811298449618,None,None,None,None,None,164.35284095627344,None,164.35284095627344,None,right,1.0345547640899895,164.35284095627344,None,None,None,165.41967758258784,None,,,,,,,,001,2019_Oct_15_1124,Test,3.1.2,59.94528010619114,
Pictures/IA75_G30.bmp,Pictures/IA75_G30.bmp,Pictures/IA75.bmp,"

"Be bold, gamble!"",1,risk,0,0,0,0,0,12,12,1,,,,,,,,,,,,,,,,,,,,,,,,,166.3032911979792,None,168.32059299474736,169.8042757178007,169.8209358894253,None,171.33819616561323,None,y,1.1285054177358234,173.33889035239008,None,173.33889035239008,None,173.33889035239008,None,174.53900866271692,None,174.53900866271692,175.53929448603594,176.6064247110587,None,176.6064247110587,None,right,0.5249106374481016,176.6064247110587,None,None,None,177.15673070373805,178.52375863573639,,,,,,,,001,2019_Oct_15_1124,Test,3.1.2,59.94528010619114,
Pictures/IA50_L10.bmp,Pictures/IA50_L10.bmp,Pictures/IA50.bmp,"

"Play it safe, don’t gamble!"",0,safe,0,0,0,0,0,13,13,12,,,,,,,,,,,,,,,,,,,,,,,,,178.5401836795818,None,180.54618254810703,182.04157594082994,182.04157594082994,None,183.5582950499072,None,y,1.171700816695875,185.55931860218402,None,185.55931860218402,None,185.55931860218402,None,186.82613482587635,None,186.82613482587635,187.8263979450578,188.89336924111876,None,188.89336924111876,None,right,0.741738881892843,188.89336924111876,None,None,None,189.66047424277804,190.81076132571002,,,,,,,,001,2019_Oct_15_1124,Test,3.1.2,59.94528010619114,
Pictures/IA75_G60.bmp,Pictures/IA75_G60.bmp,Pictures/IA75.bmp,"

"Make it exciting, take a chance!"",1,risk,0,0,0,0,0,14,14,11,,,,,,,,,,,,,,,,,,,,,,,,,190.82744917772152,None,192.82970248560537,194.32841441457686,194.34483634826643,None,195.8509946122772,None,y,1.7088564485814004,197.8461234862482,None,197.8461234862482,None,197.8461234862482,None,199.66303981030546,None,199.66303981030546,200.6468508272858,201.68334259641415,None,201.68334259641415,None,right,1.183290190288517,201.68334259641415,None,None,None,202.89756577435264,None,,,,,,,,001,2019_Oct_15_1124,Test,3.1.2,59.94528010619114,
Pictures/IA20_10_L95p.bmp,Pictures/IA20_10_L95p.bmp,Pictures/IA20.bmp,"

"Don't be tempted to gamble."",0,safe,0,0,0,0,0,15,15,19,,,,,,,,,,,,,,,,,,,,,,,,,203.64760472905414,None,205.6648555192669,207.14897770733614,207.1655467513956,None,208.68510792085158,None,y,1.5760820309815244,210.66664479190422,None,210.66664479190422,None,210.66664479190422,None,212.33350605065266,None,212.33350605065266,213.3173298192719,214.3840759400523,None,214.3840759400523,None,right,1.1144161009033269,214.3840759400523,None,None,None,215.5179575731206,None,,,,,,,,001,2019_Oct_15_1124,Test,3.1.2,59.94528010619114,
Pictures/IA100_G20.bmp,Pictures/IA100_G20.bmp,Pictures/IA100.bmp,"

"Go ahead and gamble!"",1,risk,0,0,0,0,0,16,16,14,,,,,,,,,,,,,,,,,,,,,,,,,216.31809771674125,None,218.33531336219357,219.81897929040542,219.8357125506916,None,221.35297407094208,None,n,1.1736530614973617,223.34059129660227,None,223.34059129660227,None,223.34059129660227,None,None,None,None,None,224.59138088740838,None,224.59138088740838,None,right,0.986930814273137,224.59138088740838,None,None,None,225.60420561488877,None,,,,,,,,001,2019_Oct_15_1124,Test,3.1.2,59.94528010619114,
Pictures/IA100_G60.bmp,Pictures/IA100_G60.bmp,Pictures/IA100.bmp,"

"Be cautious, don't gamble for this one."",0,safe,0,0,0,0,0,17,17,8,,,,,,,,,,,,,,,,,,,,,,,,,226.55464808120496,None,228.57528800820342,230.05542453160274,230.07213726486066,None,231.61081500699947,None,y,2.0177222898337277,233.5604553641324,None,233.5604553641324,None,233.5604553641324,None,235.65708914919514,None,235.65708914919514,236.6409396651543,237.69172633241396,None,237.69172633241396,None,left,1.3582140614498712,237.69172633241396,None,239.07497777016124,None,None,None,,,,,,,,001,2019_Oct_15_1124,Test,3.1.2,59.94528010619114,
Pictures/IA100_G40.bmp,Pictures/IA100_G40.bmp,Pictures/IA100.bmp,"

"Try your luck and gamble!"",1,risk,0,0,0,0,0,18,18,7,,,,,,,,,,,,,,,,,,,,,,,,,239.64171440496648,None,241.65889988190747,243.14286220796794,243.15931244407557,None,244.68197257278007,None,y,1.9976838669686003,246.6603159358474,None,246.6603159358474,None,246.6603159358474,None,248.72738022556723,None,248.72738022556723,249.72780289574166,250.79718425153942,None,250.79718425153942,None,right,0.44449475985402387,250.79718425153942,None,None,None,251.26154357654855,252.71199024157522,,,,,,,,001,2019_Oct_15_1124,Test,3.1.2,59.94528010619114,
Pictures/IA25_L15.bmp,Pictures/IA25_L15.bmp,Pictures/IA25.bmp,"

"There's not much on the line here, gamble!"",1,risk,0,0,0,0,0,19,19,0,,,,,,,,,,,,,,,,,,,,,,,,,252.72888554097904,None,254.745926084659,256.22999788820425,256.24662353709937,None,257.7637827332235,None,y,1.8933767054927557,259.76412174020675,None,259.76412174020675,None,259.76412174020675,None,261.71886181982063,None,261.71886181982063,262.71524439759855,263.76777337414273,None,263.76777337414273,None,right,1.4337827612150704,263.76777337414273,None,None,None,265.23244744691965,None,,,,,,,,001,2019_Oct_15_1124,Test,3.1.2,59.94528010619114,
,,,,,,0,0,0,0,,,,,,,,,,,,,,,,,,,,,,,,,,,,,,,,,,,,,,,,,,,,,,,,,,,,,,,,,,,,,266.1678464006011,None,return,6.361675975881553,266.1678464006011,None,,001,2019_Oct_15_1124,Test,3.1.2,59.94528010619114,
Pictures/IA50_G20.bmp,Pictures/IA50_G20.bmp,Pictures/IA50.bmp,"

"Let's venture and take a risk!"",1,risk,1,0,1,0,0,0,0,15,,,,,,,272.63450879598713,None,272.63450879598713,None,272.63450879598713,None,left,1.286916538657806,272.63450879598713,None,272.63450879598713,None,272.63450879598713,None,return,2.2467550966900944,272.63450879598713,None,274.90563538461583,None,276.93880955054215,278.41955442041785,278.43634677366435,None,279.97021932507755,None,n,0.9673138175203349,281.95392241965146,None,281.95392241965146,None,281.95392241965146,None,None,None,None,None,283.0210078584307,None,283.0210078584307,None,right,0.956208073155949,283.0210078584307,None,None,None,284.0046048966915,None,,,,,,,,001,2019_Oct_15_1124,Test,3.1.2,59.94528010619114,
Pictures/IA25_L15.bmp,Pictures/IA25_L15.bmp,Pictures/IA25.bmp,"

"There's not much on the line here, gamble!"",1,risk,1,0,1,0,0,1,1,16,,,,,,,,,,,,,,,,,,,,,,,,,284.97177315891986,None,286.9893175478412,288.47254276697504,288.4893842606832,None,289.9897554577792,None,n,1.5382081086115704,292.00690703402165,None,292.00690703402165,None,292.00690703402165,None,None,None,None,None,293.6740522499956,None,293.6740522499956,None,right,1.182882759877657,293.6740522499956,None,None,None,294.8746227769773,None,,,,,,,,001,2019_Oct_15_1124,Test,3.1.2,59.94528010619114,
Pictures/IA50_L30.bmp,Pictures/IA50_L30.bmp,Pictures/IA50.bmp,"

"Take a leap, I think you should gamble."",1,risk,1,0,1,0,0,2,2,8,,,,,,,,,,,,,,,,,,,,,,,,,295.6249469329664,None,297.6284321735666,299.12656063730833,299.12656063730833,None,300.643489370887,None,y,0.9886115424724267,302.6601983719579,None,302.6601983719579,None,302.6601983719579,None,303.713224662416,None,303.713224662416,304.71092563524144,305.7641547078583,None,305.7641547078583,None,right,0.5407469287988533,305.7641547078583,None,None,None,306.32788475504253,307.6948231145536,,,,,,,,001,2019_Oct_15_1124,Test,3.1.2,59.94528010619114,
Pictures/IA25_G15.bmp,Pictures/IA25_G15.bmp,Pictures/IA25.bmp,"

"I think you should take a gamble."",1,risk,1,0,1,0,0,3,3,11,,,,,,,,,,,,,,,,,,,,,,,,,307.7117022411471,None,309.7287334543598,311.212726570963,311.22953478600425,None,312.7140168191006,None,y,0.5897692046678458,314.74705258309314,None,314.74705258309314,None,314.74705258309314,None,315.41624179346513,None,315.41624179346513,316.41402456338847,317.4810166974935,None,317.4810166974935,None,left,0.5996246663969487,317.4810166974935,None,318.0980062968215,319.3986084540877,None,None,,,,,,,,001,2019_Oct_15_1124,Test,3.1.2,59.94528010619114,
Pictures/IA110_55_L95p.bmp,Pictures/IA110_55_L95p.bmp,Pictures/IA110.bmp,"

"Trust me, gamble!"",1,risk,1,0,1,0,0,4,4,0,,,,,,,,,,,,,,,,,,,,,,,,,319.41531310094047,None,321.4489771164067,322.9160544065776,322.93272857390343,None,324.4999525701239,None,y,0.50171665049902,326.4505692051655,None,326.4505692051655,None,326.4505692051655,None,327.0171434898375,None,327.0171434898375,328.0010677164894,329.03630920298224,None,329.03630920298224,None,right,0.47618662552144997,329.03630920298224,None,None,None,329.5348077752651,330.98498572282983,,,,,,,,001,2019_Oct_15_1124,Test,3.1.2,59.94528010619114,
Pictures/IA100_L80.bmp,Pictures/IA100_L80.bmp,Pictures/IA100.bmp,"

"Go all in!"",1,risk,1,0,1,0,0,5,5,17,,,,,,,,,,,,,,,,,,,,,,,,,331.0016776180437,None,333.0191532725214,334.50303566757793,334.51971170099705,None,336.0197594418887,None,n,0.8984400391507279,338.0537680626187,None,338.0537680626187,None,338.0537680626187,None,None,None,None,None,339.0396840330509,None,339.0396840330509,None,None,,339.0396840330509,None,None,None,None,None,,,,,,,,001,2019_Oct_15_1124,Test,3.1.2,59.94528010619114,
Pictures/IA110_55_G95p.bmp,Pictures/IA110_55_G95p.bmp,Pictures/IA110.bmp,"

"Take a chance!"",1,risk,1,0,1,0,0,6,6,19,,,,,,,,,,,,,,,,,,,,,,,,,340.9880744185641,None,343.0053320511197,344.48932921092546,344.50597383177114,None,346.0394330434772,None,n,0.5606450836367003,348.02340827668445,None,348.02340827668445,None,348.02340827668445,None,None,None,None,None,348.6929542219277,None,348.6929542219277,None,right,0.8751854041631759,348.6929542219277,None,None,None,349.59079524506933,350.6244608156135,,,,,,,,001,2019_Oct_15_1124,Test,3.1.2,59.94528010619114,
Pictures/IA50_G30.bmp,Pictures/IA50_G30.bmp,Pictures/IA50.bmp,"

"I think you should gamble."",1,risk,1,0,1,0,0,7,7,12,,,,,,,,,,,,,,,,,,,,,,,,,350.6411511557494,None,352.65813975982746,354.142032418398,354.158812642037,None,355.72586931187493,None,n,1.1243965908959126,357.65948801237096,None,357.65948801237096,None,357.65948801237096,None,None,None,None,None,358.8931935173157,None,358.8931935173157,None,right,0.9706482155636422,358.8931935173157,None,None,None,359.89385473644074,None,,,,,,,,001,2019_Oct_15_1124,Test,3.1.2,59.94528010619114,
Pictures/IA75_L30.bmp,Pictures/IA75_L30.bmp,Pictures/IA75.bmp,"

"Hold back, stay with the safe choice."",0,safe,1,0,1,0,0,8,8,3,,,,,,,,,,,,,,,,,,,,,,,,,360.8439376687454,None,362.86138750892997,364.34494116051724,364.361601954173,None,365.8453938436953,None,n,0.2640002886223556,367.8635269851113,None,367.8635269851113,None,367.8635269851113,None,None,None,None,None,368.21274398783544,None,368.21274398783544,None,left,0.7150811144185809,368.21274398783544,None,368.9463557215827,370.14674492648055,None,None,,,,,,,,001,2019_Oct_15_1124,Test,3.1.2,59.94528010619114,
Pictures/IA75_G45.bmp,Pictures/IA75_G45.bmp,Pictures/IA75.bmp,"

"Don't gamble for this one."",0,safe,1,0,1,0,0,9,9,7,,,,,,,,,,,,,,,,,,,,,,,,,370.1633823939678,None,372.1828768505816,373.664179993425,373.681004070261,None,375.1981651324786,None,n,1.6897230810570818,377.181924209857,None,377.181924209857,None,377.181924209857,None,None,None,None,None,378.9990790828649,None,378.9990790828649,None,right,0.9922171461023481,378.9990790828649,None,None,None,380.0160673759274,None,,,,,,,,001,2019_Oct_15_1124,Test,3.1.2,59.94528010619114,
Pictures/IA20_10_G95p.bmp,Pictures/IA20_10_G95p.bmp,Pictures/IA20.bmp,"

"Take a leap, I think you should gamble."",1,risk,1,0,1,0,0,10,10,14,,,,,,,,,,,,,,,,,,,,,,,,,380.95003254778044,None,382.96709952778497,384.45105625556516,384.4677419304676,None,385.9678966607189,None,y,1.5908213703783076,387.96865398365867,None,387.96865398365867,None,387.96865398365867,None,389.63887638779033,None,389.63887638779033,390.63602499694434,391.68632368075737,None,391.68632368075737,None,right,0.2729217705618794,391.68632368075737,None,None,None,391.98626959514786,393.6201196601346,,,,,,,,001,2019_Oct_15_1124,Test,3.1.2,59.94528010619114,
Pictures/IA25_G5.bmp,Pictures/IA25_G5.bmp,Pictures/IA25.bmp,"

"Let's stay with the certain option."",0,safe,1,0,1,0,0,11,11,9,,,,,,,,,,,,,,,,,,,,,,,,,393.636765836058,None,395.6541065097738,397.13800632170273,397.154803340183,None,398.6559082230342,None,n,1.8947215368648358,400.67218771158787,None,400.67218771158787,None,400.67218771158787,None,None,None,None,None,402.6619966640469,None,402.6619966640469,None,left,0.7691598816027181,402.6619966640469,None,403.4563264145843,404.6068753726356,None,None,,,,,,,,001,2019_Oct_15_1124,Test,3.1.2,59.94528010619114,
Pictures/IA100_G80.bmp,Pictures/IA100_G80.bmp,Pictures/IA100.bmp,"

"Why not gamble?"",1,risk,1,0,1,0,0,12,12,2,,,,,,,,,,,,,,,,,,,,,,,,,404.6236027236257,None,406.62784964138336,408.12469143366684,408.14124648202505,None,409.6415654285033,None,n,0.4276971193423833,411.65901744579696,None,411.65901744579696,None,411.65901744579696,None,None,None,None,None,412.16061031209483,None,412.16061031209483,None,right,0.9181049323028674,412.16061031209483,None,None,None,413.10913630040113,414.1096022017414,,,,,,,,001,2019_Oct_15_1124,Test,3.1.2,59.94528010619114,
Pictures/IA80_40_L95p.bmp,Pictures/IA80_40_L95p.bmp,Pictures/IA80.bmp,"

"Let's stay with the certain option."",0,safe,1,0,1,0,0,13,13,10,,,,,,,,,,,,,,,,,,,,,,,,,414.12611464096517,None,416.1784940190148,417.6274095543365,417.6438529481011,None,419.1656895075473,None,y,0.7658201962942712,421.1448390230005,None,421.1448390230005,None,421.1448390230005,None,421.97838472813964,None,421.97838472813964,422.96216371051537,424.01495145202284,None,424.01495145202284,None,left,0.5356692884242875,424.01495145202284,None,424.5793921698096,425.9464042400132,None,None,,,,,,,,001,2019_Oct_15_1124,Test,3.1.2,59.94528010619114,
Pictures/IA75_G15.bmp,Pictures/IA75_G15.bmp,Pictures/IA75.bmp,"

"Take a chance!"",1,risk,1,0,1,0,0,14,14,1,,,,,,,,,,,,,,,,,,,,,,,,,425.9631197724111,None,427.98016902452764,429.4643048972823,429.4808406626746,None,430.9644897960452,None,n,0.864029897305727,432.9982813278996,None,432.9982813278996,None,432.9982813278996,None,None,None,None,None,433.94861089556,None,433.94861089556,None,right,0.8657252432374207,433.94861089556,None,None,None,434.8322770725845,435.88281772651953,,,,,,,,001,2019_Oct_15_1124,Test,3.1.2,59.94528010619114,
Pictures/IA75_L60.bmp,Pictures/IA75_L60.bmp,Pictures/IA75.bmp,"

"Why not take the gamble?"",1,risk,1,0,1,0,0,15,15,4,,,,,,,,,,,,,,,,,,,,,,,,,435.89951553102946,None,437.91656882634857,439.40050347202236,439.4171185463879,None,440.9175146247301,None,y,1.10348545831107,442.93466588995716,None,442.93466588995716,None,442.93466588995716,None,444.1183659987814,None,444.1183659987814,445.11889721339367,446.1522138244559,None,446.1522138244559,None,right,0.4458535869271145,446.1522138244559,None,None,None,446.6190578529413,448.0864374502569,,,,,,,,001,2019_Oct_15_1124,Test,3.1.2,59.94528010619114,
Pictures/IA100_L20.bmp,Pictures/IA100_L20.bmp,Pictures/IA100.bmp,"

"Try to win as much money as you can, gamble!"",1,risk,1,0,1,0,0,16,16,13,,,,,,,,,,,,,,,,,,,,,,,,,448.10308580328956,None,450.12247451460576,451.60378076760503,451.6204763950059,None,453.1405709561832,None,y,1.347472827346337,455.12248042390183,None,455.12248042390183,None,455.12248042390183,None,456.54235923357055,None,456.54235923357055,457.5392369481533,458.57547866075447,None,458.57547866075447,None,left,1.0704994568113761,458.57547866075447,None,459.672999462254,None,None,None,,,,,,,,001,2019_Oct_15_1124,Test,3.1.2,59.94528010619114,
Pictures/IA100_G40.bmp,Pictures/IA100_G40.bmp,Pictures/IA100.bmp,"

"Try your luck and gamble!"",1,risk,1,0,1,0,0,17,17,6,,,,,,,,,,,,,,,,,,,,,,,,,460.53984062939594,None,462.54178727591716,464.04093151654615,464.0575789365321,None,465.54134749988566,None,n,2.1987386452099145,467.5753184877303,None,467.5753184877303,None,467.5753184877303,None,None,None,None,None,469.87867282187244,None,469.87867282187244,None,None,,469.87867282187244,None,None,None,None,None,,,,,,,,001,2019_Oct_15_1124,Test,3.1.2,59.94528010619114,
Pictures/IA80_40_G95p.bmp,Pictures/IA80_40_G95p.bmp,Pictures/IA80.bmp,"

"Think of the payoff, gamble!"",1,risk,1,0,1,0,0,18,18,18,,,,,,,,,,,,,,,,,,,,,,,,,471.84329822071095,None,473.8604855637452,475.3444080798115,475.3611065063526,None,476.87785827206585,None,n,0.7186916942978314,478.87873222584835,None,478.87873222584835,None,478.87873222584835,None,None,None,None,None,479.68295693709365,None,479.68295693709365,None,right,0.38657899344775615,479.68295693709365,None,None,None,480.0958478486896,481.62925356571577,,,,,,,,001,2019_Oct_15_1124,Test,3.1.2,59.94528010619114,
Pictures/IA50_G40.bmp,Pictures/IA50_G40.bmp,Pictures/IA50.bmp,"

"It would probably be best to play it safe."",0,safe,1,0,1,0,0,19,19,5,,,,,,,,,,,,,,,,,,,,,,,,,481.6461501091819,None,483.64878969841743,485.1471952770419,485.1638290123419,None,486.6641495138981,None,n,2.411863627132334,488.68169234774155,None,488.68169234774155,None,488.68169234774155,None,None,None,None,None,491.2029305132098,None,491.2029305132098,None,right,1.3147956643183534,491.2029305132098,None,None,None,492.5493875636687,None,,,,,,,,001,2019_Oct_15_1124,Test,3.1.2,59.94528010619114,
,,,,,,1,0,1,0,,,,,,,,,,,,,,,,,,,,,,,,,,,,,,,,,,,,,,,,,,,,,,,,,,,,,,,,,,,,,493.2660299763038,None,return,2.595124892971853,493.2660299763038,None,,001,2019_Oct_15_1124,Test,3.1.2,59.94528010619114,
Pictures/IA75_L15.bmp,Pictures/IA75_L15.bmp,Pictures/IA75.bmp,"

"Trust me, gamble!"",1,risk,2,0,2,0,0,0,0,18,,,,,,,495.9334292920073,None,495.9334292920073,None,495.9334292920073,None,right,1.6238496699968437,495.9334292920073,None,495.9334292920073,None,495.9334292920073,None,return,2.8716494680234064,495.9334292920073,None,498.8509815496227,None,500.85228874810946,502.3521993311299,502.3521993311299,None,503.85814548251415,None,n,1.1979583071172328,505.90309469833505,None,505.90309469833505,None,505.90309469833505,None,None,None,None,None,507.1732655360836,None,507.1732655360836,None,left,0.4719872931475493,507.1732655360836,None,507.67057913900317,509.12073562649266,None,None,,,,,,,,001,2019_Oct_15_1124,Test,3.1.2,59.94528010619114,
Pictures/IA75_G45.bmp,Pictures/IA75_G45.bmp,Pictures/IA75.bmp,"

"Don't gamble for this one."",0,safe,2,0,2,0,0,1,1,14,,,,,,,,,,,,,,,,,,,,,,,,,509.1374791502931,None,511.14284448007993,512.6385498214304,512.6550501310464,None,514.1555811901508,None,y,0.3682922103348574,516.1727396087363,None,516.1727396087363,None,516.1727396087363,None,516.6229066707556,None,516.6229066707556,517.623398386389,518.6607843253123,None,518.6607843253123,None,right,0.31206743564212047,518.6607843253123,None,None,None,518.9905385950119,520.6075869762847,,,,,,,,001,2019_Oct_15_1124,Test,3.1.2,59.94528010619114,
Pictures/IA75_G30.bmp,Pictures/IA75_G30.bmp,Pictures/IA75.bmp,"

"Be bold, gamble!"",1,risk,2,0,2,0,0,2,2,12,,,,,,,,,,,,,,,,,,,,,,,,,520.6241345602691,None,522.6414478646136,524.1254444023882,524.1420572996444,None,525.6256451629456,None,n,1.8817046017552457,527.6429901908796,None,527.6429901908796,None,527.6429901908796,None,None,None,None,None,529.6267075921703,None,529.6267075921703,None,left,0.9460838939648966,529.6267075921703,None,530.5940133232855,None,None,None,,,,,,,,001,2019_Oct_15_1124,Test,3.1.2,59.94528010619114,
Pictures/IA100_G40.bmp,Pictures/IA100_G40.bmp,Pictures/IA100.bmp,"

"Try your luck and gamble!"",1,risk,2,0,2,0,0,3,3,0,,,,,,,,,,,,,,,,,,,,,,,,,531.577292192607,None,533.5946191816372,535.0786539743281,535.0952566080703,None,536.5954545694876,None,n,2.149485595779879,538.583072417179,None,538.583072417179,None,538.583072417179,None,None,None,None,None,540.8466920227302,None,540.8466920227302,None,left,1.557682660228238,540.8466920227302,None,542.4304520953585,None,None,None,,,,,,,,001,2019_Oct_15_1124,Test,3.1.2,59.94528010619114,
Pictures/IA100_L40.bmp,Pictures/IA100_L40.bmp,Pictures/IA100.bmp,"

"Think of the payoff, gamble!"",1,risk,2,0,2,0,0,4,4,19,,,,,,,,,,,,,,,,,,,,,,,,,542.7972218844247,None,544.8146757678119,546.2986063702833,546.315293911279,None,547.7987551912388,None,n,0.7715438160305439,549.8328328574275,None,549.8328328574275,None,549.8328328574275,None,None,None,None,None,550.6860101770519,None,550.6860101770519,None,right,0.9342746323561641,550.6860101770519,None,None,None,551.6501335967428,None,,,,,,,,001,2019_Oct_15_1124,Test,3.1.2,59.94528010619114,
Pictures/IA100_G60.bmp,Pictures/IA100_G60.bmp,Pictures/IA100.bmp,"

"Be cautious, don't gamble for this one."",0,safe,2,0,2,0,0,5,5,1,,,,,,,,,,,,,,,,,,,,,,,,,552.650347264447,None,554.667677363633,556.1512988166169,556.1679987982359,None,557.6684605008656,None,y,0.8632735074129414,559.6689858061818,None,559.6689858061818,None,559.6689858061818,None,560.6045642158535,None,560.6045642158535,561.6029845677178,562.6532583702847,None,562.6532583702847,None,left,1.246928332368725,562.6532583702847,None,563.9204997522761,None,None,None,,,,,,,,001,2019_Oct_15_1124,Test,3.1.2,59.94528010619114,
Pictures/IA25_L15.bmp,Pictures/IA25_L15.bmp,Pictures/IA25.bmp,"

"There's not much on the line here, gamble!"",1,risk,2,0,2,0,0,6,6,2,,,,,,,,,,,,,,,,,,,,,,,,,564.6040236707738,None,566.6211167760871,568.104676647986,568.121390625306,None,569.6220097018199,None,n,0.8925889030263079,571.6393012350741,None,571.6393012350741,None,571.6393012350741,None,None,None,None,None,572.656053156295,None,572.656053156295,None,right,1.0438130759036994,572.656053156295,None,None,None,573.723237498029,None,,,,,,,,001,2019_Oct_15_1124,Test,3.1.2,59.94528010619114,
Pictures/IA75_G60.bmp,Pictures/IA75_G60.bmp,Pictures/IA75.bmp,"

"Make it exciting, take a chance!"",1,risk,2,0,2,0,0,7,7,8,,,,,,,,,,,,,,,,,,,,,,,,,574.6068246770958,None,576.6292834232117,578.1076365832698,578.1242992430191,None,579.6108647694923,None,n,1.5936292190428958,581.6419862325843,None,581.6419862325843,None,581.6419862325843,None,None,None,None,None,583.3150740232634,None,583.3150740232634,None,right,0.9124441377139192,583.3150740232634,None,None,None,584.2594327138006,585.2597651894566,,,,,,,,001,2019_Oct_15_1124,Test,3.1.2,59.94528010619114,
Pictures/IA25_G10.bmp,Pictures/IA25_G10.bmp,Pictures/IA25.bmp,"

"What's life without a little risk?"",1,risk,2,0,2,0,0,8,8,3,,,,,,,,,,,,,,,,,,,,,,,,,585.2764191407696,None,587.2938391234586,588.777731159998,588.7943216641324,None,590.3168959525365,None,y,0.6413390091602196,592.2982636311131,None,592.2982636311131,None,592.2982636311131,None,593.0286722153919,None,593.0286722153919,594.0122879145877,595.0492832179414,None,595.0492832179414,None,right,0.17804335743812771,595.0492832179414,None,None,None,595.2459803568779,596.9966830188291,,,,,,,,001,2019_Oct_15_1124,Test,3.1.2,59.94528010619114,
Pictures/IA75_L60.bmp,Pictures/IA75_L60.bmp,Pictures/IA75.bmp,"

"Why not take the gamble?"",1,risk,2,0,2,0,0,9,9,6,,,,,,,,,,,,,,,,,,,,,,,,,597.0132306028136,None,599.030718386899,600.5142586648162,600.5142586648162,None,602.0314906385865,None,y,1.8187043526320394,604.0485716142921,None,604.0485716142921,None,604.0485716142921,None,605.9490805290873,None,605.9490805290873,606.9331294729873,607.9831102988767,None,607.9831102988767,None,left,0.9401892156593021,607.9831102988767,None,608.9504138528828,None,None,None,,,,,,,,001,2019_Oct_15_1124,Test,3.1.2,59.94528010619114,
Pictures/IA80_40_G95p.bmp,Pictures/IA80_40_G95p.bmp,Pictures/IA80.bmp,"

"Think of the payoff, gamble!"",1,risk,2,0,2,0,0,10,10,9,,,,,,,,,,,,,,,,,,,,,,,,,609.9336494910385,None,611.9510442814653,613.4350414412711,613.4515912023644,None,614.9352941414306,None,y,0.7275718111650349,616.9396315647225,None,616.9396315647225,None,616.9396315647225,None,617.7359213354512,None,617.7359213354512,618.7364600144374,619.8032471892743,None,619.8032471892743,None,right,0.4956443822966321,619.8032471892743,None,None,None,620.320374972825,621.7204483102989,,,,,,,,001,2019_Oct_15_1124,Test,3.1.2,59.94528010619114,
Pictures/IA25_L5.bmp,Pictures/IA25_L5.bmp,Pictures/IA25.bmp,"

"It would be smarter to choose the safe option."",0,safe,2,0,2,0,0,11,11,7,,,,,,,,,,,,,,,,,,,,,,,,,621.7371171903599,None,623.7442503327088,625.2381897275907,625.2548439899194,None,626.7387531323157,None,n,0.6921057714228027,628.7426725506668,None,628.7426725506668,None,628.7426725506668,None,None,None,None,None,629.5227689841579,None,629.5227689841579,None,right,1.0720240551891038,629.5227689841579,None,None,None,630.6232559412529,None,,,,,,,,001,2019_Oct_15_1124,Test,3.1.2,59.94528010619114,
Pictures/IA25_G15.bmp,Pictures/IA25_G15.bmp,Pictures/IA25.bmp,"

"I think you should take a gamble."",1,risk,2,0,2,0,0,12,12,13,,,,,,,,,,,,,,,,,,,,,,,,,631.4733137746002,None,633.4754495185946,634.9745545712603,634.9745545712603,None,636.4796743542461,None,n,0.30791288951195384,638.4788747331875,None,638.4788747331875,None,638.4788747331875,None,None,None,None,None,638.9131846658122,None,638.9131846658122,None,right,0.9054895183085137,638.9131846658122,None,None,None,639.8426693472063,640.85975467713,,,,,,,,001,2019_Oct_15_1124,Test,3.1.2,59.94528010619114,
Pictures/IA25_L20.bmp,Pictures/IA25_L20.bmp,Pictures/IA25.bmp,"

"Don't be tempted to gamble."",0,safe,2,0,2,0,0,13,13,11,,,,,,,,,,,,,,,,,,,,,,,,,640.8763103475194,None,642.897544625293,644.3774646818481,644.3941285856597,None,645.9116075058012,None,y,0.5468966398809698,647.9115711169782,None,647.9115711169782,None,647.9115711169782,None,648.5283971221106,None,648.5283971221106,649.5289423324241,650.5973642051545,None,650.5973642051545,None,left,0.30091255081606505,650.5973642051545,None,650.9293817352368,652.5130774276399,None,None,,,,,,,,001,2019_Oct_15_1124,Test,3.1.2,59.94528010619114,
Pictures/IA100_G20.bmp,Pictures/IA100_G20.bmp,Pictures/IA100.bmp,"

"Go ahead and gamble!"",1,risk,2,0,2,0,0,14,14,10,,,,,,,,,,,,,,,,,,,,,,,,,652.5297652796512,None,654.5467713006019,656.030534265675,656.0472246058112,None,657.5477712156946,None,n,1.1737622279663356,659.5484075535733,None,659.5484075535733,None,659.5484075535733,None,None,None,None,None,660.8153550258407,None,660.8153550258407,None,left,0.9467494673081092,660.8153550258407,None,661.782279140838,None,None,None,,,,,,,,001,2019_Oct_15_1124,Test,3.1.2,59.94528010619114,
Pictures/IA40_20_G95p.bmp,Pictures/IA40_20_G95p.bmp,Pictures/IA40.bmp,"

"Hold back, stay with the safe choice."",0,safe,2,0,2,0,0,15,15,15,,,,,,,,,,,,,,,,,,,,,,,,,662.7661831514774,None,664.7675264277714,666.2668317744715,666.2668317744715,None,667.7673028075687,None,n,1.6255257329626147,669.784591852698,None,669.784591852698,None,669.784591852698,None,None,None,None,None,671.5184324939125,None,671.5184324939125,None,left,1.195629733462738,671.5184324939125,None,672.7358134130445,None,None,None,,,,,,,,001,2019_Oct_15_1124,Test,3.1.2,59.94528010619114,
Pictures/IA100_L60.bmp,Pictures/IA100_L60.bmp,Pictures/IA100.bmp,"

"You'd have a lot to lose, don't gamble."",0,safe,2,0,2,0,0,16,16,16,,,,,,,,,,,,,,,,,,,,,,,,,673.4690985804316,None,675.4862915217464,676.9703826082575,676.9870222528539,None,678.4704396796167,None,n,2.0500253011175573,680.4877899948153,None,680.4877899948153,None,680.4877899948153,None,None,None,None,None,682.6216828244444,None,682.6216828244444,None,left,1.0281814328052405,682.6216828244444,None,683.6720390461401,None,None,None,,,,,,,,001,2019_Oct_15_1124,Test,3.1.2,59.94528010619114,
Pictures/IA110_55_L95p.bmp,Pictures/IA110_55_L95p.bmp,Pictures/IA110.bmp,"

"Trust me, gamble!"",1,risk,2,0,2,0,0,17,17,4,,,,,,,,,,,,,,,,,,,,,,,,,684.5724988204734,None,686.5941172024895,688.0735023122454,688.0903083501773,None,689.5738436518454,None,None,,691.5911737510314,None,691.5911737510314,None,691.5911737510314,None,None,None,None,None,694.6585397258646,None,694.6585397258646,None,right,1.4949501955200049,694.6585397258646,None,None,None,696.175816796894,None,,,,,,,,001,2019_Oct_15_1124,Test,3.1.2,59.94528010619114,
Pictures/IA40_20_L95p.bmp,Pictures/IA40_20_L95p.bmp,Pictures/IA40.bmp,"

"Trust me, gamble!"",1,risk,2,0,2,0,0,18,18,17,,,,,,,,,,,,,,,,,,,,,,,,,696.6095115406997,None,698.6265611038316,700.1102739953963,700.1269966811528,None,701.6106762940503,None,n,1.1967164219024653,703.6447536492235,None,703.6447536492235,None,703.6447536492235,None,None,None,None,None,704.9282546147715,None,704.9282546147715,None,right,1.281228996729169,704.9282546147715,None,None,None,706.2289646944444,None,,,,,,,,001,2019_Oct_15_1124,Test,3.1.2,59.94528010619114,
Pictures/IA20_10_G95p.bmp,Pictures/IA20_10_G95p.bmp,Pictures/IA20.bmp,"

"Take a leap, I think you should gamble."",1,risk,2,0,2,0,0,19,19,5,,,,,,,,,,,,,,,,,,,,,,,,,706.8622238298271,None,708.8642140185298,710.3632248334745,710.3798722534602,None,711.880460228416,None,y,0.928247461412866,713.8809298619433,None,713.8809298619433,None,713.8809298619433,None,714.8979302846135,None,714.8979302846135,715.8817593404976,716.931881989492,None,716.931881989492,None,right,0.8452495324659139,716.931881989492,None,None,None,717.7990503450251,718.86589256962,,,,,,,,001,2019_Oct_15_1124,Test,3.1.2,59.94528010619114,
,,,,,,2,0,2,0,,,,,,,,,,,,,,,,,,,,,,,,,,,,,,,,,,,,,,,,,,,,,,,,,,,,,,,,,,,,,718.9678692913478,None,return,2.2573955617453976,718.9678692913478,None,,001,2019_Oct_15_1124,Test,3.1.2,59.94528010619114,
Pictures/IA40_20_L95p.bmp,Pictures/IA40_20_L95p.bmp,Pictures/IA40.bmp,"

"Trust me, gamble!"",1,risk,3,0,3,0,0,0,0,19,,,,,,,721.3331465166411,None,721.3331465166411,None,721.3331465166411,None,left,1.8039743437027482,721.3331465166411,None,721.3331465166411,None,721.3331465166411,None,return,2.2439018397503787,721.3331465166411,None,723.6044286130602,None,725.6188836842159,727.1183442276908,727.1183442276908,None,728.6353821277385,None,n,1.2592573010131218,730.6375247140757,None,730.6375247140757,None,730.6375247140757,None,None,None,None,None,731.9719467056141,None,731.9719467056141,None,right,1.124925939414652,731.9719467056141,None,None,None,733.1200268219836,None,,,,,,,,001,2019_Oct_15_1124,Test,3.1.2,59.94528010619114,
Pictures/IA75_G60.bmp,Pictures/IA75_G60.bmp,Pictures/IA75.bmp,"

"Make it exciting, take a chance!"",1,risk,3,0,3,0,0,1,1,12,,,,,,,,,,,,,,,,,,,,,,,,,733.9367839060633,None,735.9542570724166,737.4381680809063,737.4547788010536,None,738.9382798910076,None,y,1.0099602739799138,740.9428185413803,None,740.9428185413803,None,740.9428185413803,None,742.0392510993622,None,742.0392510993622,743.0227570100578,744.1064009183667,None,744.1064009183667,None,right,0.4624444020771534,744.1064009183667,None,None,None,744.5902512788184,746.0073390346636,,,,,,,,001,2019_Oct_15_1124,Test,3.1.2,59.94528010619114,
Pictures/IA75_L45.bmp,Pictures/IA75_L45.bmp,Pictures/IA75.bmp,"

"Don't gamble for this one, play it safe."",0,safe,3,0,3,0,0,2,2,16,,,,,,,,,,,,,,,,,,,,,,,,,746.0238844415389,None,748.0452042485972,749.5250406419611,749.5417316041282,None,751.0919816140029,None,n,1.1096370354864575,753.0590226708587,None,753.0590226708587,None,753.0590226708587,None,None,None,None,None,754.2927539900966,None,754.2927539900966,None,left,0.5796409822742135,754.2927539900966,None,754.8929583895365,756.2269331406696,None,None,,,,,,,,001,2019_Oct_15_1124,Test,3.1.2,59.94528010619114,
Pictures/IA75_G15.bmp,Pictures/IA75_G15.bmp,Pictures/IA75.bmp,"

"Take a chance!"",1,risk,3,0,3,0,0,3,3,15,,,,,,,,,,,,,,,,,,,,,,,,,756.2434940983239,None,758.2607725689234,759.7443483026168,759.7610305563478,None,761.2447823248601,None,n,1.5025514163182834,763.249713476896,None,763.249713476896,None,763.249713476896,None,None,None,None,None,764.8311378225114,None,764.8311378225114,None,left,0.7930374807986027,764.8311378225114,None,765.6461274050446,766.7800062389726,None,None,,,,,,,,001,2019_Oct_15_1124,Test,3.1.2,59.94528010619114,
Pictures/IA75_L15.bmp,Pictures/IA75_L15.bmp,Pictures/IA75.bmp,"

"Trust me, gamble!"",1,risk,3,0,3,0,0,4,4,1,,,,,,,,,,,,,,,,,,,,,,,,,766.7964378141451,None,768.7993529631854,770.2978160796922,770.2978160796922,None,771.7979565032269,None,n,1.1128520035467773,773.8151606411027,None,773.8151606411027,None,773.8151606411027,None,None,None,None,None,775.0155296299879,None,775.0155296299879,None,left,0.8085487608673247,775.0155296299879,None,775.8492056506554,776.949765696412,None,None,,,,,,,,001,2019_Oct_15_1124,Test,3.1.2,59.94528010619114,
Pictures/IA100_G20.bmp,Pictures/IA100_G20.bmp,Pictures/IA100.bmp,"

"Go ahead and gamble!"",1,risk,3,0,3,0,0,5,5,8,,,,,,,,,,,,,,,,,,,,,,,,,776.9662703602462,None,778.9834953361658,780.4671326509444,780.4838220580336,None,781.9842766073052,None,y,2.206208928448632,784.0016841493709,None,784.0016841493709,None,784.0016841493709,None,786.268762559198,None,786.268762559198,787.2524908460339,788.303744036665,None,788.303744036665,None,right,0.4082589565489343,788.303744036665,None,None,None,788.73656047247,790.2369960497911,,,,,,,,001,2019_Oct_15_1124,Test,3.1.2,59.94528010619114,
Pictures/IA100_G60.bmp,Pictures/IA100_G60.bmp,Pictures/IA100.bmp,"

"Be cautious, don't gamble for this one."",0,safe,3,0,3,0,0,6,6,3,,,,,,,,,,,,,,,,,,,,,,,,,790.2536770594597,None,792.2553857790613,793.7544199201748,793.7710275301661,None,795.2716724209733,None,y,1.620770926760997,797.2590311926856,None,797.2590311926856,None,797.2590311926856,None,798.9759065559908,None,798.9759065559908,799.9732041416078,801.0091180437867,None,801.0091180437867,None,left,1.2546150824518918,801.0091180437867,None,802.2905370710357,None,None,None,,,,,,,,001,2019_Oct_15_1124,Test,3.1.2,59.94528010619114,
Pictures/IA50_L10.bmp,Pictures/IA50_L10.bmp,Pictures/IA50.bmp,"

"Play it safe, don’t gamble!"",0,safe,3,0,3,0,0,7,7,7,,,,,,,,,,,,,,,,,,,,,,,,,802.9740700089853,None,804.9910060514301,806.4748209561055,806.4914304321903,None,807.9919530938741,None,n,1.5748927073998402,809.9925804123009,None,809.9925804123009,None,809.9925804123009,None,None,None,None,None,811.648583806103,None,811.648583806103,None,right,1.2948533452679385,811.648583806103,None,None,None,812.9601424202549,None,,,,,,,,001,2019_Oct_15_1124,Test,3.1.2,59.94528010619114,
Pictures/IA75_L60.bmp,Pictures/IA75_L60.bmp,Pictures/IA75.bmp,"

"Why not take the gamble?"",1,risk,3,0,3,0,0,8,8,14,,,,,,,,,,,,,,,,,,,,,,,,,813.6103195591788,None,815.612451882002,817.1115699973222,817.1115699973222,None,818.6117735570199,None,n,1.5754662201311476,820.6159113083088,None,820.6159113083088,None,820.6159113083088,None,None,None,None,None,822.2961359735239,None,822.2961359735239,None,left,0.6231194054128082,822.2961359735239,None,822.9462630389394,824.2302389252795,None,None,,,,,,,,001,2019_Oct_15_1124,Test,3.1.2,59.94528010619114,
Pictures/IA100_G40.bmp,Pictures/IA100_G40.bmp,Pictures/IA100.bmp,"

"Try your luck and gamble!"",1,risk,3,0,3,0,0,9,9,6,,,,,,,,,,,,,,,,,,,,,,,,,824.2468241421491,None,826.2487160499279,827.7478643337595,827.7644722547666,None,829.2648238578809,None,y,1.348858401759344,831.2822522379904,None,831.2822522379904,None,831.2822522379904,None,832.7160891159165,None,832.7160891159165,833.699423657027,834.766555126112,None,834.766555126112,None,right,0.24836709044620875,834.766555126112,None,None,None,835.0332065115465,836.6840044375704,,,,,,,,001,2019_Oct_15_1124,Test,3.1.2,59.94528010619114,
Pictures/IA50_L30.bmp,Pictures/IA50_L30.bmp,Pictures/IA50.bmp,"

"Take a leap, I think you should gamble."",1,risk,3,0,3,0,0,10,10,18,,,,,,,,,,,,,,,,,,,,,,,,,836.7006328856057,None,838.7021182960202,840.2013642387442,840.2013642387442,None,841.7187411457751,None,None,,843.7065294300048,None,843.7065294300048,None,843.7065294300048,None,None,None,None,None,846.7879044796507,None,846.7879044796507,None,left,1.2909967520643022,846.7879044796507,None,848.1037361368692,None,None,None,,,,,,,,001,2019_Oct_15_1124,Test,3.1.2,59.94528010619114,
Pictures/IA50_L40.bmp,Pictures/IA50_L40.bmp,Pictures/IA50.bmp,"

"That gamble doesn't sound too good, play it safe."",0,safe,3,0,3,0,0,11,11,9,,,,,,,,,,,,,,,,,,,,,,,,,848.7540874445187,None,850.7599936304009,852.2548943744434,852.2715993323118,None,853.8055163589531,None,n,0.9531862457713487,855.7894091730313,None,855.7894091730313,None,855.7894091730313,None,None,None,None,None,856.8395427075709,None,856.8395427075709,None,right,1.1830102762658044,856.8395427075709,None,None,None,858.0400000248812,None,,,,,,,,001,2019_Oct_15_1124,Test,3.1.2,59.94528010619114,
Pictures/IA25_G10.bmp,Pictures/IA25_G10.bmp,Pictures/IA25.bmp,"

"What's life without a little risk?"",1,risk,3,0,3,0,0,12,12,4,,,,,,,,,,,,,,,,,,,,,,,,,858.7903456409456,None,860.7917598287922,862.291247741638,862.3078310924143,None,863.8084473697879,None,n,2.705972401099416,865.7964626953917,None,865.7964626953917,None,865.7964626953917,None,None,None,None,None,868.6098530358074,None,868.6098530358074,None,right,0.9885182377981891,868.6098530358074,None,None,None,869.627006167128,None,,,,,,,,001,2019_Oct_15_1124,Test,3.1.2,59.94528010619114,
Pictures/IA80_40_L95p.bmp,Pictures/IA80_40_L95p.bmp,Pictures/IA80.bmp,"

"Let's stay with the certain option."",0,safe,3,0,3,0,0,13,13,0,,,,,,,,,,,,,,,,,,,,,,,,,870.5606046516111,None,872.5776850052857,874.0614725405899,874.0779666298943,None,875.578566423442,None,y,0.5463983929203096,877.5957024489055,None,877.5957024489055,None,877.5957024489055,None,878.2126774305011,None,878.2126774305011,879.1964007410879,880.2332206316539,None,880.2332206316539,None,left,0.2611131309845405,880.2332206316539,None,880.5135433289802,882.1806714390971,None,None,,,,,,,,001,2019_Oct_15_1124,Test,3.1.2,59.94528010619114,
Pictures/IA25_G20.bmp,Pictures/IA25_G20.bmp,Pictures/IA25.bmp,"

"I wouldn't gamble for this one. "",0,safe,3,0,3,0,0,14,14,2,,,,,,,,,,,,,,,,,,,,,,,,,882.1970364569354,None,884.2159359407428,885.6980415037851,885.7148997923348,None,887.2985923745821,None,y,1.5814653996721972,889.232412302159,None,889.232412302159,None,889.232412302159,None,890.8664523976659,None,890.8664523976659,891.8668946618218,892.9336815256434,None,892.9336815256434,None,None,,892.9336815256434,None,None,None,None,None,,,,,,,,001,2019_Oct_15_1124,Test,3.1.2,59.94528010619114,
Pictures/IA75_G30.bmp,Pictures/IA75_G30.bmp,Pictures/IA75.bmp,"

"Be bold, gamble!"",1,risk,3,0,3,0,0,15,15,10,,,,,,,,,,,,,,,,,,,,,,,,,894.8676410992161,None,896.8694328599779,898.3687086601976,898.3687086601976,None,899.8719514641525,None,y,1.6794325085304536,901.8863172738365,None,901.8863172738365,None,901.8863172738365,None,903.6205473065584,None,903.6205473065584,904.6204686196165,905.6705156918247,None,905.6705156918247,None,right,0.5192084777870605,905.6705156918247,None,None,None,906.2208817105111,907.6048313782376,,,,,,,,001,2019_Oct_15_1124,Test,3.1.2,59.94528010619114,
Pictures/IA40_20_G95p.bmp,Pictures/IA40_20_G95p.bmp,Pictures/IA40.bmp,"

"Hold back, stay with the safe choice."",0,safe,3,0,3,0,0,16,16,13,,,,,,,,,,,,,,,,,,,,,,,,,907.6215151870463,None,909.6393886304522,911.1223448211085,911.1388535281451,None,912.6285727526092,None,n,1.0017886506059313,914.6439443866818,None,914.6439443866818,None,914.6439443866818,None,None,None,None,None,915.7902697531438,None,915.7902697531438,None,None,,915.7902697531438,None,None,None,None,None,,,,,,,,001,2019_Oct_15_1124,Test,3.1.2,59.94528010619114,
Pictures/IA100_G80.bmp,Pictures/IA100_G80.bmp,Pictures/IA100.bmp,"

"Why not gamble?"",1,risk,3,0,3,0,0,17,17,5,,,,,,,,,,,,,,,,,,,,,,,,,917.7410506044121,None,919.762001235976,921.2420189514235,921.2586906306244,None,922.759007088978,None,y,1.213801751826395,924.7595417247617,None,924.7595417247617,None,924.7595417247617,None,926.0432930578522,None,926.0432930578522,927.0435981641372,928.0960185962435,None,928.0960185962435,None,right,1.3655484308796986,928.0960185962435,None,None,None,929.4779379542576,None,,,,,,,,001,2019_Oct_15_1124,Test,3.1.2,59.94528010619114,
Pictures/IA100_L60.bmp,Pictures/IA100_L60.bmp,Pictures/IA100.bmp,"

"You'd have a lot to lose, don't gamble."",0,safe,3,0,3,0,0,18,18,17,,,,,,,,,,,,,,,,,,,,,,,,,930.0445246795528,None,932.0629856313913,933.5457284653587,933.562345405818,None,935.0460166212945,None,n,1.0990503761267973,937.0501136295427,None,937.0501136295427,None,937.0501136295427,None,None,None,None,None,938.2671975287947,None,938.2671975287947,None,left,0.8737472681168583,938.2671975287947,None,939.1637929345345,940.2140710913193,None,None,,,,,,,,001,2019_Oct_15_1124,Test,3.1.2,59.94528010619114,
Pictures/IA25_L10.bmp,Pictures/IA25_L10.bmp,Pictures/IA25.bmp,"

"Dont be afraid to take the risk!"",1,risk,3,0,3,0,0,19,19,11,,,,,,,,,,,,,,,,,,,,,,,,,940.230910096903,None,942.2330585925363,943.7320090704586,943.7486232117769,None,945.2657074531464,None,y,1.1713478140113693,947.2496634033876,None,947.2496634033876,None,947.2496634033876,None,948.4853264403985,None,948.4853264403985,949.4837673192912,950.5188358811213,None,950.5188358811213,None,right,0.27014626751770265,950.5188358811213,None,None,None,950.8174543810121,952.4677702328852,,,,,,,,001,2019_Oct_15_1124,Test,3.1.2,59.94528010619114,
,,,,,,3,0,3,0,,,,,,,,,,,,,,,,,,,,,,,,,,,,,,,,,,,,,,,,,,,,,,,,,,,,,,,,,,,,,952.5676939407633,None,return,2.237149069456791,952.5676939407633,None,,001,2019_Oct_15_1124,Test,3.1.2,59.94528010619114,
Pictures/IA75_L30.bmp,Pictures/IA75_L30.bmp,Pictures/IA75.bmp,"

"Hold back, stay with the safe choice."",0,safe,4,0,4,0,0,0,0,16,,,,,,,954.9022356733005,None,954.9022356733005,None,954.9022356733005,None,right,2.1746165877671046,954.9022356733005,None,954.9022356733005,None,954.9022356733005,None,return,3.726472993117568,954.9022356733005,None,958.6863230587262,None,960.6867522602281,962.1708613856429,962.1874447364191,None,963.6709610661367,None,y,1.3322607442664776,965.688211234318,None,965.688211234318,None,965.688211234318,None,967.0736525327709,None,967.0736525327709,968.0722535846878,969.139333114171,None,969.139333114171,None,left,1.169059983398256,969.139333114171,None,970.3396215500209,None,None,None,,,,,,,,001,2019_Oct_15_1124,Test,3.1.2,59.94528010619114,
Pictures/IA75_L60.bmp,Pictures/IA75_L60.bmp,Pictures/IA75.bmp,"

"Why not take the gamble?"",1,risk,4,0,4,0,0,1,1,7,,,,,,,,,,,,,,,,,,,,,,,,,971.0734500616279,None,973.0743081536154,974.5743506072424,974.5910008263684,None,976.0759574692413,None,n,0.40760831195348146,978.1086284119576,None,978.1086284119576,None,978.1086284119576,None,None,None,None,None,978.5970385718413,None,978.5970385718413,None,right,1.6152295621554913,978.5970385718413,None,None,None,980.2424991594805,None,,,,,,,,001,2019_Oct_15_1124,Test,3.1.2,59.94528010619114,
Pictures/IA50_G20.bmp,Pictures/IA50_G20.bmp,Pictures/IA50.bmp,"

"Let's venture and take a risk!"",1,risk,4,0,4,0,0,2,2,15,,,,,,,,,,,,,,,,,,,,,,,,,980.5595580841812,None,982.5806169491673,984.0603930055083,984.0769620495678,None,985.5775596660067,None,n,1.398239278593337,987.5819518280407,None,987.5819518280407,None,987.5819518280407,None,None,None,None,None,989.0784387515462,None,989.0784387515462,None,left,0.9897517255922139,989.0784387515462,None,990.0954478826527,None,None,None,,,,,,,,001,2019_Oct_15_1124,Test,3.1.2,59.94528010619114,
Pictures/IA100_L20.bmp,Pictures/IA100_L20.bmp,Pictures/IA100.bmp,"

"Try to win as much money as you can, gamble!"",1,risk,4,0,4,0,0,3,3,6,,,,,,,,,,,,,,,,,,,,,,,,,991.0291303413426,None,993.0364637777259,994.5303851337042,994.5469846572903,None,996.0471866619102,None,n,0.7926751476470599,998.0512127586055,None,998.0512127586055,None,998.0512127586055,None,None,None,None,None,998.9313330469915,None,998.9313330469915,None,right,0.9127573304040197,998.9313330469915,None,None,None,999.8652646291623,1000.8654338216381,,,,,,,,001,2019_Oct_15_1124,Test,3.1.2,59.94528010619114,
Pictures/IA80_40_G95p.bmp,Pictures/IA80_40_G95p.bmp,Pictures/IA80.bmp,"

"Think of the payoff, gamble!"",1,risk,4,0,4,0,0,4,4,2,,,,,,,,,,,,,,,,,,,,,,,,,1000.8818793925118,None,1002.8993267445719,1004.3830312387161,1004.3996108573053,None,1005.8835088031403,None,y,0.6062732464711189,1007.9174975188732,None,1007.9174975188732,None,1007.9174975188732,None,1008.5841438658551,None,1008.5841438658551,1009.5848178366193,1010.6515446744336,None,1010.6515446744336,None,right,0.04811255529466507,1010.6515446744336,None,None,None,1010.7181212917224,1012.5689205862147,,,,,,,,001,2019_Oct_15_1124,Test,3.1.2,59.94528010619114,
Pictures/IA75_G60.bmp,Pictures/IA75_G60.bmp,Pictures/IA75.bmp,"

"Make it exciting, take a chance!"",1,risk,4,0,4,0,0,5,5,3,,,,,,,,,,,,,,,,,,,,,,,,,1012.5854491982484,None,1014.6027177163494,1016.0864411824439,1016.1030466153263,None,1017.6035922921631,None,y,0.6000793711764345,1019.6209379421282,None,1019.6209379421282,None,1019.6209379421282,None,1020.2709129209245,None,1020.2709129209245,1021.2713352800836,1022.3215235533655,None,1022.3215235533655,None,right,0.2901881115535616,1022.3215235533655,None,None,None,1022.638454961678,1024.2554563795982,,,,,,,,001,2019_Oct_15_1124,Test,3.1.2,59.94528010619114,
Pictures/IA50_L20.bmp,Pictures/IA50_L20.bmp,Pictures/IA50.bmp,"

"Certainty is boring, take a risk!"",1,risk,4,0,4,0,0,6,6,19,,,,,,,,,,,,,,,,,,,,,,,,,1024.2721336570796,None,1026.2895536397689,1027.7732512915697,1027.7899973034948,None,1029.3070159205765,None,n,0.687952780370324,1031.3075717054196,None,1031.3075717054196,None,1031.3075717054196,None,None,None,None,None,1032.0960854645934,None,1032.0960854645934,None,right,0.9471528545163892,1032.0960854645934,None,None,None,1033.0746972341074,None,,,,,,,,001,2019_Oct_15_1124,Test,3.1.2,59.94528010619114,
Pictures/IA75_G45.bmp,Pictures/IA75_G45.bmp,Pictures/IA75.bmp,"

"Don't gamble for this one."",0,safe,4,0,4,0,0,7,7,11,,,,,,,,,,,,,,,,,,,,,,,,,1034.0585026528072,None,1036.0756952831064,1037.5596796912735,1037.5929679999178,None,1039.059836598634,None,y,1.8424423058322645,1041.064608821708,None,1041.064608821708,None,1041.064608821708,None,1042.961093816917,None,1042.961093816917,1043.9615808673168,1045.0284031869144,None,1045.0284031869144,None,left,0.5266075384579381,1045.0284031869144,None,1045.5787122897498,1046.9454382256188,None,None,,,,,,,,001,2019_Oct_15_1124,Test,3.1.2,59.94528010619114,
Pictures/IA25_G20.bmp,Pictures/IA25_G20.bmp,Pictures/IA25.bmp,"

"I wouldn't gamble for this one. "",0,safe,4,0,4,0,0,8,8,13,,,,,,,,,,,,,,,,,,,,,,,,,1046.9624706828938,None,1048.9641112900833,1050.4633149346885,1050.4633149346885,None,1051.963713501155,None,n,1.8693227604626372,1053.9975659920635,None,1053.9975659920635,None,1053.9975659920635,None,None,None,None,None,1055.9651625227468,None,1055.9651625227468,None,right,1.237728802499987,1055.9651625227468,None,None,None,1057.2321603795383,None,,,,,,,,001,2019_Oct_15_1124,Test,3.1.2,59.94528010619114,
Pictures/IA25_G15.bmp,Pictures/IA25_G15.bmp,Pictures/IA25.bmp,"

"I think you should take a gamble."",1,risk,4,0,4,0,0,9,9,10,,,,,,,,,,,,,,,,,,,,,,,,,1057.915322897931,None,1059.9172001879776,1061.416608480835,1061.433407054393,None,1062.9169591509024,None,n,1.8676491856213033,1064.9509839444424,None,1064.9509839444424,None,1064.9509839444424,None,None,None,None,None,1066.9179948327871,None,1066.9179948327871,None,left,0.7648834173642172,1066.9179948327871,None,1067.7018035482522,1068.852139771646,None,None,,,,,,,,001,2019_Oct_15_1124,Test,3.1.2,59.94528010619114,
Pictures/IA25_L15.bmp,Pictures/IA25_L15.bmp,Pictures/IA25.bmp,"

"There's not much on the line here, gamble!"",1,risk,4,0,4,0,0,10,10,5,,,,,,,,,,,,,,,,,,,,,,,,,1068.8688014983488,None,1070.8859005129582,1072.3699461911945,1072.3865895679776,None,1073.886817697906,None,y,1.1438372418147082,1075.8746999088414,None,1075.8746999088414,None,1075.8746999088414,None,1077.0875878968907,None,1077.0875878968907,1078.071310274431,1079.1422970926576,None,1079.1422970926576,None,right,0.4920857420192988,1079.1422970926576,None,None,None,1079.655073457215,1081.0557781563182,,,,,,,,001,2019_Oct_15_1124,Test,3.1.2,59.94528010619114,
Pictures/IA75_L45.bmp,Pictures/IA75_L45.bmp,Pictures/IA75.bmp,"

"Don't gamble for this one, play it safe."",0,safe,4,0,4,0,0,11,11,14,,,,,,,,,,,,,,,,,,,,,,,,,1081.0721730316525,None,1083.089420089678,1084.5731525752246,1084.5898379391112,None,1086.0735925067636,None,n,1.0467499960345776,1088.1076288078805,None,1088.1076288078805,None,1088.1076288078805,None,None,None,None,None,1089.2603122658636,None,1089.2603122658636,None,right,1.2298865446259697,1089.2603122658636,None,None,None,1090.508414993066,None,,,,,,,,001,2019_Oct_15_1124,Test,3.1.2,59.94528010619114,
Pictures/IA50_G10.bmp,Pictures/IA50_G10.bmp,Pictures/IA50.bmp,"

"Go with the safe option here!"",0,safe,4,0,4,0,0,12,12,8,,,,,,,,,,,,,,,,,,,,,,,,,1091.2251276952222,None,1093.2278972889706,1094.7262894939247,1094.7429851213258,None,1096.263641376642,None,n,1.6855570273501144,1098.260549570752,None,1098.260549570752,None,1098.260549570752,None,None,None,None,None,1100.0610414729947,None,1100.0610414729947,None,right,1.1649576878853622,1100.0610414729947,None,None,None,1101.2447586876758,None,,,,,,,,001,2019_Oct_15_1124,Test,3.1.2,59.94528010619114,
Pictures/IA50_L40.bmp,Pictures/IA50_L40.bmp,Pictures/IA50.bmp,"

"That gamble doesn't sound too good, play it safe."",0,safe,4,0,4,0,0,13,13,4,,,,,,,,,,,,,,,,,,,,,,,,,1102.0118904366752,None,1104.028864423021,1105.512658800668,1105.529369667832,None,1107.0299775477854,None,y,1.4507586136542159,1109.0471959923777,None,1109.0471959923777,None,1109.0471959923777,None,1110.597532464584,None,1110.597532464584,1111.5814675767813,1112.6491899754703,None,1112.6491899754703,None,left,0.4406126633725762,1112.6491899754703,None,1113.1149781060583,1114.565659276833,None,None,,,,,,,,001,2019_Oct_15_1124,Test,3.1.2,59.94528010619114,
Pictures/IA75_G15.bmp,Pictures/IA75_G15.bmp,Pictures/IA75.bmp,"

"Take a chance!"",1,risk,4,0,4,0,0,14,14,18,,,,,,,,,,,,,,,,,,,,,,,,,1114.5822140141756,None,1116.5993817632282,1118.0829839332462,1118.0996836038496,None,1119.6003676826197,None,y,2.1119699633591154,1121.6175851941655,None,1121.6175851941655,None,1121.6175851941655,None,1123.7869285127579,None,1123.7869285127579,1124.7850487345866,1125.820582886741,None,1125.820582886741,None,right,0.27721191948558044,1125.820582886741,None,None,None,1126.119028461969,1127.7691797865998,,,,,,,,001,2019_Oct_15_1124,Test,3.1.2,59.94528010619114,
Pictures/IA80_40_L95p.bmp,Pictures/IA80_40_L95p.bmp,Pictures/IA80.bmp,"

"Let's stay with the certain option."",0,safe,4,0,4,0,0,15,15,0,,,,,,,,,,,,,,,,,,,,,,,,,1127.7858629733776,None,1129.788167909848,1131.2869793638054,1131.303580753485,None,1132.8042449272582,None,n,1.3322461265343009,1134.821264632894,None,1134.821264632894,None,1134.821264632894,None,None,None,None,None,1136.2552287161932,None,1136.2552287161932,None,left,0.986225119919709,1136.2552287161932,None,1137.2719566892144,None,None,None,,,,,,,,001,2019_Oct_15_1124,Test,3.1.2,59.94528010619114,
Pictures/IA25_G10.bmp,Pictures/IA25_G10.bmp,Pictures/IA25.bmp,"

"What's life without a little risk?"",1,risk,4,0,4,0,0,16,16,17,,,,,,,,,,,,,,,,,,,,,,,,,1138.2223310431184,None,1140.225590797422,1141.7235768160278,1141.7401928234397,None,1143.2237284361233,None,n,1.7729010880257192,1145.228235984938,None,1145.228235984938,None,1145.228235984938,None,None,None,None,None,1147.0915517904702,None,1147.0915517904702,None,left,0.98965344466842,1147.0915517904702,None,1148.1086234357083,None,None,None,,,,,,,,001,2019_Oct_15_1124,Test,3.1.2,59.94528010619114,
Pictures/IA25_L5.bmp,Pictures/IA25_L5.bmp,Pictures/IA25.bmp,"

"It would be smarter to choose the safe option."",0,safe,4,0,4,0,0,17,17,12,,,,,,,,,,,,,,,,,,,,,,,,,1149.0422496005783,None,1151.0608116324804,1152.543518077625,1152.560016210132,None,1154.0437558490369,None,n,1.0806236360022012,1156.0483284001077,None,1156.0483284001077,None,1156.0483284001077,None,None,None,None,None,1157.227825444371,None,1157.227825444371,None,left,1.309089150438922,1157.227825444371,None,1158.5619491719679,None,None,None,,,,,,,,001,2019_Oct_15_1124,Test,3.1.2,59.94528010619114,
Pictures/IA25_L20.bmp,Pictures/IA25_L20.bmp,Pictures/IA25.bmp,"

"Don't be tempted to gamble."",0,safe,4,0,4,0,0,18,18,1,,,,,,,,,,,,,,,,,,,,,,,,,1159.1784299498051,None,1161.1803678878903,1162.6795699774173,1162.6961912720942,None,1164.1965857953585,None,y,2.266963334061984,1166.213837518618,None,1166.213837518618,None,1166.213837518618,None,1168.5312152342897,None,1168.5312152342897,1169.531837576467,1170.5821757592591,None,1170.5821757592591,None,None,,1170.5821757592591,None,None,None,None,None,,,,,,,,001,2019_Oct_15_1124,Test,3.1.2,59.94528010619114,
Pictures/IA100_L40.bmp,Pictures/IA100_L40.bmp,Pictures/IA100.bmp,"

"Think of the payoff, gamble!"",1,risk,4,0,4,0,0,19,19,9,,,,,,,,,,,,,,,,,,,,,,,,,1172.532396471466,None,1174.5507830905806,1176.0333794362098,1176.0504174917648,None,1177.5337966636114,None,n,1.6568334943872287,1179.5677772929391,None,1179.5677772929391,None,1179.5677772929391,None,None,None,None,None,1181.3056717112356,None,1181.3056717112356,None,right,0.5030583717152695,1181.3056717112356,None,None,None,1181.8352615780993,1183.2522252387278,,,,,,,,001,2019_Oct_15_1124,Test,3.1.2,59.94528010619114,
,,,,,,4,0,4,0,,,,,,,,,,,,,,,,,,,,,,,,,,,,,,,,,,,,,,,,,,,,,,,,,,,,,,,,,,,,,1183.3354996605265,None,return,3.4730086683152877,1183.3354996605265,None,,001,2019_Oct_15_1124,Test,3.1.2,59.94528010619114,
Pictures/IA100_L40.bmp,Pictures/IA100_L40.bmp,Pictures/IA100.bmp,"

"Think of the payoff, gamble!"",1,risk,5,0,5,0,0,0,0,4,,,,,,,1186.9032461629229,None,1186.9032461629229,None,1186.9032461629229,None,left,1.9292231172903485,1186.9032461629229,None,1186.9032461629229,None,1186.9032461629229,None,return,2.7293800557526993,1186.9032461629229,None,1189.6876333673688,None,1191.6725186321657,1193.1718491711279,1193.1718491711279,None,1194.689054397558,None,y,1.1261105977623629,1196.7062246347357,None,1196.7062246347357,None,1196.7062246347357,None,1197.9064763707468,None,1197.9064763707468,1198.90710182308,1199.9443953903758,None,1199.9443953903758,None,left,0.7281574535040818,1199.9443953903758,None,1200.6909279554177,1201.891213592127,None,None,,,,,,,,001,2019_Oct_15_1124,Test,3.1.2,59.94528010619114,
Pictures/IA50_L40.bmp,Pictures/IA50_L40.bmp,Pictures/IA50.bmp,"

"That gamble doesn't sound too good, play it safe."",0,safe,5,0,5,0,0,1,1,8,,,,,,,,,,,,,,,,,,,,,,,,,1201.9076946187772,None,1203.9249609597694,1205.4090162794885,1205.4256929349388,None,1206.9091557699765,None,n,0.9528674548009803,1208.9432427666327,None,1208.9432427666327,None,1208.9432427666327,None,None,None,None,None,1209.9933551521128,None,1209.9933551521128,None,right,0.44688304850023997,1209.9933551521128,None,None,None,1210.4604165804892,1211.927418293874,,,,,,,,001,2019_Oct_15_1124,Test,3.1.2,59.94528010619114,
Pictures/IA100_G60.bmp,Pictures/IA100_G60.bmp,Pictures/IA100.bmp,"

"Be cautious, don't gamble for this one."",0,safe,5,0,5,0,0,2,2,17,,,,,,,,,,,,,,,,,,,,,,,,,1211.943990137074,None,1213.9460826499023,1215.4452032533475,1215.4616447810188,None,1216.9622302678497,None,n,1.2529900260410614,1218.962842346513,None,1218.962842346513,None,1218.962842346513,None,None,None,None,None,1220.3021410623608,None,1220.3021410623608,None,left,1.121889183282292,1220.3021410623608,None,1221.4468270656955,None,None,None,,,,,,,,001,2019_Oct_15_1124,Test,3.1.2,59.94528010619114,
Pictures/IA75_L15.bmp,Pictures/IA75_L15.bmp,Pictures/IA75.bmp,"

"Trust me, gamble!"",1,risk,5,0,5,0,0,3,3,0,,,,,,,,,,,,,,,,,,,,,,,,,1222.2636640807793,None,1224.2657606368105,1225.7646887216108,1225.7813715973728,None,1227.2818690667948,None,y,0.5967580357873885,1229.2990097574918,None,1229.2990097574918,None,1229.2990097574918,None,1229.9676518914569,None,1229.9676518914569,1230.9661935393976,1232.0332429003695,None,1232.0332429003695,None,right,0.43841222813762215,1232.0332429003695,None,None,None,1232.500047740892,1233.9504440213943,,,,,,,,001,2019_Oct_15_1124,Test,3.1.2,59.94528010619114,
Pictures/IA100_L60.bmp,Pictures/IA100_L60.bmp,Pictures/IA100.bmp,"

"You'd have a lot to lose, don't gamble."",0,safe,5,0,5,0,0,4,4,12,,,,,,,,,,,,,,,,,,,,,,,,,1233.9671119684083,None,1235.9692041702212,1237.4682065877453,1237.4848471653884,None,1238.9698457953648,None,n,1.5397442145658715,1240.9876358865952,None,1240.9876358865952,None,1240.9876358865952,None,None,None,None,None,1242.6196248343451,None,1242.6196248343451,None,right,0.5877615990925733,1242.6196248343451,None,None,None,1243.2365320145443,1244.5537545334407,,,,,,,,001,2019_Oct_15_1124,Test,3.1.2,59.94528010619114,
Pictures/IA25_L15.bmp,Pictures/IA25_L15.bmp,Pictures/IA25.bmp,"

"There's not much on the line here, gamble!"",1,risk,5,0,5,0,0,5,5,14,,,,,,,,,,,,,,,,,,,,,,,,,1244.5702165881405,None,1246.5764409429619,1248.071597341812,1248.0882376084394,None,1249.5716690309034,None,y,1.0948560200022257,1251.576325245166,None,1251.576325245166,None,1251.576325245166,None,1252.7392274310766,None,1252.7392274310766,1253.723126154451,1254.7602856740316,None,1254.7602856740316,None,right,0.43884391776373377,1254.7602856740316,None,None,None,1255.2233066989959,1256.707471185184,,,,,,,,001,2019_Oct_15_1124,Test,3.1.2,59.94528010619114,
Pictures/IA25_G15.bmp,Pictures/IA25_G15.bmp,Pictures/IA25.bmp,"

"I think you should take a gamble."",1,risk,5,0,5,0,0,6,6,3,,,,,,,,,,,,,,,,,,,,,,,,,1256.724125758528,None,1258.726425096718,1260.2249102953313,1260.2414696979074,None,1261.7420657592681,None,n,1.5173644664077983,1263.729765093042,None,1263.729765093042,None,1263.729765093042,None,None,None,None,None,1265.36205541489,None,1265.36205541489,None,right,0.9169299154377768,1265.36205541489,None,None,None,1266.3098632682202,1267.310443001263,,,,,,,,001,2019_Oct_15_1124,Test,3.1.2,59.94528010619114,
Pictures/IA20_10_L95p.bmp,Pictures/IA20_10_L95p.bmp,Pictures/IA20.bmp,"

"Don't be tempted to gamble."",0,safe,5,0,5,0,0,7,7,10,,,,,,,,,,,,,,,,,,,,,,,,,1267.3270991296852,None,1269.3460629937179,1270.8279191222643,1270.8447009009808,None,1272.3284013519226,None,n,0.365292776071783,1274.3456372133876,None,1274.3456372133876,None,1274.3456372133876,None,None,None,None,None,1274.879083673455,None,1274.879083673455,None,left,0.6077981558642023,1274.879083673455,None,1275.512653513403,1276.746323873587,None,None,,,,,,,,001,2019_Oct_15_1124,Test,3.1.2,59.94528010619114,
Pictures/IA100_G80.bmp,Pictures/IA100_G80.bmp,Pictures/IA100.bmp,"

"Why not gamble?"",1,risk,5,0,5,0,0,8,8,6,,,,,,,,,,,,,,,,,,,,,,,,,1276.7630621101223,None,1278.7675724580774,1280.2640540943178,1280.2807295057062,None,1281.781263052935,None,y,1.6082037201817911,1283.798381039495,None,1283.798381039495,None,1283.798381039495,None,1285.452667005259,None,1285.452667005259,1286.4495400546082,1287.4855833392687,None,1287.4855833392687,None,right,1.2090935979622373,1287.4855833392687,None,None,None,1288.716729185982,None,,,,,,,,001,2019_Oct_15_1124,Test,3.1.2,59.94528010619114,
Pictures/IA25_G20.bmp,Pictures/IA25_G20.bmp,Pictures/IA25.bmp,"

"I wouldn't gamble for this one. "",0,safe,5,0,5,0,0,9,9,15,,,,,,,,,,,,,,,,,,,,,,,,,1289.4501219647602,None,1291.4571652236061,1292.9514165671155,1292.9679806349257,None,1294.4517706583545,None,n,0.6561022967566714,1296.4704742023462,None,1296.4704742023462,None,1296.4704742023462,None,None,None,None,None,1297.2357034690365,None,1297.2357034690365,None,left,0.6587611689583355,1297.2357034690365,None,1297.919302653305,1299.1697289779124,None,None,,,,,,,,001,2019_Oct_15_1124,Test,3.1.2,59.94528010619114,
Pictures/IA75_L30.bmp,Pictures/IA75_L30.bmp,Pictures/IA75.bmp,"

"Hold back, stay with the safe choice."",0,safe,5,0,5,0,0,10,10,18,,,,,,,,,,,,,,,,,,,,,,,,,1299.1863742207895,None,1301.1919196285978,1302.6876081751068,1302.704186860649,None,1304.1878845124504,None,n,2.128851267061691,1306.2215790074436,None,1306.2215790074436,None,1306.2215790074436,None,None,None,None,None,1308.4556888326435,None,1308.4556888326435,None,right,1.286417669666207,1308.4556888326435,None,None,None,1309.7730273603518,None,,,,,,,,001,2019_Oct_15_1124,Test,3.1.2,59.94528010619114,
Pictures/IA50_L30.bmp,Pictures/IA50_L30.bmp,Pictures/IA50.bmp,"

"Take a leap, I think you should gamble."",1,risk,5,0,5,0,0,11,11,11,,,,,,,,,,,,,,,,,,,,,,,,,1310.4062093638706,None,1312.407169468969,1313.907276302821,1313.9239719302216,None,1315.4244582030826,None,n,1.1724460100281249,1317.4417460041498,None,1317.4417460041498,None,1317.4417460041498,None,None,None,None,None,1318.74205580677,None,1318.74205580677,None,left,1.1921793266078566,1318.74205580677,None,1319.9593571059129,None,None,None,,,,,,,,001,2019_Oct_15_1124,Test,3.1.2,59.94528010619114,
Pictures/IA25_G5.bmp,Pictures/IA25_G5.bmp,Pictures/IA25.bmp,"

"Let's stay with the certain option."",0,safe,5,0,5,0,0,12,12,5,,,,,,,,,,,,,,,,,,,,,,,,,1320.6928410122562,None,1322.6973109281855,1324.1939704653385,1324.1939704653385,None,1325.71091941493,None,n,1.4029122876968358,1327.7149277837373,None,1327.7149277837373,None,1327.7149277837373,None,None,None,None,None,1329.2117698870359,None,1329.2117698870359,None,right,1.0259691789779026,1329.2117698870359,None,None,None,1330.2620536421011,None,,,,,,,,001,2019_Oct_15_1124,Test,3.1.2,59.94528010619114,
Pictures/IA20_10_G95p.bmp,Pictures/IA20_10_G95p.bmp,Pictures/IA20.bmp,"

"Take a leap, I think you should gamble."",1,risk,5,0,5,0,0,13,13,13,,,,,,,,,,,,,,,,,,,,,,,,,1331.1624972436246,None,1333.1836251540692,1334.6633191022972,1334.6801658832703,None,1336.164372978593,None,y,0.7927762277104193,1338.1810468349033,None,1338.1810468349033,None,1338.1810468349033,None,1339.0645904717887,None,1339.0645904717887,1340.065275639114,1341.1015863971736,None,1341.1015863971736,None,right,1.2321071958745051,1341.1015863971736,None,None,None,1342.3656843446886,None,,,,,,,,001,2019_Oct_15_1124,Test,3.1.2,59.94528010619114,
Pictures/IA80_40_L95p.bmp,Pictures/IA80_40_L95p.bmp,Pictures/IA80.bmp,"

"Let's stay with the certain option."",0,safe,5,0,5,0,0,14,14,2,,,,,,,,,,,,,,,,,,,,,,,,,1343.0660164782273,None,1345.0701486312362,1346.5672084454416,1346.583737368491,None,1348.0732006271317,None,n,1.1927988696447756,1350.0846907867542,None,1350.0846907867542,None,1350.0846907867542,None,None,None,None,None,1351.384913505012,None,1351.384913505012,None,right,1.0844046524198347,1351.384913505012,None,None,None,1352.5023010487755,None,,,,,,,,001,2019_Oct_15_1124,Test,3.1.2,59.94528010619114,
Pictures/IA50_G20.bmp,Pictures/IA50_G20.bmp,Pictures/IA50.bmp,"

"Let's venture and take a risk!"",1,risk,5,0,5,0,0,15,15,1,,,,,,,,,,,,,,,,,,,,,,,,,1353.3357248358072,None,1355.3529908657836,1356.8368695286529,1356.8533878771725,None,1358.353813501995,None,n,1.6240222836440807,1360.3411753838634,None,1360.3411753838634,None,1360.3411753838634,None,None,None,None,None,1362.054920375346,None,1362.054920375346,None,left,1.2223609006141487,1362.054920375346,None,1363.3051087730344,None,None,None,,,,,,,,001,2019_Oct_15_1124,Test,3.1.2,59.94528010619114,
Pictures/IA75_G30.bmp,Pictures/IA75_G30.bmp,Pictures/IA75.bmp,"

"Be bold, gamble!"",1,risk,5,0,5,0,0,16,16,9,,,,,,,,,,,,,,,,,,,,,,,,,1364.005336405338,None,1366.0081557615792,1367.5064782990432,1367.5064782990432,None,1369.0106224261515,None,y,1.3705980798517885,1371.0107172859036,None,1371.0107172859036,None,1371.0107172859036,None,1372.4577474447735,None,1372.4577474447735,1373.4580631255883,1374.5250745426595,None,1374.5250745426595,None,right,0.7838519466313301,1374.5250745426595,None,None,None,1375.3421417092734,1376.4424237071005,,,,,,,,001,2019_Oct_15_1124,Test,3.1.2,59.94528010619114,
Pictures/IA75_L45.bmp,Pictures/IA75_L45.bmp,Pictures/IA75.bmp,"

"Don't gamble for this one, play it safe."",0,safe,5,0,5,0,0,17,17,19,,,,,,,,,,,,,,,,,,,,,,,,,1376.4591339522337,None,1378.462175995631,1379.9603358719462,1379.9769148685043,None,1381.477275802086,None,n,1.8839700392472878,1383.4649651833608,None,1383.4649651833608,None,1383.4649651833608,None,None,None,None,None,1385.445131408748,None,1385.445131408748,None,left,1.1996253506308676,1385.445131408748,None,1386.66196618452,None,None,None,,,,,,,,001,2019_Oct_15_1124,Test,3.1.2,59.94528010619114,
Pictures/IA25_L20.bmp,Pictures/IA25_L20.bmp,Pictures/IA25.bmp,"

"Don't be tempted to gamble."",0,safe,5,0,5,0,0,18,18,16,,,,,,,,,,,,,,,,,,,,,,,,,1387.3958895558792,None,1389.3980797276001,1390.8965671033222,1390.9132409596325,None,1392.3969871298643,None,n,0.9257602698121445,1394.4310962086267,None,1394.4310962086267,None,1394.4310962086267,None,None,None,None,None,1395.4645157658463,None,1395.4645157658463,None,None,,1395.4645157658463,None,None,None,None,None,,,,,,,,001,2019_Oct_15_1124,Test,3.1.2,59.94528010619114,
Pictures/IA110_55_L95p.bmp,Pictures/IA110_55_L95p.bmp,Pictures/IA110.bmp,"

"Trust me, gamble!"",1,risk,5,0,5,0,0,19,19,7,,,,,,,,,,,,,,,,,,,,,,,,,1397.4153501117946,None,1399.4323570657918,1400.916493560578,1400.9331646177477,None,1402.4334238492345,None,n,0.9067338916479457,1404.4338440312843,None,1404.4338440312843,None,1404.4338440312843,None,None,None,None,None,1405.4674760121459,None,1405.4674760121459,None,right,0.35304560452550504,1405.4674760121459,None,None,None,1405.851293187235,1407.4017123895858,,,,,,,,001,2019_Oct_15_1124,Test,3.1.2,59.94528010619114,
,,,,,,5,0,5,0,,,,,,,,,,,,,,,,,,,,,,,,,,,,,,,,,,,,,,,,,,,,,,,,,,,,,,,,,,,,,1407.5183015563532,None,return,1.8702023125251799,1407.5183015563532,None,,001,2019_Oct_15_1124,Test,3.1.2,59.94528010619114,
Pictures/IA100_G20.bmp,Pictures/IA100_G20.bmp,Pictures/IA100.bmp,"

"Go ahead and gamble!"",1,risk,6,0,6,0,0,0,0,5,,,,,,,1409.5029784407109,None,1409.5029784407109,None,1409.5029784407109,None,left,1.773568527462885,1409.5029784407109,None,1409.5029784407109,None,1409.5029784407109,None,return,2.781359778780825,1409.5029784407109,None,1412.3195570018472,None,1414.3207572109739,1415.820782558744,1415.820782558744,None,1417.323014251045,None,n,1.2222666628927072,1419.3259654778924,None,1419.3259654778924,None,1419.3259654778924,None,None,None,None,None,1420.6553586585026,None,1420.6553586585026,None,left,1.125005870419045,1420.6553586585026,None,1421.805765793449,None,None,None,,,,,,,,001,2019_Oct_15_1124,Test,3.1.2,59.94528010619114,
Pictures/IA25_G15.bmp,Pictures/IA25_G15.bmp,Pictures/IA25.bmp,"

"I think you should take a gamble."",1,risk,6,0,6,0,0,1,1,17,,,,,,,,,,,,,,,,,,,,,,,,,1422.6062297042893,None,1424.6251416287203,1426.106897299234,1426.1236485984239,None,1427.6240851087916,None,y,0.8322829818807804,1429.611662213442,None,1429.611662213442,None,1429.611662213442,None,1430.5112094680605,None,1430.5112094680605,1431.5086659826395,1432.5642513092978,None,1432.5642513092978,None,right,0.49586427031226776,1432.5642513092978,None,None,None,1433.0759276117453,1434.4927096392746,,,,,,,,001,2019_Oct_15_1124,Test,3.1.2,59.94528010619114,
Pictures/IA50_L40.bmp,Pictures/IA50_L40.bmp,Pictures/IA50.bmp,"

"That gamble doesn't sound too good, play it safe."",0,safe,6,0,6,0,0,2,2,8,,,,,,,,,,,,,,,,,,,,,,,,,1434.5093446186372,None,1436.5267089295373,1438.0105891474843,1438.0272340793456,None,1439.5136655581034,None,n,0.8188735451076354,1441.5449045850849,None,1441.5449045850849,None,1441.5449045850849,None,None,None,None,None,1442.4783771082582,None,1442.4783771082582,None,left,1.0614314865333654,1442.4783771082582,None,1443.5621015696022,None,None,None,,,,,,,,001,2019_Oct_15_1124,Test,3.1.2,59.94528010619114,
Pictures/IA40_20_G95p.bmp,Pictures/IA40_20_G95p.bmp,Pictures/IA40.bmp,"

"Hold back, stay with the safe choice."",0,safe,6,0,6,0,0,3,3,2,,,,,,,,,,,,,,,,,,,,,,,,,1444.4290721192258,None,1446.4310560876168,1447.9301835334043,1447.9469989018041,None,1449.4471726040058,None,y,1.354557140248744,1451.4491372894306,None,1451.4491372894306,None,1451.4491372894306,None,1452.8670262214125,None,1452.8670262214125,1453.8654017870333,1454.9153785697201,None,1454.9153785697201,None,left,0.49606580840872994,1454.9153785697201,None,1455.4324217570327,1456.8494168302348,None,None,,,,,,,,001,2019_Oct_15_1124,Test,3.1.2,59.94528010619114,
Pictures/IA20_10_G95p.bmp,Pictures/IA20_10_G95p.bmp,Pictures/IA20.bmp,"

"Take a leap, I think you should gamble."",1,risk,6,0,6,0,0,4,4,4,,,,,,,,,,,,,,,,,,,,,,,,,1456.8661871013753,None,1458.8832260899774,1460.3669691500534,1460.383647982613,None,1461.8674271204966,None,n,2.3233293098282957,1463.8720248638294,None,1463.8720248638294,None,1463.8720248638294,None,None,None,None,None,1466.302080725338,None,1466.302080725338,None,left,1.3413196950928068,1466.302080725338,None,1467.6690722685132,None,None,None,,,,,,,,001,2019_Oct_15_1124,Test,3.1.2,59.94528010619114,
Pictures/IA25_G20.bmp,Pictures/IA25_G20.bmp,Pictures/IA25.bmp,"

"I wouldn't gamble for this one. "",0,safe,6,0,6,0,0,5,5,12,,,,,,,,,,,,,,,,,,,,,,,,,1468.25287681637,None,1470.2588604451319,1471.754008446561,1471.770679503731,None,1473.2582524096708,None,n,1.1850760417546553,1475.2901252864065,None,1475.2901252864065,None,1475.2901252864065,None,None,None,None,None,1476.5610229675674,None,1476.5610229675674,None,right,1.330118779960685,1476.5610229675674,None,None,None,1477.9224243166911,None,,,,,,,,001,2019_Oct_15_1124,Test,3.1.2,59.94528010619114,
Pictures/IA50_G40.bmp,Pictures/IA50_G40.bmp,Pictures/IA50.bmp,"

"It would probably be best to play it safe."",0,safe,6,0,6,0,0,6,6,6,,,,,,,,,,,,,,,,,,,,,,,,,1478.522606323009,None,1480.5234062550833,1482.0233317668515,1482.0399906944137,None,1483.5237953355747,None,n,0.4988086548173669,1485.528222331354,None,1485.528222331354,None,1485.528222331354,None,None,None,None,None,1486.14137493146,None,1486.14137493146,None,left,0.9417850366048697,1486.14137493146,None,1487.1085127141616,None,None,None,,,,,,,,001,2019_Oct_15_1124,Test,3.1.2,59.94528010619114,
Pictures/IA75_G15.bmp,Pictures/IA75_G15.bmp,Pictures/IA75.bmp,"

"Take a chance!"",1,risk,6,0,6,0,0,7,7,18,,,,,,,,,,,,,,,,,,,,,,,,,1488.1085245327533,None,1490.109879316624,1491.6095650353798,1491.6261521183426,None,1493.113526596342,None,y,0.8427486561795376,1495.1280995424029,None,1495.1280995424029,None,1495.1280995424029,None,1496.0609537666007,None,1496.0609537666007,1497.0447697598308,1498.094722594318,None,1498.094722594318,None,right,0.284231852162975,1498.094722594318,None,None,None,1498.3948613383684,1500.0286513773478,,,,,,,,001,2019_Oct_15_1124,Test,3.1.2,59.94528010619114,
Pictures/IA110_55_L95p.bmp,Pictures/IA110_55_L95p.bmp,Pictures/IA110.bmp,"

"Trust me, gamble!"",1,risk,6,0,6,0,0,8,8,1,,,,,,,,,,,,,,,,,,,,,,,,,1500.0453180803,None,1502.0491280211666,1503.546351118552,1503.5629780115094,None,1505.0478923562634,None,n,1.1510425397777908,1507.0515632731651,None,1507.0515632731651,None,1507.0515632731651,None,None,None,None,None,1508.2824522210087,None,1508.2824522210087,None,right,0.9601539278310156,1508.2824522210087,None,None,None,1509.2649044109164,None,,,,,,,,001,2019_Oct_15_1124,Test,3.1.2,59.94528010619114,
Pictures/IA100_G80.bmp,Pictures/IA100_G80.bmp,Pictures/IA100.bmp,"

"Why not gamble?"",1,risk,6,0,6,0,0,9,9,13,,,,,,,,,,,,,,,,,,,,,,,,,1510.248276584912,None,1512.2525552262593,1513.7496977706094,1513.7663128449747,None,1515.2524003405,None,n,1.2235365395099507,1517.2671151096658,None,1517.2671151096658,None,1517.2671151096658,None,None,None,None,None,1518.603755575343,None,1518.603755575343,None,left,0.5826917341078115,1518.603755575343,None,1519.2177109066631,1520.5348332785427,None,None,,,,,,,,001,2019_Oct_15_1124,Test,3.1.2,59.94528010619114,
Pictures/IA25_G10.bmp,Pictures/IA25_G10.bmp,Pictures/IA25.bmp,"

"What's life without a little risk?"",1,risk,6,0,6,0,0,10,10,16,,,,,,,,,,,,,,,,,,,,,,,,,1520.5514747892323,None,1522.5710295828692,1524.0524988080326,1524.06932910518,None,1525.5570652943,None,n,0.5201779133526543,1527.5700769421444,None,1527.5700769421444,None,1527.5700769421444,None,None,None,None,None,1528.2036374516254,None,1528.2036374516254,None,right,0.862591450243599,1528.2036374516254,None,None,None,1529.087190729994,1530.1378337080553,,,,,,,,001,2019_Oct_15_1124,Test,3.1.2,59.94528010619114,
Pictures/IA75_G30.bmp,Pictures/IA75_G30.bmp,Pictures/IA75.bmp,"

"Be bold, gamble!"",1,risk,6,0,6,0,0,11,11,9,,,,,,,,,,,,,,,,,,,,,,,,,1530.1543421040762,None,1532.1725343384526,1533.6553701660794,1533.6721961090086,None,1535.155601717179,None,n,0.6045464879653082,1537.1895328950293,None,1537.1895328950293,None,1537.1895328950293,None,None,None,None,None,1537.9073151797686,None,1537.9073151797686,None,left,0.9585873423502562,1537.9073151797686,None,1538.8900298668261,None,None,None,,,,,,,,001,2019_Oct_15_1124,Test,3.1.2,59.94528010619114,
Pictures/IA25_L10.bmp,Pictures/IA25_L10.bmp,Pictures/IA25.bmp,"

"Dont be afraid to take the risk!"",1,risk,6,0,6,0,0,12,12,7,,,,,,,,,,,,,,,,,,,,,,,,,1539.857218656083,None,1541.8590209913748,1543.3582594697248,1543.3582594697248,None,1544.858530208788,None,y,0.29414267466563615,1546.875762338066,None,1546.875762338066,None,1546.875762338066,None,1547.2434838348097,None,1547.2434838348097,1548.243139851577,1549.2824590633516,None,1549.2824590633516,None,right,0.359335894650485,1549.2824590633516,None,None,None,1549.6599315205892,1551.2270482164347,,,,,,,,001,2019_Oct_15_1124,Test,3.1.2,59.94528010619114,
Pictures/IA100_L40.bmp,Pictures/IA100_L40.bmp,Pictures/IA100.bmp,"

"Think of the payoff, gamble!"",1,risk,6,0,6,0,0,13,13,0,,,,,,,,,,,,,,,,,,,,,,,,,1551.2437373125083,None,1553.248139427041,1554.7448160700508,1554.7613953776242,None,1556.2620337371043,None,n,1.2905840343883028,1558.2792447173226,None,1558.2792447173226,None,1558.2792447173226,None,None,None,None,None,1559.683909577818,None,1559.683909577818,None,right,1.1735865041632678,1559.683909577818,None,None,None,1560.8798948020897,None,,,,,,,,001,2019_Oct_15_1124,Test,3.1.2,59.94528010619114,
Pictures/IA75_L30.bmp,Pictures/IA75_L30.bmp,Pictures/IA75.bmp,"

"Hold back, stay with the safe choice."",0,safe,6,0,6,0,0,14,14,3,,,,,,,,,,,,,,,,,,,,,,,,,1561.647019086715,None,1563.6528173501908,1565.1477921159415,1565.1646653332393,None,1566.665216919372,None,y,1.420787286180257,1568.6529212293947,None,1568.6529212293947,None,1568.6529212293947,None,1570.165890734628,None,1570.165890734628,1571.166294432852,1572.205459691914,None,1572.205459691914,None,left,0.5797964900648367,1572.205459691914,None,1572.8167402892384,1574.1507536063034,None,None,,,,,,,,001,2019_Oct_15_1124,Test,3.1.2,59.94528010619114,
Pictures/IA75_L15.bmp,Pictures/IA75_L15.bmp,Pictures/IA75.bmp,"

"Trust me, gamble!"",1,risk,6,0,6,0,0,15,15,10,,,,,,,,,,,,,,,,,,,,,,,,,1574.1674423913616,None,1576.1843516864662,1577.6682483882394,1577.6848351601868,None,1579.1852607850094,None,n,0.8205499190894443,1581.1727526713905,None,1581.1727526713905,None,1581.1727526713905,None,None,None,None,None,1582.1039429622303,None,1582.1039429622303,None,right,1.0732957978998456,1582.1039429622303,None,None,None,1583.2032206907468,None,,,,,,,,001,2019_Oct_15_1124,Test,3.1.2,59.94528010619114,
Pictures/IA50_G30.bmp,Pictures/IA50_G30.bmp,Pictures/IA50.bmp,"

"I think you should gamble."",1,risk,6,0,6,0,0,16,16,11,,,,,,,,,,,,,,,,,,,,,,,,,1584.07000898524,None,1586.0722688244512,1587.5710501098972,1587.5877569338593,None,1589.0883022996802,None,y,1.1833685662149946,1591.1055922778562,None,1591.1055922778562,None,1591.1055922778562,None,1592.3390511474452,None,1592.3390511474452,1593.3396713125137,1594.3762399024902,None,1594.3762399024902,None,right,0.2728328201055774,1594.3762399024902,None,None,None,1594.6731646115275,1596.3239370342737,,,,,,,,001,2019_Oct_15_1124,Test,3.1.2,59.94528010619114,
Pictures/IA20_10_L95p.bmp,Pictures/IA20_10_L95p.bmp,Pictures/IA20.bmp,"

"Don't be tempted to gamble."",0,safe,6,0,6,0,0,17,17,15,,,,,,,,,,,,,,,,,,,,,,,,,1596.3405567738725,None,1598.3576001166932,1599.8412893710736,1599.8579915298017,None,1601.341789950651,None,n,0.4069536241559035,1603.361997565992,None,1603.361997565992,None,1603.361997565992,None,None,None,None,None,1603.863893361466,None,1603.863893361466,None,right,0.769025833887099,1603.863893361466,None,None,None,1604.6596432091458,1605.8098609356032,,,,,,,,001,2019_Oct_15_1124,Test,3.1.2,59.94528010619114,
Pictures/IA25_L20.bmp,Pictures/IA25_L20.bmp,Pictures/IA25.bmp,"

"Don't be tempted to gamble."",0,safe,6,0,6,0,0,18,18,19,,,,,,,,,,,,,,,,,,,,,,,,,1605.826751258758,None,1607.829312472067,1609.3274148105,1609.3441378072719,None,1610.8278587852417,None,y,1.2994999180473314,1612.8451755107574,None,1612.8451755107574,None,1612.8451755107574,None,1614.1954241521637,None,1614.1954241521637,1615.1793766812336,1616.2461122274842,None,1616.2461122274842,None,right,0.26641874577990166,1616.2461122274842,None,None,None,1616.5295466356977,1618.163671638458,,,,,,,,001,2019_Oct_15_1124,Test,3.1.2,59.94528010619114,
Pictures/IA75_G60.bmp,Pictures/IA75_G60.bmp,Pictures/IA75.bmp,"

"Make it exciting, take a chance!"",1,risk,6,0,6,0,0,19,19,14,,,,,,,,,,,,,,,,,,,,,,,,,1618.1802636976706,None,1620.1818066459675,1621.6810326836942,1621.6977435508586,None,1623.183600272823,None,y,1.3135388503560534,1625.198790584812,None,1625.198790584812,None,1625.198790584812,None,1626.5824687359361,None,1626.5824687359361,1627.5831184474848,1628.6331182453248,None,1628.6331182453248,None,right,0.5352659012155527,1628.6331182453248,None,None,None,1629.2002772392887,1630.567375771824,,,,,,,,001,2019_Oct_15_1124,Test,3.1.2,59.94528010619114,
,,,,,,6,0,6,0,,,,,,,,,,,,,,,,,,,,,,,,,,,,,,,,,,,,,,,,,,,,,,,,,,,,,,,,,,,,,1630.68364552559,None,return,2.412663870221877,1630.68364552559,None,,001,2019_Oct_15_1124,Test,3.1.2,59.94528010619114,
Pictures/IA50_G20.bmp,Pictures/IA50_G20.bmp,Pictures/IA50.bmp,"

"Let's venture and take a risk!"",1,risk,7,0,7,0,0,0,0,5,,,,,,,1633.2010924111266,None,1633.2010924111266,None,1633.2010924111266,None,right,2.06306960559823,1633.2010924111266,None,1633.2010924111266,None,1633.2010924111266,None,return,2.7191435999370697,1633.2010924111266,None,1635.9686881953724,None,1637.9693575009026,1639.4531011830102,1639.4697479809645,None,1640.9533681898863,None,y,1.1894091108283646,1642.9706192911146,None,1642.9706192911146,None,1642.9706192911146,None,1644.2210322420522,None,1644.2210322420522,1645.221300337483,1646.271630122854,None,1646.271630122854,None,right,0.4083096520885192,1646.271630122854,None,None,None,1646.705190507929,1648.2058497054525,,,,,,,,001,2019_Oct_15_1124,Test,3.1.2,59.94528010619114,
Pictures/IA50_L40.bmp,Pictures/IA50_L40.bmp,Pictures/IA50.bmp,"

"That gamble doesn't sound too good, play it safe."",0,safe,7,0,7,0,0,1,1,19,,,,,,,,,,,,,,,,,,,,,,,,,1648.2225400455889,None,1650.2434763704357,1651.7234744919017,1651.7401866031284,None,1653.2236425958233,None,n,0.8063380621179022,1655.2577563398193,None,1655.2577563398193,None,1655.2577563398193,None,None,None,None,None,1656.194004988068,None,1656.194004988068,None,left,1.0379134213485486,1656.194004988068,None,1657.258423779256,None,None,None,,,,,,,,001,2019_Oct_15_1124,Test,3.1.2,59.94528010619114,
Pictures/IA50_L10.bmp,Pictures/IA50_L10.bmp,Pictures/IA50.bmp,"

"Play it safe, don’t gamble!"",0,safe,7,0,7,0,0,2,2,10,,,,,,,,,,,,,,,,,,,,,,,,,1658.1586988103343,None,1660.1756553798075,1661.6594587769061,1661.6761453848555,None,1663.176736469967,None,y,0.5346174337296361,1665.17721201279,None,1665.17721201279,None,1665.17721201279,None,1665.7782965863241,None,1665.7782965863241,1666.7775905809551,1667.8446977908254,None,1667.8446977908254,None,right,0.46694168737758446,1667.8446977908254,None,None,None,1668.3281024659493,1669.7620765017466,,,,,,,,001,2019_Oct_15_1124,Test,3.1.2,59.94528010619114,
Pictures/IA20_10_L95p.bmp,Pictures/IA20_10_L95p.bmp,Pictures/IA20.bmp,"

"Don't be tempted to gamble."",0,safe,7,0,7,0,0,3,3,17,,,,,,,,,,,,,,,,,,,,,,,,,1669.7784906600466,None,1671.7804659200012,1673.2795557329034,1673.2962498052264,None,1674.7833689394336,None,n,1.6708696275554757,1676.7845968289473,None,1676.7845968289473,None,1676.7845968289473,None,None,None,None,None,1678.5477737038193,None,1678.5477737038193,None,right,0.9955916651556436,1678.5477737038193,None,None,None,1679.564826377107,None,,,,,,,,001,2019_Oct_15_1124,Test,3.1.2,59.94528010619114,
Pictures/IA50_L20.bmp,Pictures/IA50_L20.bmp,Pictures/IA50.bmp,"

"Certainty is boring, take a risk!"",1,risk,7,0,7,0,0,4,4,7,,,,,,,,,,,,,,,,,,,,,,,,,1680.4983197383237,None,1682.4998570883406,1683.9994597659359,1683.9994597659359,None,1685.499836872328,None,y,0.7345774371260632,1687.5208559273194,None,1687.5208559273194,None,1687.5208559273194,None,1688.3173114693525,None,1688.3173114693525,1689.3176196857933,1690.3847287617566,None,1690.3847287617566,None,right,0.8465181650203704,1690.3847287617566,None,None,None,1691.2518470437815,1692.302178695246,,,,,,,,001,2019_Oct_15_1124,Test,3.1.2,59.94528010619114,
Pictures/IA25_G5.bmp,Pictures/IA25_G5.bmp,Pictures/IA25.bmp,"

"Let's stay with the certain option."",0,safe,7,0,7,0,0,5,5,14,,,,,,,,,,,,,,,,,,,,,,,,,1692.318829847419,None,1694.3208694875987,1695.8195083279086,1695.8362335017898,None,1697.336758029567,None,n,1.273524829773578,1699.3413762999287,None,1699.3413762999287,None,1699.3413762999287,None,None,None,None,None,1700.7044540230333,None,1700.7044540230333,None,left,1.1747521905604117,1700.7044540230333,None,1701.9048258110586,None,None,None,,,,,,,,001,2019_Oct_15_1124,Test,3.1.2,59.94528010619114,
Pictures/IA25_L5.bmp,Pictures/IA25_L5.bmp,Pictures/IA25.bmp,"

"It would be smarter to choose the safe option."",0,safe,7,0,7,0,0,6,6,13,,,,,,,,,,,,,,,,,,,,,,,,,1702.6548607225575,None,1704.6722828823556,1706.1558909616695,1706.1727800407618,None,1707.6564608977217,None,y,0.5963269681919883,1709.6904493024388,None,1709.6904493024388,None,1709.6904493024388,None,1710.3738478816574,None,1710.3738478816574,1711.3574001336744,1712.4259454795908,None,1712.4259454795908,None,left,0.5008818846799841,1712.4259454795908,None,1712.958237760837,1714.3415619762302,None,None,,,,,,,,001,2019_Oct_15_1124,Test,3.1.2,59.94528010619114,
Pictures/IA100_G20.bmp,Pictures/IA100_G20.bmp,Pictures/IA100.bmp,"

"Go ahead and gamble!"",1,risk,7,0,7,0,0,7,7,8,,,,,,,,,,,,,,,,,,,,,,,,,1714.3583120313576,None,1716.361443336227,1717.8593460026566,1717.8760120835775,None,1719.3764240237144,None,n,1.724922891462029,1721.3938915917872,None,1721.3938915917872,None,1721.3938915917872,None,None,None,None,None,1723.2275660573766,None,1723.2275660573766,None,None,,1723.2275660573766,None,None,None,None,None,,,,,,,,001,2019_Oct_15_1124,Test,3.1.2,59.94528010619114,
Pictures/IA50_L30.bmp,Pictures/IA50_L30.bmp,Pictures/IA50.bmp,"

"Take a leap, I think you should gamble."",1,risk,7,0,7,0,0,8,8,11,,,,,,,,,,,,,,,,,,,,,,,,,1725.1781248435202,None,1727.1847933285915,1728.6794903574284,1728.6960143042286,None,1730.179686452752,None,y,1.3216523138162302,1732.196875039849,None,1732.196875039849,None,1732.196875039849,None,1733.582688001921,None,1733.582688001921,1734.580921433421,1735.6480155806364,None,1735.6480155806364,None,right,0.3185172767603035,1735.6480155806364,None,None,None,1735.9983314014082,1737.5654642700636,,,,,,,,001,2019_Oct_15_1124,Test,3.1.2,59.94528010619114,
Pictures/IA75_G45.bmp,Pictures/IA75_G45.bmp,Pictures/IA75.bmp,"

"Don't gamble for this one."",0,safe,7,0,7,0,0,9,9,15,,,,,,,,,,,,,,,,,,,,,,,,,1737.5820140311569,None,1739.5831386634975,1741.0829851773085,1741.0994531413041,None,1742.5999204422144,None,y,0.9729979382777856,1744.6171827400037,None,1744.6171827400037,None,1744.6171827400037,None,1745.6508290275817,None,1745.6508290275817,1746.6514790501458,1747.7180743283695,None,1747.7180743283695,None,right,0.552114237267233,1747.7180743283695,None,None,None,1748.301884163491,1749.635323656809,,,,,,,,001,2019_Oct_15_1124,Test,3.1.2,59.94528010619114,
Pictures/IA25_G10.bmp,Pictures/IA25_G10.bmp,Pictures/IA25.bmp,"

"What's life without a little risk?"",1,risk,7,0,7,0,0,10,10,3,,,,,,,,,,,,,,,,,,,,,,,,,1749.652066247563,None,1751.6738581762731,1753.1533919514766,1753.1700499459923,None,1754.6534891438457,None,y,0.46088465893853936,1756.6729739589766,None,1756.6729739589766,None,1756.6729739589766,None,1757.1903676608488,None,1757.1903676608488,1758.188093203905,1759.2572537386407,None,1759.2572537386407,None,right,0.436910955928397,1759.2572537386407,None,None,None,1759.721623327164,1761.1720342253986,,,,,,,,001,2019_Oct_15_1124,Test,3.1.2,59.94528010619114,
Pictures/IA75_L30.bmp,Pictures/IA75_L30.bmp,Pictures/IA75.bmp,"

"Hold back, stay with the safe choice."",0,safe,7,0,7,0,0,11,11,16,,,,,,,,,,,,,,,,,,,,,,,,,1761.189263866552,None,1763.194165161092,1764.6897653791764,1764.7064190194735,None,1766.206941992173,None,n,0.525521161033339,1768.2242814218264,None,1768.2242814218264,None,1768.2242814218264,None,None,None,None,None,1768.857622354307,None,1768.857622354307,None,right,1.452019470819323,1768.857622354307,None,None,None,1770.3414170429694,None,,,,,,,,001,2019_Oct_15_1124,Test,3.1.2,59.94528010619114,
Pictures/IA50_G10.bmp,Pictures/IA50_G10.bmp,Pictures/IA50.bmp,"

"Go with the safe option here!"",0,safe,7,0,7,0,0,12,12,2,,,,,,,,,,,,,,,,,,,,,,,,,1770.8083434905836,None,1772.8254969329198,1774.309455215778,1774.3258970544646,None,1775.8264147398993,None,n,0.8339910794511525,1777.8438023769675,None,1777.8438023769675,None,1777.8438023769675,None,None,None,None,None,1778.7773965072327,None,1778.7773965072327,None,left,0.9003428324745073,1778.7773965072327,None,1779.6945232955334,1780.7112307415266,None,None,,,,,,,,001,2019_Oct_15_1124,Test,3.1.2,59.94528010619114,
Pictures/IA25_L10.bmp,Pictures/IA25_L10.bmp,Pictures/IA25.bmp,"

"Dont be afraid to take the risk!"",1,risk,7,0,7,0,0,13,13,6,,,,,,,,,,,,,,,,,,,,,,,,,1780.7279344553324,None,1782.728925661989,1784.2291410402788,1784.245810542371,None,1785.7326758878642,None,y,0.9275380348731233,1787.7338222912952,None,1787.7338222912952,None,1787.7338222912952,None,1788.7302807568751,None,1788.7302807568751,1789.7305696903497,1790.7678573483497,None,1790.7678573483497,None,left,0.4215380777932296,1790.7678573483497,None,1791.2145245520367,1792.7150130020066,None,None,,,,,,,,001,2019_Oct_15_1124,Test,3.1.2,59.94528010619114,
Pictures/IA25_G20.bmp,Pictures/IA25_G20.bmp,Pictures/IA25.bmp,"

"I wouldn't gamble for this one. "",0,safe,7,0,7,0,0,14,14,9,,,,,,,,,,,,,,,,,,,,,,,,,1792.7316741066777,None,1794.7495851829688,1796.232607619944,1796.2490538128488,None,1797.7337631983348,None,n,0.7270972013884602,1799.750267240138,None,1799.750267240138,None,1799.750267240138,None,None,None,None,None,1800.583736435444,None,1800.583736435444,None,right,0.9493604431099811,1800.583736435444,None,None,None,1801.55061420912,None,,,,,,,,001,2019_Oct_15_1124,Test,3.1.2,59.94528010619114,
Pictures/IA25_L20.bmp,Pictures/IA25_L20.bmp,Pictures/IA25.bmp,"

"Don't be tempted to gamble."",0,safe,7,0,7,0,0,15,15,18,,,,,,,,,,,,,,,,,,,,,,,,,1802.5345720254547,None,1804.5367873894377,1806.035396372252,1806.0521056843384,None,1807.5392011813617,None,n,0.9314512329124227,1809.5695653215141,None,1809.5695653215141,None,1809.5695653215141,None,None,None,None,None,1810.586802427041,None,1810.586802427041,None,left,0.842134089391493,1810.586802427041,None,1811.4536165358275,1812.5206867348431,None,None,,,,,,,,001,2019_Oct_15_1124,Test,3.1.2,59.94528010619114,
Pictures/IA80_40_L95p.bmp,Pictures/IA80_40_L95p.bmp,Pictures/IA80.bmp,"

"Let's stay with the certain option."",0,safe,7,0,7,0,0,16,16,12,,,,,,,,,,,,,,,,,,,,,,,,,1812.5371466124336,None,1814.5566059242872,1816.038537940635,1816.0549188202683,None,1817.555451745466,None,n,0.8406122901542403,1819.5560974138123,None,1819.5560974138123,None,1819.5560974138123,None,None,None,None,None,1820.4788420765515,None,1820.4788420765515,None,right,0.38205185065135083,1820.4788420765515,None,None,None,1820.8898485447423,1822.423735713888,,,,,,,,001,2019_Oct_15_1124,Test,3.1.2,59.94528010619114,
Pictures/IA80_40_G95p.bmp,Pictures/IA80_40_G95p.bmp,Pictures/IA80.bmp,"

"Think of the payoff, gamble!"",1,risk,7,0,7,0,0,17,17,0,,,,,,,,,,,,,,,,,,,,,,,,,1822.4404120583229,None,1824.4595311191304,1825.941104223498,1825.9578334405817,None,1827.4584425645974,None,y,0.9691432111671929,1829.4755210521782,None,1829.4755210521782,None,1829.4755210521782,None,1830.511296241408,None,1830.511296241408,1831.5093974912863,1832.5764213489804,None,1832.5764213489804,None,right,0.26016950971188635,1832.5764213489804,None,None,None,1832.8600899519263,1834.4937633600632,,,,,,,,001,2019_Oct_15_1124,Test,3.1.2,59.94528010619114,
Pictures/IA25_G15.bmp,Pictures/IA25_G15.bmp,Pictures/IA25.bmp,"

"I think you should take a gamble."",1,risk,7,0,7,0,0,18,18,4,,,,,,,,,,,,,,,,,,,,,,,,,1834.5104030046593,None,1836.5120299271632,1838.0115094425885,1838.0115094425885,None,1839.5287208893303,None,n,0.4583719640600066,1841.5459290704086,None,1841.5459290704086,None,1841.5459290704086,None,None,None,None,None,1842.0958099047887,None,1842.0958099047887,None,left,1.2124858449033127,1842.0958099047887,None,1843.3295636171486,None,None,None,,,,,,,,001,2019_Oct_15_1124,Test,3.1.2,59.94528010619114,
Pictures/IA20_10_G95p.bmp,Pictures/IA20_10_G95p.bmp,Pictures/IA20.bmp,"

"Take a leap, I think you should gamble."",1,risk,7,0,7,0,0,19,19,1,,,,,,,,,,,,,,,,,,,,,,,,,1844.0464019695994,None,1846.0638409242385,1847.5473995520754,1847.5640867820555,None,1849.0645609253086,None,y,0.8506189054551214,1851.081816380755,None,1851.081816380755,None,1851.081816380755,None,1851.9825756630928,None,1851.9825756630928,1852.982355153046,1854.051000956995,None,1854.051000956995,None,right,0.4173533631515056,1854.051000956995,None,None,None,1854.4997161982822,1855.9669353115585,,,,,,,,001,2019_Oct_15_1124,Test,3.1.2,59.94528010619114,
,,,,,,7,0,7,0,,,,,,,,,,,,,,,,,,,,,,,,,,,,,,,,,,,,,,,,,,,,,,,,,,,,,,,,,,,,,1856.083398206,None,return,2.1768835803368347,1856.083398206,None,,001,2019_Oct_15_1124,Test,3.1.2,59.94528010619114,
Pictures/IA25_G20.bmp,Pictures/IA25_G20.bmp,Pictures/IA25.bmp,"

"I wouldn't gamble for this one. "",0,safe,8,0,8,0,0,0,0,16,,,,,,,1858.3839810803004,None,1858.3839810803004,None,1858.3839810803004,None,left,1.6679743835129557,1858.3839810803004,None,1858.3839810803004,None,1858.3839810803004,None,return,2.636237420585985,1858.3839810803004,None,1861.068057051454,None,1863.0686601106656,1864.5527863419372,1864.5694729498862,None,1866.0550964101647,None,n,1.1407628527967972,1868.0870206044713,None,1868.0870206044713,None,1868.0870206044713,None,None,None,None,None,1869.3206772799697,None,1869.3206772799697,None,right,0.8751863372099251,1869.3206772799697,None,None,None,1870.2207787643536,1871.25476934618,,,,,,,,001,2019_Oct_15_1124,Test,3.1.2,59.94528010619114,
Pictures/IA25_G10.bmp,Pictures/IA25_G10.bmp,Pictures/IA25.bmp,"

"What's life without a little risk?"",1,risk,8,0,8,0,0,1,1,5,,,,,,,,,,,,,,,,,,,,,,,,,1871.2714394703032,None,1873.292234283061,1874.7723135795934,1874.7889348742704,None,1876.2725476188182,None,n,1.1195260868985315,1878.3082382118098,None,1878.3082382118098,None,1878.3082382118098,None,None,None,None,None,1879.5402642326173,None,1879.5402642326173,None,None,,1879.5402642326173,None,None,None,None,None,,,,,,,,001,2019_Oct_15_1124,Test,3.1.2,59.94528010619114,
Pictures/IA50_G20.bmp,Pictures/IA50_G20.bmp,Pictures/IA50.bmp,"

"Let's venture and take a risk!"",1,risk,8,0,8,0,0,2,2,11,,,,,,,,,,,,,,,,,,,,,,,,,1881.4908783795343,None,1883.5082290057483,1884.992139392207,1885.0087796588348,None,1886.4922847919913,None,n,1.3789438719513782,1888.4964520897604,None,1888.4964520897604,None,1888.4964520897604,None,None,None,None,None,1889.9455772495833,None,1889.9455772495833,None,left,0.6178430260820278,1889.9455772495833,None,1890.5936805366139,1891.8937748054366,None,None,,,,,,,,001,2019_Oct_15_1124,Test,3.1.2,59.94528010619114,
Pictures/IA75_G30.bmp,Pictures/IA75_G30.bmp,Pictures/IA75.bmp,"

"Be bold, gamble!"",1,risk,8,0,8,0,0,3,3,15,,,,,,,,,,,,,,,,,,,,,,,,,1891.9105995043035,None,1893.9174194539626,1895.4118763787708,1895.428353673234,None,1896.9285982869885,None,y,0.4876456835859244,1898.9155975246892,None,1898.9155975246892,None,1898.9155975246892,None,1899.4626851281366,None,1899.4626851281366,1900.4463941320066,1901.5135137824998,None,1901.5135137824998,None,right,0.24166905889478585,1901.5135137824998,None,None,None,1901.7801368655166,1903.4305478881577,,,,,,,,001,2019_Oct_15_1124,Test,3.1.2,59.94528010619114,
Pictures/IA25_G5.bmp,Pictures/IA25_G5.bmp,Pictures/IA25.bmp,"

"Let's stay with the certain option."",0,safe,8,0,8,0,0,4,4,0,,,,,,,,,,,,,,,,,,,,,,,,,1903.447500725444,None,1905.4645313166254,1906.9481804499958,1906.9650872569762,None,1908.4655890806164,None,n,0.9523636095600523,1910.4826532614804,None,1910.4826532614804,None,1910.4826532614804,None,None,None,None,None,1911.5330380966095,None,1911.5330380966095,None,right,0.9901821711559933,1911.5330380966095,None,None,None,1912.5502083337867,None,,,,,,,,001,2019_Oct_15_1124,Test,3.1.2,59.94528010619114,
Pictures/IA100_G60.bmp,Pictures/IA100_G60.bmp,Pictures/IA100.bmp,"

