Choice,Choice2,AdviceVar,Amount,AdviceVar2,AdviceVar1,GambleAdvice,GamblePercent,trials_2.thisRepN,trials_2.thisTrialN,trials_2.thisN,trials_2.thisIndex,trials.thisRepN,trials.thisTrialN,trials.thisN,trials.thisIndex,instructions.started,instructions.stopped,space.keys,space.rt,space.started,space.stopped,chooseInst.started,chooseInst.stopped,Ad1.started,Ad1.stopped,Ad2.started,Ad2.stopped,key_resp_3.keys,key_resp_3.rt,key_resp_3.started,key_resp_3.stopped,Ad1pic.started,Ad1pic.stopped,Ad2pic.started,Ad2pic.stopped,enter.keys,enter.rt,enter.started,enter.stopped,iSi.started,iSi.stopped,receiveMoneyPicture.started,receiveMoneyPicture.stopped,ISI2.started,ISI2.stopped,ChoicePic.started,ChoicePic.stopped,text_3.started,text_3.stopped,ask.started,ask.stopped,response.keys,response.rt,response.started,response.stopped,Advice.started,Advice.stopped,blank.started,blank.stopped,ChoicePic2.started,ChoicePic2.stopped,resp.keys,resp.started,resp.stopped,checkL1.started,checkL1.stopped,checkR1.started,checkR1.stopped,nGamble,resp.rt,participant,session,date,expName,psychopyVersion,frameRate,
,,,,,,,,,,,,,,,,5.090723867004272,None,space,2.9120668758114334,5.090723867004272,None,,,,,,,,,,,,,,,,,,,,,,,,,,,,,,,,,,,,,,,,,,,,,,,,,,,001,2019_Jul_17_1321,Test,3.1.2,59.984757896620295,
Pictures\IA25_L10.bmp,Pictures\IA25_L10.bmp,"Advisor 1 says:

"Dont be afraid to take the risk!"",Pictures\IA25.bmp,"Advisor 2 says:

"Be bold, gamble!"","

"Dont be afraid to take the risk!"",1,60,0,0,0,0,0,0,0,25,,,,,,,8.110495127475588,None,8.110495127475588,None,8.110495127475588,None,left,1.7243801692675333,8.110495127475588,None,8.110495127475588,None,8.110495127475588,None,return,2.3802859041898046,8.110495127475588,None,10.54135776340263,None,13.647516400611494,15.526229032489937,15.542912219272694,None,17.576513098581927,None,22.778170314006275,24.261808250797912,22.778170314006275,24.261808250797912,y,1.400403947016457,22.778170314006275,25.529240285337437,24.248554943857016,None,27.39604257553583,None,27.39604257553583,None,None,27.39604257553583,None,None,None,None,None,0,,,001,2019_Jul_17_1321,Test,3.1.2,59.984757896620295,
Pictures\IA100_L20.bmp,Pictures\IA100_L20.bmp,"Advisor 1 says:

"Try to win as much money as you can, gamble!"",Pictures\IA100.bmp,"Advisor 2 says:

"I wouldn't gamble for this one. "","

"Try to win as much money as you can, gamble!"",1,35,0,0,0,0,0,1,1,20,,,,,,,,,,,,,,,,,,,,,,,,,30.19727656096802,None,33.23134178653709,35.19869230387849,35.21542369807139,None,37.21585445466917,None,41.26681902282871,None,41.26681902282871,None,n,0.9354729753977153,41.26681902282871,None,None,None,42.367101331677986,None,42.367101331677986,None,right,42.367101331677986,None,None,None,43.4678545180941,45.218346311477944,107,1.0751749540213495,,001,2019_Jul_17_1321,Test,3.1.2,59.984757896620295,
Pictures\IA25_L5.bmp,Pictures\IA25_L5.bmp,"Advisor 1 says:

"Let's stay with the certain option."",Pictures\IA25.bmp,"Advisor 2 says:

"Take a chance!"","

"Let's stay with the certain option."",0,60,0,0,0,0,0,2,2,8,,,,,,,,,,,,,,,,,,,,,,,,,45.23502452202956,None,48.26901728095254,50.23649251557072,50.253051296109334,None,52.25358935305849,None,56.288243331131525,None,56.288243331131525,None,n,0.6496910215646494,56.288243331131525,None,None,None,57.07162999844877,None,57.07162999844877,None,right,57.07162999844877,None,None,None,57.95534251679783,59.93935165068251,121,0.8503871988214087,,001,2019_Jul_17_1321,Test,3.1.2,59.984757896620295,
Pictures\IA25_L10.bmp,Pictures\IA25_L10.bmp,"Advisor 1 says:

"What's life without a little risk?"",Pictures\IA25.bmp,"Advisor 2 says:

"Don't gamble for this one, play it safe."","

"What's life without a little risk?"",1,65,0,0,0,0,0,3,3,9,,,,,,,,,,,,,,,,,,,,,,,,,59.956028928165324,None,62.99005994203617,64.95741263648961,64.97412816889118,None,66.97459531429922,None,71.01015901291976,None,71.01015901291976,None,n,0.5917752551613376,71.01015901291976,None,None,None,71.7093870411627,None,71.7093870411627,None,left,71.7093870411627,None,72.67630493585602,74.61024833659758,None,None,0,0.9402417773089837,,001,2019_Jul_17_1321,Test,3.1.2,59.984757896620295,
Pictures\IA25_L15.bmp,Pictures\IA25_L15.bmp,"Advisor 1 says:

"I think you should take a gamble."",Pictures\IA25.bmp,"Advisor 2 says:

"Think of the payoff, gamble!"","

"I think you should take a gamble."",1,70,0,0,0,0,0,4,4,10,,,,,,,,,,,,,,,,,,,,,,,,,74.62695484954747,None,77.64910631228122,79.62845767685212,79.64511940354714,None,81.64552403480047,None,85.68006355914986,86.69681610239786,85.68006355914986,86.69681610239786,y,0.9610729788837489,85.68006355914986,89.63140268338611,86.68016432819422,None,89.7360158841766,None,89.7360158841766,None,right,89.7360158841766,None,None,None,90.49827806223766,92.64894054096658,131,0.7292739994300064,,001,2019_Jul_17_1321,Test,3.1.2,59.984757896620295,
Pictures\IA100_L60.bmp,Pictures\IA100_L60.bmp,"Advisor 1 says:

"You'd have a lot to lose, don't gamble."",Pictures\IA100.bmp,"Advisor 2 says:

"Make it exciting, take a chance!"","

"You'd have a lot to lose, don't gamble."",0,45,0,0,0,0,0,5,5,22,,,,,,,,,,,,,,,,,,,,,,,,,92.66561626337352,None,95.68631217317306,97.66705999770784,97.68376060135779,None,99.68429803627077,None,103.71848175878404,None,103.71848175878404,None,n,0.7466174722940195,103.71848175878404,None,None,None,104.55228311871178,None,104.55228311871178,None,right,104.55228311871178,None,None,None,105.50272371893516,107.46991997258738,120,0.920679830305744,,001,2019_Jul_17_1321,Test,3.1.2,59.984757896620295,
Pictures\IA50_L40.bmp,Pictures\IA50_L40.bmp,"Advisor 1 says:

"That gamble doesn't sound too good, play it safe."",Pictures\IA50.bmp,"Advisor 2 says:

"Let's venture and take a risk!"","

"That gamble doesn't sound too good, play it safe."",0,30,0,0,0,0,0,6,6,19,,,,,,,,,,,,,,,,,,,,,,,,,107.48665883115609,None,110.50670285228989,112.48813335600425,112.50468405016,None,114.5052923966432,None,118.53966459457297,None,118.53966459457297,None,n,1.165207744401414,118.53966459457297,None,None,None,119.79026944213547,None,119.79026944213547,None,left,119.79026944213547,None,121.04062547720969,122.70775669749128,None,None,0,1.2264610190177336,,001,2019_Jul_17_1321,Test,3.1.2,59.984757896620295,
Pictures\IA100_L40.bmp,Pictures\IA100_L40.bmp,"Advisor 1 says:

"Think of the payoff, gamble!"",Pictures\IA100.bmp,"Advisor 2 says:

"I think you should take a gamble."","

"Think of the payoff, gamble!"",1,40,0,0,0,0,0,7,7,21,,,,,,,,,,,,,,,,,,,,,,,,,122.72447129682405,None,125.7451700057718,127.7259336920979,127.74261221365305,None,129.74318541536923,None,133.7773563862138,None,133.7773563862138,None,n,1.2391731588577386,133.7773563862138,None,None,None,135.12774000837817,None,135.12774000837817,None,left,135.12774000837817,None,136.0783364274248,138.02896612510085,None,None,0,0.9288032462354749,,001,2019_Jul_17_1321,Test,3.1.2,59.984757896620295,
Pictures\IA25_L20.bmp,Pictures\IA25_L20.bmp,"Advisor 1 says:

"Don't be tempted to gamble."",Pictures\IA25.bmp,"Advisor 2 says:

"Take a leap, I think you should gamble."","

"Don't be tempted to gamble."",0,70,0,0,0,0,0,8,8,27,,,,,,,,,,,,,,,,,,,,,,,,,138.04554138949607,None,141.06753454526188,143.04711512831273,143.06365182675654,None,145.06411244082847,None,149.09854248768534,None,149.09854248768534,None,n,0.7416940956609324,149.09854248768534,None,None,None,149.93755802384112,None,149.93755802384112,None,left,149.93755802384112,None,150.98277409104048,152.84996483969735,None,None,0,1.0145975163031835,,001,2019_Jul_17_1321,Test,3.1.2,59.984757896620295,
Pictures\IA50_L20.bmp,Pictures\IA50_L20.bmp,"Advisor 1 says:

"Certainty is boring, take a risk!"",Pictures\IA50.bmp,"Advisor 2 says:

"You'd have a lot to lose, don't gamble."","

"Certainty is boring, take a risk!"",1,20,0,0,0,0,0,9,9,17,,,,,,,,,,,,,,,,,,,,,,,,,152.8666719746543,None,155.88912450047792,157.8681219292921,157.88479982881108,None,159.88511271050083,None,163.91976388939656,None,163.91976388939656,None,n,0.8482682497124188,163.91976388939656,None,None,None,164.85310298690456,None,164.85310298690456,None,left,164.85310298690456,None,165.9370846581296,167.77104401399265,None,None,0,1.0668176543549635,,001,2019_Jul_17_1321,Test,3.1.2,59.984757896620295,
Pictures\IA75_L60.bmp,Pictures\IA75_L60.bmp,"Advisor 1 says:

"Why not take the gamble?"",Pictures\IA75.bmp,"Advisor 2 says:

"It would be smarter to choose the safe option."","

"Why not take the gamble?"",1,90,0,0,0,0,0,10,10,31,,,,,,,,,,,,,,,,,,,,,,,,,167.78771413810318,None,170.80579782804125,172.78918150960817,172.80585101171164,None,174.80642017023638,None,178.82610465737525,None,178.82610465737525,None,n,1.2294651185220573,178.82610465737525,None,None,None,180.14232259592973,None,180.14232259592973,None,right,180.14232259592973,None,None,None,181.50836958480068,183.05887151727802,95,1.3452496879908722,,001,2019_Jul_17_1321,Test,3.1.2,59.984757896620295,
Pictures\IA50_G10.bmp,Pictures\IA50_G10.bmp,"Advisor 1 says:

"Go with the safe option here!"",Pictures\IA50.bmp,"Advisor 2 says:

"Try your luck and gamble!"","

"Go with the safe option here!"",0,20,0,0,0,0,0,11,11,0,,,,,,,,,,,,,,,,,,,,,,,,,183.07548907978344,None,186.09831358020892,188.0769984383951,188.09368411329342,None,190.09407288275543,None,194.1288155002694,None,194.1288155002694,None,n,1.6310104927397333,194.1288155002694,None,None,None,195.8455978699203,None,195.8455978699203,None,left,195.8455978699203,None,197.396425435727,198.76346922951052,None,None,0,1.529816597205354,,001,2019_Jul_17_1321,Test,3.1.2,59.984757896620295,
Pictures\IA25_L20.bmp,Pictures\IA25_L20.bmp,"Advisor 1 says:

"I wouldn't gamble for this one. "",Pictures\IA25.bmp,"Advisor 2 says:

"Why not gamble?"","

"I wouldn't gamble for this one. "",0,75,0,0,0,0,0,12,12,11,,,,,,,,,,,,,,,,,,,,,,,,,198.7801480620692,None,201.8037308185012,203.7816092132707,203.79810547968373,None,205.79878909193212,None,209.83319363550982,None,209.83319363550982,None,n,0.7899895281007048,209.83319363550982,None,None,None,210.71863011320238,None,210.71863011320238,None,left,210.71863011320238,None,211.61727231249097,213.6344596555282,None,None,0,0.8808275378250983,,001,2019_Jul_17_1321,Test,3.1.2,59.984757896620295,
Pictures\IA25_L15.bmp,Pictures\IA25_L15.bmp,"Advisor 1 says:

"There's not much on the line here, gamble!"",Pictures\IA25.bmp,"Advisor 2 says:

"Go all in!"","

"There's not much on the line here, gamble!"",1,65,0,0,0,0,0,13,13,26,,,,,,,,,,,,,,,,,,,,,,,,,213.6511901166814,None,216.67256870566052,218.652654067002,218.66923990589567,None,220.66990516823716,None,224.70408640260575,None,224.70408640260575,None,n,1.1268153590790462,224.70408640260575,None,None,None,225.9265474502463,None,225.9265474502463,None,right,225.9265474502463,None,None,None,226.85505274357274,228.8389816354611,121,0.9043123243318405,,001,2019_Jul_17_1321,Test,3.1.2,59.984757896620295,
Pictures\IA100_L20.bmp,Pictures\IA100_L20.bmp,"Advisor 1 says:

"Go ahead and gamble!"",Pictures\IA100.bmp,"Advisor 2 says:

"Be cautious, don't gamble for this one."","

"Go ahead and gamble!"",1,40,0,0,0,0,0,14,14,4,,,,,,,,,,,,,,,,,,,,,,,,,228.85568068403518,None,231.87818919264828,233.85705723898718,233.87381786864717,None,235.87421472452115,None,239.9087530047982,None,239.9087530047982,None,n,0.5937377634982113,239.9087530047982,None,None,None,240.5958731964638,None,240.5958731964638,None,right,240.5958731964638,None,None,None,241.75946645898512,243.5099797124567,107,1.1468046414665878,,001,2019_Jul_17_1321,Test,3.1.2,59.984757896620295,
Pictures\IA50_G30.bmp,Pictures\IA50_G30.bmp,"Advisor 1 says:

"I think you should gamble."",Pictures\IA50.bmp,"Advisor 2 says:

"Don't be tempted to gamble."","

"I think you should gamble."",1,30,0,0,0,0,0,15,15,2,,,,,,,,,,,,,,,,,,,,,,,,,243.5266062943847,None,246.54948460051673,248.52810538950143,248.54476369501208,None,250.54518729823758,None,254.5797722308489,None,254.5797722308489,None,n,0.6664895951398648,254.5797722308489,None,None,None,255.35154371027602,None,255.35154371027602,None,left,255.35154371027602,None,256.246903762134,258.2476405580528,None,None,0,0.8630237619217951,,001,2019_Jul_17_1321,Test,3.1.2,59.984757896620295,
Pictures\IA75_L15.bmp,Pictures\IA75_L15.bmp,"Advisor 1 says:

"Take a chance!"",Pictures\IA75.bmp,"Advisor 2 says:

"I don't think you should gamble."","

"Take a chance!"",1,80,0,0,0,0,0,16,16,12,,,,,,,,,,,,,,,,,,,,,,,,,258.26430072967196,None,261.28514312781044,263.2656996777514,263.2823859746859,None,265.28300116350874,None,269.3007492676261,None,269.3007492676261,None,n,0.7612535545194987,269.3007492676261,None,None,None,270.15074365379405,None,270.15074365379405,None,left,270.15074365379405,None,270.9180246902688,273.068669441127,None,None,0,0.7433630052546505,,001,2019_Jul_17_1321,Test,3.1.2,59.984757896620295,
Pictures\IA75_L15.bmp,Pictures\IA75_L15.bmp,"Advisor 1 says:

"Trust me, gamble!"",Pictures\IA75.bmp,"Advisor 2 says:

"Play it safe, don’t gamble!"","

"Trust me, gamble!"",1,75,0,0,0,0,0,17,17,28,,,,,,,,,,,,,,,,,,,,,,,,,273.0853137509548,None,276.1057076646248,278.08678236653213,278.10335483175004,None,280.10397592987283,None,284.12173771869857,None,284.12173771869857,None,n,0.5880275173985865,284.12173771869857,None,None,None,284.82175634853775,None,284.82175634853775,None,left,284.82175634853775,None,285.9055461231328,287.7228188710578,None,None,0,1.0639777710894123,,001,2019_Jul_17_1321,Test,3.1.2,59.984757896620295,
Pictures\IA100_L80.bmp,Pictures\IA100_L80.bmp,"Advisor 1 says:

"Go all in!"",Pictures\IA100.bmp,"Advisor 2 says:

"There's not much on the line here, gamble!"","

"Go all in!"",1,50,0,0,0,0,0,18,18,23,,,,,,,,,,,,,,,,,,,,,,,,,287.73958914220566,None,290.77366836345755,292.74111809479655,292.75755931143067,None,294.75818040955346,None,298.77600968876504,None,298.77600968876504,None,n,0.6055028608825523,298.77600968876504,None,None,None,299.4927401187888,None,299.4927401187888,None,right,299.4927401187888,None,None,None,300.42661820628564,302.39393668904086,120,0.9046357805491425,,001,2019_Jul_17_1321,Test,3.1.2,59.984757896620295,
Pictures\IA100_L80.bmp,Pictures\IA100_L80.bmp,"Advisor 1 says:

"Why not gamble?"",Pictures\IA100.bmp,"Advisor 2 says:

"That gamble doesn't sound too good, play it safe."","

"Why not gamble?"",1,55,0,0,0,0,0,19,19,7,,,,,,,,,,,,,,,,,,,,,,,,,302.41061925378744,None,305.44469691996346,307.4120194459392,307.4287598595838,None,309.4291688450612,None,313.4636834881385,None,313.4636834881385,None,n,0.5415764073550235,313.4636834881385,None,None,None,314.0975780283625,None,314.0975780283625,None,right,314.0975780283625,None,None,None,314.99765991876484,317.0149072878121,123,0.8675446843844838,,001,2019_Jul_17_1321,Test,3.1.2,59.984757896620295,
Pictures\IA100_L40.bmp,Pictures\IA100_L40.bmp,"Advisor 1 says:

"Try your luck and gamble!"",Pictures\IA100.bmp,"Advisor 2 says:

"Go with the safe option here!"","

"Try your luck and gamble!"",1,45,0,0,0,0,0,20,20,5,,,,,,,,,,,,,,,,,,,,,,,,,317.03158207715023,None,320.0524782809953,322.03305784609984,322.0496508383658,None,324.0502968177025,None,328.0846344929305,None,328.0846344929305,None,n,1.6002681576355826,328.0846344929305,None,None,None,329.78512431136915,None,329.78512431136915,None,right,329.78512431136915,None,None,None,331.0023117788078,332.68619181014947,103,1.187750464741839,,001,2019_Jul_17_1321,Test,3.1.2,59.984757896620295,
Pictures\IA50_G20.bmp,Pictures\IA50_G20.bmp,"Advisor 1 says:

"Let's venture and take a risk!"",Pictures\IA50.bmp,"Advisor 2 says:

"Don't gamble for this one."","

"Let's venture and take a risk!"",1,25,0,0,0,0,0,21,21,1,,,,,,,,,,,,,,,,,,,,,,,,,332.7028718867805,None,335.72482398850843,337.70425559507567,337.7210128035804,None,339.7215617460606,None,343.7427947797987,None,343.7427947797987,None,n,0.7658034014457371,343.7427947797987,None,None,None,344.6067640290421,None,344.6067640290421,None,left,344.6067640290421,None,345.8400630366232,347.523875577579,None,None,0,1.2058811180468183,,001,2019_Jul_17_1321,Test,3.1.2,59.984757896620295,
Pictures\IA75_L60.bmp,Pictures\IA75_L60.bmp,"Advisor 1 says:

"Make it exciting, take a chance!"",Pictures\IA75.bmp,"Advisor 2 says:

"Let's stay with the certain option."","

"Make it exciting, take a chance!"",1,95,0,0,0,0,0,22,22,15,,,,,,,,,,,,,,,,,,,,,,,,,347.54052983992733,None,350.5600948970823,352.54202147063916,352.5585547479277,None,354.5592731939105,None,358.59353218218894,None,358.59353218218894,None,n,0.8909305679553654,358.59353218218894,None,None,None,359.57704897841904,None,359.57704897841904,None,left,359.57704897841904,None,360.49435708881356,362.49486995348707,None,None,0,0.8993730858783238,,001,2019_Jul_17_1321,Test,3.1.2,59.984757896620295,
Pictures\IA50_G40.bmp,Pictures\IA50_G40.bmp,"Advisor 1 says:

"It would probably be best to play it safe."",Pictures\IA50.bmp,"Advisor 2 says:

"What's life without a little risk?"","

"It would probably be best to play it safe."",0,35,0,0,0,0,0,23,23,3,,,,,,,,,,,,,,,,,,,,,,,,,362.51163151618675,None,365.5305649007205,367.5130911123124,367.52977803128306,None,369.5303391033958,None,373.56467397947563,None,373.56467397947563,None,n,0.855459551938111,373.56467397947563,None,None,None,374.514746959263,None,374.514746959263,None,right,374.514746959263,None,None,None,375.61537449542084,377.43263355863746,111,1.0733194350614212,,001,2019_Jul_17_1321,Test,3.1.2,59.984757896620295,
Pictures\IA75_L45.bmp,Pictures\IA75_L45.bmp,"Advisor 1 says:

"Don't gamble for this one."",Pictures\IA75.bmp,"Advisor 2 says:

"Trust me, gamble!"","

"Don't gamble for this one."",0,90,0,0,0,0,0,24,24,14,,,,,,,,,,,,,,,,,,,,,,,,,377.449346913927,None,380.46903109003324,382.4508270370716,382.46739639216685,None,384.46792107544024,None,388.5022170745651,None,388.5022170745651,None,n,0.8695075037248898,388.5022170745651,None,None,None,389.47521439081174,None,389.47521439081174,None,right,389.47521439081174,None,None,None,390.3030622905062,392.38707350823097,127,0.8086448646790814,,001,2019_Jul_17_1321,Test,3.1.2,59.984757896620295,
Pictures\IA75_L30.bmp,Pictures\IA75_L30.bmp,"Advisor 1 says:

"Hold back, stay with the safe choice."",Pictures\IA75.bmp,"Advisor 2 says:

"Try to win as much money as you can, gamble!"","

"Hold back, stay with the safe choice."",0,80,0,0,0,0,0,25,25,29,,,,,,,,,,,,,,,,,,,,,,,,,392.4036350878887,None,395.42508023424307,397.4052016733913,397.42176729626954,None,399.4221980528382,None,403.45660477352794,None,403.45660477352794,None,n,1.155158830981236,403.45660477352794,None,None,None,404.7238103887357,None,404.7238103887357,None,right,404.7238103887357,None,None,None,405.7743305156182,407.62485207320424,113,1.0317201680736616,,001,2019_Jul_17_1321,Test,3.1.2,59.984757896620295,
Pictures\IA25_L5.bmp,Pictures\IA25_L5.bmp,"Advisor 1 says:

"It would be smarter to choose the safe option."",Pictures\IA25.bmp,"Advisor 2 says:

"Certainty is boring, take a risk!"","

"It would be smarter to choose the safe option."",0,55,0,0,0,0,0,26,26,24,,,,,,,,,,,,,,,,,,,,,,,,,407.6414624823374,None,410.66262740365346,412.6430035645317,412.65970230210223,None,414.66012621633126,None,418.6944079087407,None,418.6944079087407,None,n,1.1808997245389037,418.6944079087407,None,None,None,419.96369484020397,None,419.96369484020397,None,left,419.96369484020397,None,421.19544996644254,422.879285522562,None,None,0,1.2075861054472625,,001,2019_Jul_17_1321,Test,3.1.2,59.984757896620295,
Pictures\IA75_L30.bmp,Pictures\IA75_L30.bmp,"Advisor 1 says:

"Be bold, gamble!"",Pictures\IA75.bmp,"Advisor 2 says:

"Dont be afraid to take the risk!"","

"Be bold, gamble!"",1,85,0,0,0,0,0,27,27,13,,,,,,,,,,,,,,,,,,,,,,,,,422.89597897286876,None,425.9180309106014,427.89742519531865,427.9141746284149,None,429.91459294434753,None,433.94912624836434,None,433.94912624836434,None,n,0.8857860592252109,433.94912624836434,None,None,None,434.9339797895809,None,434.9339797895809,None,left,434.9339797895809,None,435.98313766825595,437.8504375833727,None,None,0,1.0219654754037037,,001,2019_Jul_17_1321,Test,3.1.2,59.984757896620295,
Pictures\IA75_L45.bmp,Pictures\IA75_L45.bmp,"Advisor 1 says:

"Don't gamble for this one, play it safe."",Pictures\IA75.bmp,"Advisor 2 says:

"Go ahead and gamble!"","

"Don't gamble for this one, play it safe."",0,85,0,0,0,0,0,28,28,30,,,,,,,,,,,,,,,,,,,,,,,,,437.8670909126522,None,440.88721237666323,442.8685785001726,442.88510649016825,None,444.8856737825845,None,448.9200148789678,None,448.9200148789678,None,n,0.7626070943369996,448.9200148789678,None,None,None,449.7868719079124,None,449.7868719079124,None,right,449.7868719079124,None,None,None,450.73747734641074,452.68811948472285,119,0.9196917338122148,,001,2019_Jul_17_1321,Test,3.1.2,59.984757896620295,
Pictures\IA50_L10.bmp,Pictures\IA50_L10.bmp,"Advisor 1 says:

"Play it safe, don’t gamble!"",Pictures\IA50.bmp,"Advisor 2 says:

"It would probably be best to play it safe."","

"Play it safe, don’t gamble!"",0,100,0,0,0,0,0,29,29,16,,,,,,,,,,,,,,,,,,,,,,,,,452.7048088918091,None,455.7263112650253,457.7062625786348,457.7229379900091,None,459.72333360183984,None,463.75788338968414,None,463.75788338968414,None,n,1.2446066010452341,463.75788338968414,None,None,None,465.0914121444803,None,465.0914121444803,None,right,465.0914121444803,None,None,None,467.27573552852846,None,46,2.1669460104894824,,001,2019_Jul_17_1321,Test,3.1.2,59.984757896620295,
Pictures\IA50_L30.bmp,Pictures\IA50_L30.bmp,"Advisor 1 says:

"Take a leap, I think you should gamble."",Pictures\IA50.bmp,"Advisor 2 says:

"Hold back, stay with the safe choice."","

"Take a leap, I think you should gamble."",1,25,0,0,0,0,0,30,30,18,,,,,,,,,,,,,,,,,,,,,,,,,468.0259679349256,None,471.04342150728917,473.02742504290654,473.04408863571007,None,475.044675211102,None,479.07881103717955,480.3791600277764,479.07881103717955,480.3791600277764,y,1.2193443604919594,479.07881103717955,483.0303778248199,480.3657816925552,None,483.41343861003406,None,483.41343861003406,None,right,483.41343861003406,None,None,None,484.98094345332356,486.3146320701053,82,1.548668806644855,,001,2019_Jul_17_1321,Test,3.1.2,59.984757896620295,
Pictures\IA100_L60.bmp,Pictures\IA100_L60.bmp,"Advisor 1 says:

"Be cautious, don't gamble for this one."",Pictures\IA100.bmp,"Advisor 2 says:

"Why not take the gamble?"","

"Be cautious, don't gamble for this one."",0,50,0,0,0,0,0,31,31,6,,,,,,,,,,,,,,,,,,,,,,,,,486.33135102369124,None,489.352636930038,491.3327337989758,491.349418851838,None,493.3499090123805,None,497.38422025128966,None,497.38422025128966,None,n,1.049536073609488,497.38422025128966,None,None,None,498.53505409960053,None,498.53505409960053,None,right,498.53505409960053,None,None,None,500.5854980276781,None,53,2.0347522590018343,,001,2019_Jul_17_1321,Test,3.1.2,59.984757896620295,
