Choice,Choice2,AdviceVar,Amount,AdviceVar2,AdviceVar1,GambleAdvice,GambleAdviceNum,trials_2.thisRepN,trials_2.thisTrialN,trials_2.thisN,trials_2.thisIndex,trials.thisRepN,trials.thisTrialN,trials.thisN,trials.thisIndex,instructions.started,instructions.stopped,space.keys,space.rt,space.started,space.stopped,chooseInst.started,chooseInst.stopped,Ad1.started,Ad1.stopped,Ad2.started,Ad2.stopped,key_resp_3.keys,key_resp_3.rt,key_resp_3.started,key_resp_3.stopped,Ad1pic.started,Ad1pic.stopped,Ad2pic.started,Ad2pic.stopped,enter.keys,enter.rt,enter.started,enter.stopped,iSi.started,iSi.stopped,receiveMoneyPicture.started,receiveMoneyPicture.stopped,ISI2.started,ISI2.stopped,ChoicePic.started,ChoicePic.stopped,text_3.started,text_3.stopped,ask.started,ask.stopped,response.keys,response.rt,response.started,response.stopped,Advice.started,Advice.stopped,blank.started,blank.stopped,ChoicePic2.started,ChoicePic2.stopped,resp.keys,resp.rt,resp.started,resp.stopped,checkL1.started,checkL1.stopped,checkR1.started,checkR1.stopped,participant,session,date,expName,psychopyVersion,frameRate,
,,,,,,,,,,,,,,,,5.692792804853525,None,space,0.9010566132492386,5.692792804853525,None,,,,,,,,,,,,,,,,,,,,,,,,,,,,,,,,,,,,,,,,,,,,,,,,,,001,2019_Jul_19_1610,Test,3.1.2,59.88186674006032,
Pictures\IA100_L40.bmp,Pictures\IA100_L40.bmp,"Advisor 1 says:

"Think of the payoff, gamble!"",Pictures\IA100.bmp,"Advisor 2 says:

"I think you should take a gamble."","

"Think of the payoff, gamble!"",risk,1,0,0,0,0,0,0,0,3,,,,,,,9.0763552581775,None,9.0763552581775,None,9.0763552581775,None,right,0.47756255842978135,9.0763552581775,None,9.0763552581775,None,9.0763552581775,None,return,0.9171973888296634,9.0763552581775,None,10.04334530851338,None,12.194201860984322,14.044761051423848,14.061264471209142,None,16.09523856919259,None,19.312841553473845,22.463553794659674,19.312841553473845,22.463553794659674,y,3.0406304534408264,19.312841553473845,24.047716321481857,22.446913217019755,None,25.59785281063523,None,25.59785281063523,None,right,0.6195147348335013,25.59785281063523,None,None,None,26.24836398032494,28.365656353300437,,001,2019_Jul_19_1610,Test,3.1.2,59.88186674006032,
Pictures\IA100_G60.bmp,Pictures\IA100_G60.bmp,"Advisor 1 says:

"Be cautious, don't gamble for this one."",Pictures\IA100.bmp,"Advisor 2 says:

"Why not take the gamble?"","

"Be cautious, don't gamble for this one."",safe,0,0,0,0,0,0,1,1,4,,,,,,,,,,,,,,,,,,,,,,,,,28.398999400727917,None,30.416077266272623,32.38352295436198,32.4001644650707,None,34.4005669192411,None,37.43482528545428,None,37.43482528545428,None,n,2.7904513862449676,37.43482528545428,None,None,None,40.37232048413716,None,40.37232048413716,None,left,1.196792931703385,40.37232048413716,None,41.586223627091385,43.2366449132096,None,None,,001,2019_Jul_19_1610,Test,3.1.2,59.88186674006032,
Pictures\IA75_G60.bmp,Pictures\IA75_G60.bmp,"Advisor 1 says:

"Make it exciting, take a chance!"",Pictures\IA75.bmp,"Advisor 2 says:

"Let's stay with the certain option."","

"Make it exciting, take a chance!"",risk,1,0,0,0,0,0,2,2,0,,,,,,,,,,,,,,,,,,,,,,,,,43.25329015607713,None,45.2757983537158,47.25454976921901,47.271215850138105,None,49.2717974492698,None,52.30582037672866,53.9563750885427,52.30582037672866,53.9563750885427,y,1.5830627756658942,52.30582037672866,None,53.93963685201015,56.90731549082557,57.342605744546745,None,57.342605744546745,None,right,0.5062649423489347,57.342605744546745,None,None,None,57.8750687733409,60.241668125847355,,001,2019_Jul_19_1610,Test,3.1.2,59.88186674006032,
Pictures\IA50_L30.bmp,Pictures\IA50_L30.bmp,"Advisor 1 says:

"Take a leap, I think you should gamble."",Pictures\IA50.bmp,"Advisor 2 says:

"Hold back, stay with the safe choice."","

"Take a leap, I think you should gamble."",risk,1,0,0,0,0,0,3,3,17,,,,,,,,,,,,,,,,,,,,,,,,,60.25911143474514,None,62.281370197830256,64.25948900764342,64.27613642765209,None,66.27680884330766,None,69.31100314034848,None,69.31100314034848,None,n,1.4016315255430527,69.31100314034848,None,None,None,70.83172626403393,None,70.83172626403393,None,left,1.3688492392539047,70.83172626403393,None,72.22848355339374,73.72900341590866,None,None,,001,2019_Jul_19_1610,Test,3.1.2,59.88186674006032,
Pictures\IA75_G15.bmp,Pictures\IA75_G15.bmp,"Advisor 1 says:

"Take a chance!"",Pictures\IA75.bmp,"Advisor 2 says:

"I don't think you should gamble."","

"Take a chance!"",risk,1,0,0,0,0,0,4,4,18,,,,,,,,,,,,,,,,,,,,,,,,,73.745732321986,None,75.76830085658003,77.74688090250129,77.76343159668613,None,79.76389252173249,None,82.79817670228658,83.49836328055244,82.79817670228658,83.49836328055244,y,0.6182134456466883,82.79817670228658,None,83.48200977029046,86.44919482734986,87.81795573816635,None,87.81795573816635,None,right,0.5583348599029705,87.81795573816635,None,None,None,88.39997878874419,90.73398215335328,,001,2019_Jul_19_1610,Test,3.1.2,59.88186674006032,
Pictures\IA25_L15.bmp,Pictures\IA25_L15.bmp,"Advisor 1 says:

"There's not much on the line here, gamble!"",Pictures\IA25.bmp,"Advisor 2 says:

"Go all in!"","

"There's not much on the line here, gamble!"",risk,1,0,0,0,0,0,5,5,9,,,,,,,,,,,,,,,,,,,,,,,,,90.75117011839757,None,92.77258976147277,94.75182418414624,94.76855775545118,None,96.76887685747351,None,99.81973225914408,None,99.81973225914408,None,n,0.5962548126117326,99.81973225914408,None,None,None,100.51989488920663,None,100.51989488920663,None,left,0.6560727502801456,100.51989488920663,None,101.20375470450381,103.42103485460393,None,None,,001,2019_Jul_19_1610,Test,3.1.2,59.88186674006032,
