Choice,Choice2,AdviceVar,Amount,AdviceVar2,AdviceVar1,trials_2.thisRepN,trials_2.thisTrialN,trials_2.thisN,trials_2.thisIndex,trials.thisRepN,trials.thisTrialN,trials.thisN,trials.thisIndex,instructions.started,instructions.stopped,space.keys,space.rt,space.started,space.stopped,chooseInst.started,chooseInst.stopped,Ad1.started,Ad1.stopped,Ad2.started,Ad2.stopped,key_resp_3.keys,key_resp_3.rt,key_resp_3.started,key_resp_3.stopped,Ad1pic.started,Ad1pic.stopped,Ad2pic.started,Ad2pic.stopped,enter.keys,enter.rt,enter.started,enter.stopped,iSi.started,iSi.stopped,receiveMoneyPicture.started,receiveMoneyPicture.stopped,ISI2.started,ISI2.stopped,ChoicePic.started,ChoicePic.stopped,text_3.started,text_3.stopped,ask.started,ask.stopped,response.keys,response.rt,response.started,response.stopped,Advice.started,Advice.stopped,blank.started,blank.stopped,ChoicePic2.started,ChoicePic2.stopped,resp.keys,resp.rt,resp.started,resp.stopped,checkL1.started,checkL1.stopped,checkR1.started,checkR1.stopped,nGamble,participant,session,date,expName,psychopyVersion,frameRate,
,,,,,,,,,,,,,,41.864214329543756,None,space,2.4106973187008407,41.864214329543756,None,,,,,,,,,,,,,,,,,,,,,,,,,,,,,,,,,,,,,,,,,,,,,,,,,,,001,2019_Jul_17_1205,Test,3.1.2,59.945056580636695,
,,,,,,,,,,,,,,,,,,,,44.396118774369825,None,44.396118774369825,None,44.396118774369825,None,left,2.278711014572764,44.396118774369825,None,,,,,,,,,,,,,,,,,,,,,,,,,,,,,,,,,,,,,,,,,001,2019_Jul_17_1205,Test,3.1.2,59.945056580636695,
,,,,,,,,,,,,,,,,,,,,,,,,,,,,,,44.396118774369825,None,44.396118774369825,None,return,2.9187785920512397,44.396118774369825,None,,,,,,,,,,,,,,,,,,,,,,,,,,,,,,,,,001,2019_Jul_17_1205,Test,3.1.2,59.945056580636695,
Pictures\IA100_L80.bmp,Pictures\IA100_L80.bmp,"Advisor 1 says:

"Go all in!"",Pictures\IA100.bmp,"Advisor 2 says:

"There's not much on the line here, gamble!"","

"Go all in!"",0,0,0,0,0,0,0,23,,,,,,,,,,,,,,,,,,,,,,,,,47.3638972491608,None,50.481525518989656,52.3488649330684,52.365460724482546,None,54.40084403406945,None,59.35353700912674,60.06761758643552,59.35353700912674,60.06761758643552,y,0.6170144805801101,59.35353700912674,62.335127374884905,60.05093533269246,None,63.20171755243791,None,63.20171755243791,None,right,0.4808406626689248,63.20171755243791,None,None,None,63.7021148748463,65.98620521492558,139,,001,2019_Jul_17_1205,Test,3.1.2,59.945056580636695,
Pictures\IA75_L60.bmp,Pictures\IA75_L60.bmp,"Advisor 1 says:

"Make it exciting, take a chance!"",Pictures\IA75.bmp,"Advisor 2 says:

"Let's stay with the certain option."","

"Make it exciting, take a chance!"",0,0,0,0,0,1,1,15,,,,,,,,,,,,,,,,,,,,,,,,,66.00326721867896,None,69.036933411262,71.0042994793912,71.02101905498421,None,73.02144794547348,None,77.05659581627697,None,77.05659581627697,None,n,2.18561285463511,77.05659581627697,None,None,None,79.3564229227195,None,79.3564229227195,None,right,0.6857380384171847,79.3564229227195,None,None,None,80.07361583292368,82.2576390869508,133,,001,2019_Jul_17_1205,Test,3.1.2,59.945056580636695,
Pictures\IA50_G40.bmp,Pictures\IA50_G40.bmp,"Advisor 1 says:

"It would probably be best to play it safe."",Pictures\IA50.bmp,"Advisor 2 says:

"What's life without a little risk?"","

"It would probably be best to play it safe."",0,0,0,0,0,2,2,3,,,,,,,,,,,,,,,,,,,,,,,,,82.27430547887343,None,85.29629428044427,87.27578218086273,87.2923275877256,None,89.29297947639134,None,93.32822625015979,None,93.32822625015979,None,n,1.5537122352980077,93.32822625015979,None,None,None,95.06101907987613,None,95.06101907987613,None,left,1.0368671649193857,95.06101907987613,None,96.12837696829229,97.89550498512108,None,None,0,,001,2019_Jul_17_1205,Test,3.1.2,59.945056580636695,
Pictures\IA75_L60.bmp,Pictures\IA75_L60.bmp,"Advisor 1 says:

"Why not take the gamble?"",Pictures\IA75.bmp,"Advisor 2 says:

"It would be smarter to choose the safe option."","

"Why not take the gamble?"",0,0,0,0,0,3,3,31,,,,,,,,,,,,,,,,,,,,,,,,,97.91219999047462,None,100.93396050660522,102.91373267525341,102.93038133930531,None,104.9307156810537,None,108.9651230237505,None,108.9651230237505,None,n,0.5406685528869275,108.9651230237505,None,None,None,109.59865243168315,None,109.59865243168315,None,left,0.8270868445688393,109.59865243168315,None,110.44927258120151,112.51617483180598,None,None,0,,001,2019_Jul_17_1205,Test,3.1.2,59.945056580636695,
Pictures\IA100_L20.bmp,Pictures\IA100_L20.bmp,"Advisor 1 says:

"Go ahead and gamble!"",Pictures\IA100.bmp,"Advisor 2 says:

"Be cautious, don't gamble for this one."","

"Go ahead and gamble!"",0,0,0,0,0,4,4,4,,,,,,,,,,,,,,,,,,,,,,,,,112.53281229929416,None,115.55344538393547,117.53466937332996,117.55136313464027,None,119.55167383918888,None,123.56958460446913,None,123.56958460446913,None,n,0.631899686268298,123.56958460446913,None,None,None,124.2884489124117,None,124.2884489124117,None,left,0.9930015273857862,124.2884489124117,None,125.3034830945835,127.204193858488,None,None,0,,001,2019_Jul_17_1205,Test,3.1.2,59.945056580636695,
Pictures\IA50_L20.bmp,Pictures\IA50_L20.bmp,"Advisor 1 says:

"Certainty is boring, take a risk!"",Pictures\IA50.bmp,"Advisor 2 says:

"You'd have a lot to lose, don't gamble."","

"Certainty is boring, take a risk!"",0,0,0,0,0,5,5,17,,,,,,,,,,,,,,,,,,,,,,,,,127.22088171049836,None,130.25476623603026,132.2223521921842,132.23898686052416,None,134.23939086977043,None,138.27394159065443,None,138.27394159065443,None,n,0.6152463569887914,138.27394159065443,None,None,None,138.97687568052788,None,138.97687568052788,None,right,0.8321797247044742,138.97687568052788,None,None,None,139.84118953507277,141.8918278478959,125,,001,2019_Jul_17_1205,Test,3.1.2,59.945056580636695,
Pictures\IA25_L20.bmp,Pictures\IA25_L20.bmp,"Advisor 1 says:

"I wouldn't gamble for this one. "",Pictures\IA25.bmp,"Advisor 2 says:

"Why not gamble?"","

"I wouldn't gamble for this one. "",0,0,0,0,0,6,6,11,,,,,,,,,,,,,,,,,,,,,,,,,141.90852347528562,None,144.9270043321303,146.90996161135263,146.92664262102335,None,148.92721893289126,None,152.96136346741696,None,152.96136346741696,None,n,0.6555822787049692,152.96136346741696,None,None,None,153.7282933673123,None,153.7282933673123,None,right,0.7766553570982069,153.7282933673123,None,None,None,154.52889847921324,156.62950579935568,128,,001,2019_Jul_17_1205,Test,3.1.2,59.945056580636695,
Pictures\IA75_L45.bmp,Pictures\IA75_L45.bmp,"Advisor 1 says:

"Don't gamble for this one, play it safe."",Pictures\IA75.bmp,"Advisor 2 says:

"Go ahead and gamble!"","

"Don't gamble for this one, play it safe."",0,0,0,0,0,7,7,30,,,,,,,,,,,,,,,,,,,,,,,,,156.64618276580586,None,159.66714397192118,161.647625878104,161.66421638225438,None,163.66471680632094,None,167.6990227579372,None,167.6990227579372,None,n,0.8375397672352847,167.6990227579372,None,None,None,168.63719876974938,None,168.63719876974938,None,left,0.8273219723487273,168.63719876974938,None,169.4832827570208,171.55055356107187,None,None,0,,001,2019_Jul_17_1205,Test,3.1.2,59.945056580636695,
Pictures\IA50_L10.bmp,Pictures\IA50_L10.bmp,"Advisor 1 says:

"Play it safe, don’t gamble!"",Pictures\IA50.bmp,"Advisor 2 says:

"It would probably be best to play it safe."","

"Play it safe, don’t gamble!"",0,0,0,0,0,8,8,16,,,,,,,,,,,,,,,,,,,,,,,,,171.56723394870642,None,174.58999064777163,176.56866710851318,176.58537051131134,None,178.58594837825513,None,182.62036505143624,None,182.62036505143624,None,n,0.7720781407842878,182.62036505143624,None,None,None,183.48782482856768,None,183.48782482856768,None,left,0.7684308610914741,183.48782482856768,None,184.28763218550012,186.40494508552365,None,None,0,,001,2019_Jul_17_1205,Test,3.1.2,59.945056580636695,
Pictures\IA25_L5.bmp,Pictures\IA25_L5.bmp,"Advisor 1 says:

"Let's stay with the certain option."",Pictures\IA25.bmp,"Advisor 2 says:

"Take a chance!"","

"Let's stay with the certain option."",0,0,0,0,0,9,9,8,,,,,,,,,,,,,,,,,,,,,,,,,186.42159717075992,None,189.44286908139475,191.42307231764426,191.43964944811887,None,193.44028454192448,None,197.47468504228164,None,197.47468504228164,None,n,0.9573911764309742,197.47468504228164,None,None,None,198.52478840830736,None,198.52478840830736,None,right,0.7632941277406644,198.52478840830736,None,None,None,199.30872868339065,201.44269553470076,130,,001,2019_Jul_17_1205,Test,3.1.2,59.945056580636695,
Pictures\IA25_L5.bmp,Pictures\IA25_L5.bmp,"Advisor 1 says:

"It would be smarter to choose the safe option."",Pictures\IA25.bmp,"Advisor 2 says:

"Certainty is boring, take a risk!"","

"It would be smarter to choose the safe option."",0,0,0,0,0,10,10,24,,,,,,,,,,,,,,,,,,,,,,,,,201.45935415127315,None,204.48171554951114,206.4607891771593,206.4774854265852,None,208.47807386805653,None,212.5122152924596,None,212.5122152924596,None,n,0.9435099289985374,212.5122152924596,None,None,None,213.54674517529202,None,213.54674517529202,None,left,0.7810683571733534,213.54674517529202,None,214.34644149968517,216.4637590649363,None,None,0,,001,2019_Jul_17_1205,Test,3.1.2,59.945056580636695,
Pictures\IA50_L30.bmp,Pictures\IA50_L30.bmp,"Advisor 1 says:

"Take a leap, I think you should gamble."",Pictures\IA50.bmp,"Advisor 2 says:

"Hold back, stay with the safe choice."","

"Take a leap, I think you should gamble."",0,0,0,0,0,11,11,18,,,,,,,,,,,,,,,,,,,,,,,,,216.48043851953116,None,219.50079324524268,221.48189313939656,221.49848395455047,None,223.48208068180247,None,227.53328722008155,None,227.53328722008155,None,n,0.6183695754734799,227.53328722008155,None,None,None,228.25018093330436,None,228.25018093330436,None,left,1.75731360912323,228.25018093330436,None,230.03435975732282,231.16810827571317,None,None,0,,001,2019_Jul_17_1205,Test,3.1.2,59.945056580636695,
Pictures\IA100_L40.bmp,Pictures\IA100_L40.bmp,"Advisor 1 says:

"Think of the payoff, gamble!"",Pictures\IA100.bmp,"Advisor 2 says:

"I think you should take a gamble."","

"Think of the payoff, gamble!"",0,0,0,0,0,12,12,21,,,,,,,,,,,,,,,,,,,,,,,,,231.1847351686738,None,234.20333421143005,236.18624141713372,236.20290252179257,None,238.2034495982225,None,242.23761963602738,None,242.23761963602738,None,n,1.3295365587982815,242.23761963602738,None,None,None,243.6713398831198,None,243.6713398831198,None,right,0.7678424195910338,243.6713398831198,None,None,None,244.47194966024836,246.57260518780095,128,,001,2019_Jul_17_1205,Test,3.1.2,59.945056580636695,
Pictures\IA100_L40.bmp,Pictures\IA100_L40.bmp,"Advisor 1 says:

"Try your luck and gamble!"",Pictures\IA100.bmp,"Advisor 2 says:

"Go with the safe option here!"","

"Try your luck and gamble!"",0,0,0,0,0,13,13,5,,,,,,,,,,,,,,,,,,,,,,,,,246.589302059263,None,249.5934261258517,251.59077036380768,251.60744142098702,None,253.60779660078697,None,257.6424110798689,None,257.6424110798689,None,n,0.836488534550881,257.6424110798689,None,None,None,258.5785415421997,None,258.5785415421997,None,right,1.2522821545717306,258.5785415421997,None,None,None,259.8598249666393,261.4936059861793,100,,001,2019_Jul_17_1205,Test,3.1.2,59.945056580636695,
Pictures\IA50_G20.bmp,Pictures\IA50_G20.bmp,"Advisor 1 says:

"Let's venture and take a risk!"",Pictures\IA50.bmp,"Advisor 2 says:

"Don't gamble for this one."","

"Let's venture and take a risk!"",0,0,0,0,0,14,14,1,,,,,,,,,,,,,,,,,,,,,,,,,261.5103041017137,None,264.53061341913417,266.51174628094304,266.52843071179814,None,268.5290412353643,None,272.5634653729212,None,272.5634653729212,None,n,0.7792498490598518,272.5634653729212,None,None,None,273.43214370909845,None,273.43214370909845,None,left,0.894574426492909,273.43214370909845,None,274.34745230030967,276.3480289232102,None,None,0,,001,2019_Jul_17_1205,Test,3.1.2,59.945056580636695,
Pictures\IA75_L15.bmp,Pictures\IA75_L15.bmp,"Advisor 1 says:

"Take a chance!"",Pictures\IA75.bmp,"Advisor 2 says:

"I don't think you should gamble."","

"Take a chance!"",0,0,0,0,0,15,15,12,,,,,,,,,,,,,,,,,,,,,,,,,276.3646931380208,None,279.38407780614216,281.3661266088311,281.38283529889304,None,283.38341534294887,None,287.40114540816285,None,287.40114540816285,None,n,0.40536340151447803,287.40114540816285,None,None,None,287.90687167155556,None,287.90687167155556,None,right,0.5634526213107165,287.90687167155556,None,None,None,288.5016065509699,290.81897120398935,141,,001,2019_Jul_17_1205,Test,3.1.2,59.945056580636695,
Pictures\IA75_L30.bmp,Pictures\IA75_L30.bmp,"Advisor 1 says:

"Be bold, gamble!"",Pictures\IA75.bmp,"Advisor 2 says:

"Dont be afraid to take the risk!"","

"Be bold, gamble!"",0,0,0,0,0,16,16,13,,,,,,,,,,,,,,,,,,,,,,,,,290.8356192460051,None,293.8696511929156,295.83709252681,295.85354680611636,None,297.8540279472363,None,301.8887391521712,None,301.8887391521712,None,n,1.0213254053378478,301.8887391521712,None,None,None,303.0080590357247,None,303.0080590357247,None,left,0.838061340386048,303.0080590357247,None,303.8727964934951,305.9233918861719,None,None,0,,001,2019_Jul_17_1205,Test,3.1.2,59.945056580636695,
Pictures\IA75_L15.bmp,Pictures\IA75_L15.bmp,"Advisor 1 says:

"Trust me, gamble!"",Pictures\IA75.bmp,"Advisor 2 says:

"Play it safe, don’t gamble!"","

"Trust me, gamble!"",0,0,0,0,0,17,17,28,,,,,,,,,,,,,,,,,,,,,,,,,305.9400526798272,None,308.9611883656471,310.94146811173414,310.9581715145032,None,312.95879416770185,None,316.976467006054,None,316.976467006054,None,n,0.5013179285160732,316.976467006054,None,None,None,317.559761177341,None,317.559761177341,None,left,0.7661812854057644,317.559761177341,None,318.3436106358713,320.4776695478067,None,None,0,,001,2019_Jul_17_1205,Test,3.1.2,59.945056580636695,
Pictures\IA25_L10.bmp,Pictures\IA25_L10.bmp,"Advisor 1 says:

"What's life without a little risk?"",Pictures\IA25.bmp,"Advisor 2 says:

"Don't gamble for this one, play it safe."","

"What's life without a little risk?"",0,0,0,0,0,18,18,9,,,,,,,,,,,,,,,,,,,,,,,,,320.4943393609137,None,323.5136661801371,325.49579802399967,325.51242273984826,None,327.51305472350214,None,331.5473333057598,None,331.5473333057598,None,n,1.2903290016110986,331.5473333057598,None,None,None,332.94760569318896,None,332.94760569318896,None,right,1.3219468455645256,332.94760569318896,None,None,None,334.29840389912715,335.848843317508,95,,001,2019_Jul_17_1205,Test,3.1.2,59.945056580636695,
Pictures\IA25_L15.bmp,Pictures\IA25_L15.bmp,"Advisor 1 says:

"There's not much on the line here, gamble!"",Pictures\IA25.bmp,"Advisor 2 says:

"Go all in!"","

"There's not much on the line here, gamble!"",0,0,0,0,0,19,19,26,,,,,,,,,,,,,,,,,,,,,,,,,335.8655205949908,None,338.88712435925845,340.86699854102335,340.8836727083544,None,342.884072052344,None,346.9350453289517,None,346.9350453289517,None,n,0.7903580815764144,346.9350453289517,None,None,None,347.8219541544386,None,347.8219541544386,None,left,0.7193367406143807,347.8219541544386,None,348.56926767958794,350.7365495869308,None,None,0,,001,2019_Jul_17_1205,Test,3.1.2,59.945056580636695,
Pictures\IA100_L80.bmp,Pictures\IA100_L80.bmp,"Advisor 1 says:

"Why not gamble?"",Pictures\IA100.bmp,"Advisor 2 says:

"That gamble doesn't sound too good, play it safe."","

"Why not gamble?"",0,0,0,0,0,20,20,7,,,,,,,,,,,,,,,,,,,,,,,,,350.7532464583928,None,353.7749534798495,355.754716629046,355.77136747018085,None,357.771715185605,None,361.7920755096129,None,361.7920755096129,None,n,0.9168241701263469,361.7920755096129,None,None,None,362.80637040772126,None,362.80637040772126,None,left,0.9906294115644414,362.80637040772126,None,363.82374591520056,365.7242943289748,None,None,0,,001,2019_Jul_17_1205,Test,3.1.2,59.945056580636695,
Pictures\IA75_L45.bmp,Pictures\IA75_L45.bmp,"Advisor 1 says:

"Don't gamble for this one."",Pictures\IA75.bmp,"Advisor 2 says:

"Trust me, gamble!"","

"Don't gamble for this one."",0,0,0,0,0,21,21,14,,,,,,,,,,,,,,,,,,,,,,,,,365.74096009886125,None,368.76200496815727,370.74241938398336,370.75913056216086,None,372.75952741803485,None,376.78098189484444,None,376.78098189484444,None,n,1.1837060181132983,376.78098189484444,None,None,None,378.0628923267068,None,378.0628923267068,None,right,1.0538265335489996,378.0628923267068,None,None,None,379.1448831871967,380.97881703978055,112,,001,2019_Jul_17_1205,Test,3.1.2,59.945056580636695,
Pictures\IA100_L60.bmp,Pictures\IA100_L60.bmp,"Advisor 1 says:

"You'd have a lot to lose, don't gamble."",Pictures\IA100.bmp,"Advisor 2 says:

"Make it exciting, take a chance!"","

"You'd have a lot to lose, don't gamble."",0,0,0,0,0,22,22,22,,,,,,,,,,,,,,,,,,,,,,,,,380.99543988954974,None,384.01625211918144,385.9969520473096,386.0135923139169,None,388.0141558741743,None,392.048509100161,None,392.048509100161,None,n,0.6519950249930844,392.048509100161,None,None,None,392.8005127402721,None,392.8005127402721,None,left,0.9879335284931585,392.8005127402721,None,393.81588810653193,395.71643465422676,None,None,0,,001,2019_Jul_17_1205,Test,3.1.2,59.945056580636695,
Pictures\IA25_L20.bmp,Pictures\IA25_L20.bmp,"Advisor 1 says:

"Don't be tempted to gamble."",Pictures\IA25.bmp,"Advisor 2 says:

"Take a leap, I think you should gamble."","

"Don't be tempted to gamble."",0,0,0,0,0,23,23,27,,,,,,,,,,,,,,,,,,,,,,,,,395.73312530538533,None,398.75175078446046,400.7345796142181,400.7512733755284,None,402.75183258156176,None,406.78613604506245,None,406.78613604506245,None,n,0.6261841529631056,406.78613604506245,None,None,None,407.5194915019674,None,407.5194915019674,None,left,1.3726731757924426,407.5194915019674,None,408.92033242588514,410.42067563158344,None,None,0,,001,2019_Jul_17_1205,Test,3.1.2,59.945056580636695,
Pictures\IA75_L30.bmp,Pictures\IA75_L30.bmp,"Advisor 1 says:

"Hold back, stay with the safe choice."",Pictures\IA75.bmp,"Advisor 2 says:

"Try to win as much money as you can, gamble!"","

"Hold back, stay with the safe choice."",0,0,0,0,0,24,24,29,,,,,,,,,,,,,,,,,,,,,,,,,410.4374630085658,None,413.45888389571337,415.4389285139914,415.4555973940587,None,417.45617215085076,None,421.4903179294488,None,421.4903179294488,None,n,0.6096766899572685,421.4903179294488,None,None,None,422.1906133631419,None,422.1906133631419,None,right,1.7012129296490457,422.1906133631419,None,None,None,423.9080497985706,425.1084274958994,74,,001,2019_Jul_17_1205,Test,3.1.2,59.945056580636695,
Pictures\IA100_L60.bmp,Pictures\IA100_L60.bmp,"Advisor 1 says:

"Be cautious, don't gamble for this one."",Pictures\IA100.bmp,"Advisor 2 says:

"Why not take the gamble?"","

"Be cautious, don't gamble for this one."",0,0,0,0,0,25,25,6,,,,,,,,,,,,,,,,,,,,,,,,,425.12510974961333,None,428.145826808468,430.1265712118475,430.1432584418217,None,432.143772239564,None,436.1779830204032,None,436.1779830204032,None,n,1.1456075424794108,436.1779830204032,None,None,None,437.4284637727542,None,437.4284637727542,None,right,1.2870894633233547,437.4284637727542,None,None,None,438.7458019894257,440.3295589518966,97,,001,2019_Jul_17_1205,Test,3.1.2,59.945056580636695,
Pictures\IA100_L20.bmp,Pictures\IA100_L20.bmp,"Advisor 1 says:

"Try to win as much money as you can, gamble!"",Pictures\IA100.bmp,"Advisor 2 says:

"I wouldn't gamble for this one. "","

"Try to win as much money as you can, gamble!"",0,0,0,0,0,26,26,20,,,,,,,,,,,,,,,,,,,,,,,,,440.346232186188,None,443.36804930717335,445.34765414943104,445.36423314598505,None,447.3649145811214,None,451.39909705956234,None,451.39909705956234,None,n,0.7723515234829392,451.39909705956234,None,None,None,452.28284036845434,None,452.28284036845434,None,left,0.9204845124913845,452.28284036845434,None,453.2333633878152,455.183940523857,None,None,0,,001,2019_Jul_17_1205,Test,3.1.2,59.945056580636695,
Pictures\IA50_G30.bmp,Pictures\IA50_G30.bmp,"Advisor 1 says:

"I think you should gamble."",Pictures\IA50.bmp,"Advisor 2 says:

"Don't be tempted to gamble."","

"I think you should gamble."",0,0,0,0,0,27,27,2,,,,,,,,,,,,,,,,,,,,,,,,,455.20061064799665,None,458.2216558282962,460.20206153567415,460.2186952709744,None,462.2191322478757,None,466.2534581044747,None,466.2534581044747,None,n,0.7097033440077212,466.2534581044747,None,None,None,467.0536803562136,None,467.0536803562136,None,right,0.9894018330669496,467.0536803562136,None,None,None,468.07095633869176,469.97162853667396,116,,001,2019_Jul_17_1205,Test,3.1.2,59.945056580636695,
Pictures\IA50_L40.bmp,Pictures\IA50_L40.bmp,"Advisor 1 says:

"That gamble doesn't sound too good, play it safe."",Pictures\IA50.bmp,"Advisor 2 says:

"Let's venture and take a risk!"","

"That gamble doesn't sound too good, play it safe."",0,0,0,0,0,28,28,19,,,,,,,,,,,,,,,,,,,,,,,,,469.98827999984496,None,473.01018296112306,474.9897498594946,475.00630677395384,None,477.00682057169615,None,481.04114176306757,None,481.04114176306757,None,n,1.0897074680833612,481.04114176306757,None,None,None,482.2248197897861,None,482.2248197897861,None,left,0.7140283266780898,482.2248197897861,None,482.95871983497636,485.142751486419,None,None,0,,001,2019_Jul_17_1205,Test,3.1.2,59.945056580636695,
Pictures\IA25_L10.bmp,Pictures\IA25_L10.bmp,"Advisor 1 says:

"Dont be afraid to take the risk!"",Pictures\IA25.bmp,"Advisor 2 says:

"Be bold, gamble!"","

"Dont be afraid to take the risk!"",0,0,0,0,0,29,29,25,,,,,,,,,,,,,,,,,,,,,,,,,485.15938864287455,None,488.1780172321305,490.1607804376108,490.1774941039039,None,492.17810213938355,None,496.2124867779494,None,496.2124867779494,None,n,0.6539873908041045,496.2124867779494,None,None,None,496.9624750371149,None,496.9624750371149,None,left,0.7520950787002221,496.9624750371149,None,497.7464342841122,499.88039149396354,None,None,0,,001,2019_Jul_17_1205,Test,3.1.2,59.945056580636695,
Pictures\IA25_L15.bmp,Pictures\IA25_L15.bmp,"Advisor 1 says:

"I think you should take a gamble."",Pictures\IA25.bmp,"Advisor 2 says:

"Think of the payoff, gamble!"","

"I think you should take a gamble."",0,0,0,0,0,30,30,10,,,,,,,,,,,,,,,,,,,,,,,,,499.897058818955,None,502.91814101010095,504.8984779830498,504.91521621958236,None,506.9156401338114,None,510.9500816882355,None,510.9500816882355,None,n,0.620126502471976,510.9500816882355,None,None,None,511.6834464756248,None,511.6834464756248,None,left,1.7028852604562417,511.6834464756248,None,513.4177041887306,514.584689698182,None,None,0,,001,2019_Jul_17_1205,Test,3.1.2,59.945056580636695,
Pictures\IA50_G10.bmp,Pictures\IA50_G10.bmp,"Advisor 1 says:

"Go with the safe option here!"",Pictures\IA50.bmp,"Advisor 2 says:

"Try your luck and gamble!"","

"Go with the safe option here!"",0,0,0,0,0,31,31,0,,,,,,,,,,,,,,,,,,,,,,,,,514.6014061636524,None,517.6228914309759,519.6028809995332,519.6194158318685,None,521.6199582430418,None,525.6545154952619,None,525.6545154952619,None,n,0.6193884625099599,525.6545154952619,None,None,None,526.3765972593974,None,526.3765972593974,None,right,0.9294299426546786,526.3765972593974,None,None,None,527.3384533755016,529.2890277124243,119,,001,2019_Jul_17_1205,Test,3.1.2,59.945056580636695,
