Choice,Choice2,Amount,AdviceVar1,GambleAdviceNum,GambleAdviceType,trials_2.thisRepN,trials_2.thisTrialN,trials_2.thisN,trials_2.thisIndex,trials.thisRepN,trials.thisTrialN,trials.thisN,trials.thisIndex,instructions.started,instructions.stopped,space.keys,space.rt,space.started,space.stopped,chooseInst.started,chooseInst.stopped,Ad1.started,Ad1.stopped,Ad2.started,Ad2.stopped,key_resp_3.keys,key_resp_3.rt,key_resp_3.started,key_resp_3.stopped,Ad1pic.started,Ad1pic.stopped,Ad2pic.started,Ad2pic.stopped,enter.keys,enter.rt,enter.started,enter.stopped,iSi.started,iSi.stopped,receiveMoneyPicture.started,receiveMoneyPicture.stopped,ISI2.started,ISI2.stopped,ChoicePic.started,ChoicePic.stopped,response.keys,response.rt,response.started,response.stopped,yesNo.started,yesNo.stopped,ask.started,ask.stopped,getAdv.started,getAdv.stopped,textForCode.started,textForCode.stopped,blank.started,blank.stopped,ChoicePic2.started,ChoicePic2.stopped,resp.keys,resp.rt,resp.started,resp.stopped,checkL1.started,checkL1.stopped,checkR1.started,checkR1.stopped,participant,session,date,expName,psychopyVersion,frameRate,
,,,,,,,,,,,,,,5.975435989443213,None,space,8.264711892232299,5.975435989443213,None,,,,,,,,,,,,,,,,,,,,,,,,,,,,,,,,,,,,,,,,,,,,,,,,,,,,001,2019_Jul_22_1520,Test,3.1.2,59.891571000123214,
Pictures\IA75_L30.bmp,Pictures\IA75_L30.bmp,Pictures\IA75.bmp,"

"Don't gamble for this one."",0,safe,0,0,0,0,0,0,0,2,,,,,,,16.814884459367022,None,16.814884459367022,None,16.814884459367022,None,left,1.4490349652478471,16.814884459367022,None,16.814884459367022,None,16.814884459367022,None,return,1.6809530636528507,16.814884459367022,None,18.546603663242422,None,20.6954022255959,22.54606280720327,22.562746927025728,None,24.096266164677218,None,y,1.182501454721205,26.417251350125298,None,26.417251350125298,None,26.417251350125298,None,27.99728981021326,None,27.99728981021326,28.98130454251077,30.164599086972885,None,30.164599086972885,None,left,1.1710750533966348,30.164599086972885,None,31.36531890137121,None,None,None,,001,2019_Jul_22_1520,Test,3.1.2,59.891571000123214,
Pictures\IA75_G30.bmp,Pictures\IA75_G30.bmp,Pictures\IA75.bmp,"

"Don't gamble for this one."",0,safe,0,0,0,0,0,1,1,17,,,,,,,,,,,,,,,,,,,,,,,,,31.982162012369372,None,34.020784860360436,35.983341072453186,36.000082108192146,None,37.500414739362895,None,y,1.7933254812378436,39.53425727772992,None,39.53425727772992,None,39.53425727772992,None,41.40133917098865,None,41.40133917098865,42.368560305796564,43.45182042091619,None,43.45182042091619,None,None,,43.45182042091619,None,None,None,None,None,,001,2019_Jul_22_1520,Test,3.1.2,59.891571000123214,
Pictures\IA75_L60.bmp,Pictures\IA75_L60.bmp,Pictures\IA75.bmp,"

"Take a chance!"",1,risk,0,0,0,0,0,2,2,12,,,,,,,,,,,,,,,,,,,,,,,,,45.36944452312309,None,47.40414733055513,49.37056449020747,49.387178009492345,None,50.887723686289974,None,y,1.2838231776840985,52.90741097263526,None,52.90741097263526,None,52.90741097263526,None,54.27368904603645,None,54.27368904603645,55.27234919089824,56.38896386092529,None,56.38896386092529,None,right,1.0024277876364067,56.38896386092529,None,None,None,57.42288726347033,None,,001,2019_Jul_22_1520,Test,3.1.2,59.891571000123214,
Pictures\IA25_G10.bmp,Pictures\IA25_G10.bmp,Pictures\IA25.bmp,"

"Play it safe, don’t gamble!"",0,safe,0,0,0,0,0,3,3,14,,,,,,,,,,,,,,,,,,,,,,,,,58.27323060913477,None,60.30699819268193,62.27439847262576,62.291076372144744,None,63.791503863059916,None,y,1.6188802630640566,65.8123114274349,None,65.8123114274349,None,65.8123114274349,None,67.54235487943515,None,67.54235487943515,68.52620041905902,69.59519145032391,None,69.59519145032391,None,left,0.4438994760857895,69.59519145032391,None,70.05993456859142,71.51039398519788,None,None,,001,2019_Jul_22_1520,Test,3.1.2,59.891571000123214,
Pictures\IA75_G45.bmp,Pictures\IA75_G45.bmp,Pictures\IA75.bmp,"

"I wouldn't gamble for this one. "",0,safe,0,0,0,0,0,4,4,13,,,,,,,,,,,,,,,,,,,,,,,,,71.52710640744772,None,73.577544737258,75.52828888874501,75.5448924555676,None,77.04539707826916,None,y,1.4770189032424241,79.06589642621111,None,79.06589642621111,None,79.06589642621111,None,80.62944452930242,None,80.62944452930242,81.6300765130436,82.69679370929953,None,82.69679370929953,None,None,,82.69679370929953,None,None,None,None,None,,001,2019_Jul_22_1520,Test,3.1.2,59.891571000123214,
Pictures\IA75_L15.bmp,Pictures\IA75_L15.bmp,Pictures\IA75.bmp,"

"Trust me, gamble!"",1,risk,0,0,0,0,0,5,5,19,,,,,,,,,,,,,,,,,,,,,,,,,84.630842855433,None,86.6533522970276,88.63216809276491,88.64875424269121,None,90.14907785435207,None,None,,92.18308585311752,None,92.18308585311752,None,92.18308585311752,None,None,None,None,None,95.22125928348396,None,95.22125928348396,None,None,,95.22125928348396,None,None,None,None,None,,001,2019_Jul_22_1520,Test,3.1.2,59.891571000123214,
Pictures\IA50_G10.bmp,Pictures\IA50_G10.bmp,Pictures\IA50.bmp,"

"I think you should gamble."",1,risk,0,0,0,0,0,6,6,15,,,,,,,,,,,,,,,,,,,,,,,,,97.17046079761349,None,99.19078970898408,101.16917941346765,101.18580506229773,None,102.6859650798142,None,y,1.742319859098643,104.72010152798612,None,104.72010152798612,None,104.72010152798612,None,106.57052667066455,None,106.57052667066455,107.55437127733603,108.62166012031958,None,108.62166012031958,None,right,0.4087466290220618,108.62166012031958,None,None,None,109.05482364958152,110.53851819119882,,001,2019_Jul_22_1520,Test,3.1.2,59.891571000123214,
Pictures\IA25_G15.bmp,Pictures\IA25_G15.bmp,Pictures\IA25.bmp,"

"I think you should take a gamble."",1,risk,0,0,0,0,0,7,7,6,,,,,,,,,,,,,,,,,,,,,,,,,110.5552760217106,None,112.57829055271577,114.55640563031193,114.57311338733416,None,116.07340123225003,None,y,1.465680830180645,118.09258840547409,None,118.09258840547409,None,118.09258840547409,None,119.6577547226334,None,119.6577547226334,120.6415324609261,121.72501495212782,None,121.72501495212782,None,left,0.913045019726269,121.72501495212782,None,122.65869647776708,None,None,None,,001,2019_Jul_22_1520,Test,3.1.2,59.891571000123214,
Pictures\IA80_40_G95p.bmp,Pictures\IA80_40_G95p.bmp,Pictures\IA80.bmp,"

"I think you should not gamble."",0,safe,0,0,0,0,0,8,8,8,,,,,,,,,,,,,,,,,,,,,,,,,123.64244653563946,None,125.66498956701253,127.64362808386795,127.66020832455251,None,129.16067251528148,None,n,1.4405330433510244,131.18139703851193,None,131.18139703851193,None,131.18139703851193,None,None,None,None,None,132.7447538669221,None,132.7447538669221,None,right,0.8931082990020514,132.7447538669221,None,None,None,133.66202278935816,134.67903005436528,,001,2019_Jul_22_1520,Test,3.1.2,59.891571000123214,
Pictures\IA100_G20.bmp,Pictures\IA100_G20.bmp,Pictures\IA100.bmp,"

"Trust me, gamble!"",1,risk,0,0,0,0,0,9,9,4,,,,,,,,,,,,,,,,,,,,,,,,,134.6957017335808,None,136.71354563056957,138.69687177427113,138.71347005374264,None,140.21381357044447,None,n,1.3343843586044386,142.2475512966048,None,142.2475512966048,None,142.2475512966048,None,None,None,None,None,143.70318103628233,None,143.70318103628233,None,left,0.37450878974050283,143.70318103628233,None,144.0984199475497,145.63224895682652,None,None,,001,2019_Jul_22_1520,Test,3.1.2,59.891571000123214,
Pictures\IA50_G30.bmp,Pictures\IA50_G30.bmp,Pictures\IA50.bmp,"

"I think you should gamble."",1,risk,0,0,0,0,0,10,10,1,,,,,,,,,,,,,,,,,,,,,,,,,145.6488624761114,None,147.6705660764128,149.65004184714053,149.6667620447697,None,151.1669957729755,None,y,1.3724725707434118,153.20102616481017,None,153.20102616481017,None,153.20102616481017,None,154.68466814490966,None,154.68466814490966,155.66852861328516,156.73576644971035,None,156.73576644971035,None,right,1.5736610856838524,156.73576644971035,None,None,None,158.33598266774788,None,,001,2019_Jul_22_1520,Test,3.1.2,59.891571000123214,
Pictures\IA110_55_G95p.bmp,Pictures\IA110_55_G95p.bmp,Pictures\IA110.bmp,"

"Be bold, gamble!"",1,risk,0,0,0,0,0,11,11,7,,,,,,,,,,,,,,,,,,,,,,,,,158.66937924094964,None,160.692110747681,162.67055394675117,162.6871587575879,None,164.187493565958,None,n,0.4317897732835263,166.2215308001032,None,166.2215308001032,None,166.2215308001032,None,None,None,None,None,166.77142594114412,None,166.77142594114412,None,left,1.0339171822415665,166.77142594114412,None,167.8220151135465,None,None,None,,001,2019_Jul_22_1520,Test,3.1.2,59.891571000123214,
Pictures\IA20_10_L95p.bmp,Pictures\IA20_10_L95p.bmp,Pictures\IA20.bmp,"

"Certainty is boring, take a risk!"",1,risk,0,0,0,0,0,12,12,18,,,,,,,,,,,,,,,,,,,,,,,,,168.72233026567847,None,170.7445507737575,172.72352176636923,172.74021677172277,None,174.24047227099072,None,n,0.9680726955411956,176.26089510915335,None,176.26089510915335,None,176.26089510915335,None,None,None,None,None,177.3613599841483,None,177.3613599841483,None,right,0.9076013141311705,177.3613599841483,None,None,None,178.29184582468588,179.30881234665867,,001,2019_Jul_22_1520,Test,3.1.2,59.891571000123214,
Pictures\IA50_G40.bmp,Pictures\IA50_G40.bmp,Pictures\IA50.bmp,"

"There's not much on the line here, gamble!"",1,risk,0,0,0,0,0,13,13,5,,,,,,,,,,,,,,,,,,,,,,,,,179.3254843368195,None,181.3472716002725,183.32657817867585,183.3433220133884,None,184.84374079597183,None,y,1.3675187146291137,186.87758768850472,None,186.87758768850472,None,186.87758768850472,None,188.34436204959638,None,188.34436204959638,189.32833790476434,190.39706332876813,None,190.39706332876813,None,right,1.1676498387241736,190.39706332876813,None,None,None,191.5957463021623,None,,001,2019_Jul_22_1520,Test,3.1.2,59.891571000123214,
Pictures\IA80_40_L95p.bmp,Pictures\IA80_40_L95p.bmp,Pictures\IA80.bmp,"

"Be cautious, don't gamble for this one."",0,safe,0,0,0,0,0,14,14,16,,,,,,,,,,,,,,,,,,,,,,,,,192.329263798194,None,194.3523669685237,196.33048360131215,196.34713226533495,None,197.847406114568,None,y,1.579277093987912,199.8814001175342,None,199.8814001175342,None,199.8814001175342,None,201.55133607634343,None,201.55133607634343,202.5489953730721,203.6491427011788,None,203.6491427011788,None,right,0.36351158982142806,203.6491427011788,None,None,None,204.0327514958335,205.53314819617663,,001,2019_Jul_22_1520,Test,3.1.2,59.891571000123214,
Pictures\IA100_L20.bmp,Pictures\IA100_L20.bmp,Pictures\IA100.bmp,"

"Go with the safe option here!"",0,safe,0,0,0,0,0,15,15,3,,,,,,,,,,,,,,,,,,,,,,,,,205.54985190997832,None,207.5703092708718,209.55102101759985,209.5676895865472,None,211.0680474099936,None,y,0.9906645562732592,213.10178700229153,None,213.10178700229153,None,213.10178700229153,None,214.18535222357605,None,214.18535222357605,215.18602495035157,216.25406054174528,None,216.25406054174528,None,left,0.7263753341976553,216.25406054174528,None,217.00317951233592,218.1702256698627,None,None,,001,2019_Jul_22_1520,Test,3.1.2,59.891571000123214,
Pictures\IA50_L30.bmp,Pictures\IA50_L30.bmp,Pictures\IA50.bmp,"

"Certainty is boring, take a risk!"",1,risk,0,0,0,0,0,16,16,10,,,,,,,,,,,,,,,,,,,,,,,,,218.18690978968516,None,220.20579310064204,222.18808045226615,222.20462399313692,None,223.7049983002944,None,y,1.2972316815285012,225.73893632052932,None,225.73893632052932,None,225.73893632052932,None,227.13932502781972,None,227.13932502781972,228.12313231255393,229.19250775908586,None,229.19250775908586,None,right,1.0034059315221384,229.19250775908586,None,None,None,230.2234569195425,None,,001,2019_Jul_22_1520,Test,3.1.2,59.891571000123214,
Pictures\IA25_G10.bmp,Pictures\IA25_G10.bmp,Pictures\IA25.bmp,"

"What's life without a little risk?"",1,risk,0,0,0,0,0,17,17,0,,,,,,,,,,,,,,,,,,,,,,,,,231.12361998506822,None,233.15773124084808,235.12523042375688,235.14186602504924,None,236.6422932050191,None,n,1.3102377309696749,238.6617344779661,None,238.6617344779661,None,238.6617344779661,None,None,None,None,None,240.09299241472036,None,240.09299241472036,None,right,0.6789454581448808,240.09299241472036,None,None,None,240.79349342966452,242.02726860216353,,001,2019_Jul_22_1520,Test,3.1.2,59.891571000123214,
Pictures\IA40_20_L95p.bmp,Pictures\IA40_20_L95p.bmp,Pictures\IA40.bmp,"

"Make it exciting, take a chance!"",1,risk,0,0,0,0,0,18,18,9,,,,,,,,,,,,,,,,,,,,,,,,,242.0439051365247,None,244.06531389406882,246.04509663721547,246.06172881752718,None,247.56207295623608,None,y,1.3118102258304134,249.57986118132249,None,249.57986118132249,None,249.57986118132249,None,250.99627061223146,None,250.99627061223146,251.98016871360596,253.06364902772475,None,253.06364902772475,None,left,1.32398959598504,253.06364902772475,None,254.41415705601685,None,None,None,,001,2019_Jul_22_1520,Test,3.1.2,59.891571000123214,
Pictures\IA25_L20.bmp,Pictures\IA25_L20.bmp,Pictures\IA25.bmp,"

"Let's venture and take a risk!"",1,risk,0,0,0,0,0,19,19,11,,,,,,,,,,,,,,,,,,,,,,,,,254.98103178176098,None,257.0040428915527,258.98218938172795,258.998821872985,None,260.4992195063969,None,y,0.7345466465922073,262.53292333194986,None,262.53292333194986,None,262.53292333194986,None,263.34985956095625,None,263.34985956095625,264.3504178338917,265.42161396564916,None,265.42161396564916,None,left,0.9657500311732292,265.42161396564916,None,266.417753018206,None,None,None,,001,2019_Jul_22_1520,Test,3.1.2,59.891571000123214,
