Choice,Choice2,AdviceVar,Amount,AdviceVar2,AdviceVar1,GambleAdvice,Not_GamblePercent,trials_2.thisRepN,trials_2.thisTrialN,trials_2.thisN,trials_2.thisIndex,trials.thisRepN,trials.thisTrialN,trials.thisN,trials.thisIndex,space.keys,space.rt,key_resp_3.keys,key_resp_3.rt,enter.keys,enter.rt,response.keys,response.rt,resp.keys,resp.rt,participant,session,date,expName,psychopyVersion,frameRate,
,,,,,,,,,,,,,,,,space,1.986811199982185,,,,,,,,,,001,2019_Jul_19_0804,Test,3.0.7,60.00459635215219,
Pictures\IA100_L40.bmp,Pictures\IA100_L40.bmp,"Advisor 1 says:

"Think of the payoff, gamble!"",Pictures\IA100.bmp,"Advisor 2 says:

"I think you should take a gamble."","

"Think of the payoff, gamble!"",1,40,0,0,0,0,0,0,0,10,,,right,1.153816799982451,return,1.5705326999886893,n,1.2647569000255316,right,0.6131158000207506,,001,2019_Jul_19_0804,Test,3.0.7,60.00459635215219,
Pictures\IA75_L45.bmp,Pictures\IA75_L45.bmp,"Advisor 1 says:

"Don't gamble for this one."",Pictures\IA75.bmp,"Advisor 2 says:

"Trust me, gamble!"","

"Don't gamble for this one."",0,90,0,0,0,0,0,1,1,1,,,,,,,n,0.6746848000329919,left,0.5264598000212573,,001,2019_Jul_19_0804,Test,3.0.7,60.00459635215219,
Pictures\IA75_L60.bmp,Pictures\IA75_L60.bmp,"Advisor 1 says:

"Make it exciting, take a chance!"",Pictures\IA75.bmp,"Advisor 2 says:

"Let's stay with the certain option."","

"Make it exciting, take a chance!"",1,95,0,0,0,0,0,2,2,16,,,,,,,n,0.600912399997469,right,0.5806515999720432,,001,2019_Jul_19_0804,Test,3.0.7,60.00459635215219,
Pictures\IA100_L80.bmp,Pictures\IA100_L80.bmp,"Advisor 1 says:

"Go all in!"",Pictures\IA100.bmp,"Advisor 2 says:

"There's not much on the line here, gamble!"","

"Go all in!"",1,50,0,0,0,0,0,3,3,13,,,,,,,n,0.4315074000041932,right,0.6524572999915108,,001,2019_Jul_19_0804,Test,3.0.7,60.00459635215219,
Pictures\IA25_L15.bmp,Pictures\IA25_L15.bmp,"Advisor 1 says:

"I think you should take a gamble."",Pictures\IA25.bmp,"Advisor 2 says:

"Think of the payoff, gamble!"","

"I think you should take a gamble."",1,70,0,0,0,0,0,4,4,0,,,,,,,n,0.43431079998845235,left,0.7249284000135958,,001,2019_Jul_19_0804,Test,3.0.7,60.00459635215219,
Pictures\IA50_L40.bmp,Pictures\IA50_L40.bmp,"Advisor 1 says:

"That gamble doesn't sound too good, play it safe."",Pictures\IA50.bmp,"Advisor 2 says:

"Let's venture and take a risk!"","

"That gamble doesn't sound too good, play it safe."",0,30,0,0,0,0,0,5,5,9,,,,,,,n,0.5341764999902807,left,0.6549021999817342,,001,2019_Jul_19_0804,Test,3.0.7,60.00459635215219,
Pictures\IA25_L15.bmp,Pictures\IA25_L15.bmp,"Advisor 1 says:

"There's not much on the line here, gamble!"",Pictures\IA25.bmp,"Advisor 2 says:

"Go all in!"","

"There's not much on the line here, gamble!"",1,65,0,0,0,0,0,6,6,15,,,,,,,n,0.3886674999957904,right,0.7499681999906898,,001,2019_Jul_19_0804,Test,3.0.7,60.00459635215219,
Pictures\IA50_G10.bmp,Pictures\IA50_G10.bmp,"Advisor 1 says:

"Go with the safe option here!"",Pictures\IA50.bmp,"Advisor 2 says:

"Try your luck and gamble!"","

"Go with the safe option here!"",0,20,0,0,0,0,0,7,7,5,,,,,,,n,0.9749241000390612,left,0.6754457000060938,,001,2019_Jul_19_0804,Test,3.0.7,60.00459635215219,
Pictures\IA75_L45.bmp,Pictures\IA75_L45.bmp,"Advisor 1 says:

"Don't gamble for this one, play it safe."",Pictures\IA75.bmp,"Advisor 2 says:

"Go ahead and gamble!"","

"Don't gamble for this one, play it safe."",0,85,0,0,0,0,0,8,8,6,,,,,,,n,0.3726685000001453,right,0.5868714999523945,,001,2019_Jul_19_0804,Test,3.0.7,60.00459635215219,
Pictures\IA25_L5.bmp,Pictures\IA25_L5.bmp,"Advisor 1 says:

"Let's stay with the certain option."",Pictures\IA25.bmp,"Advisor 2 says:

"Take a chance!"","

"Let's stay with the certain option."",0,60,0,0,0,0,0,9,9,4,,,,,,,n,0.5690649999887682,left,0.5463970999699086,,001,2019_Jul_19_0804,Test,3.0.7,60.00459635215219,
Pictures\IA100_L20.bmp,Pictures\IA100_L20.bmp,"Advisor 1 says:

"Try to win as much money as you can, gamble!"",Pictures\IA100.bmp,"Advisor 2 says:

"I wouldn't gamble for this one. "","

"Try to win as much money as you can, gamble!"",1,35,0,0,0,0,0,10,10,19,,,,,,,n,0.2978605000535026,right,0.67324070003815,,001,2019_Jul_19_0804,Test,3.0.7,60.00459635215219,
Pictures\IA50_L30.bmp,Pictures\IA50_L30.bmp,"Advisor 1 says:

"Take a leap, I think you should gamble."",Pictures\IA50.bmp,"Advisor 2 says:

"Hold back, stay with the safe choice."","

"Take a leap, I think you should gamble."",1,25,0,0,0,0,0,11,11,8,,,,,,,n,0.4905686000129208,right,0.5888384000281803,,001,2019_Jul_19_0804,Test,3.0.7,60.00459635215219,
Pictures\IA25_L15.bmp,Pictures\IA25_L15.bmp,"Advisor 1 says:

"I think you should take a gamble."",Pictures\IA25.bmp,"Advisor 2 says:

"Think of the payoff, gamble!"","

"I think you should take a gamble."",1,70,0,0,0,0,0,12,12,2,,,,,,,n,0.5191309999790974,right,0.6679025000194088,,001,2019_Jul_19_0804,Test,3.0.7,60.00459635215219,
Pictures\IA100_L40.bmp,Pictures\IA100_L40.bmp,"Advisor 1 says:

"Try your luck and gamble!"",Pictures\IA100.bmp,"Advisor 2 says:

"Go with the safe option here!"","

"Try your luck and gamble!"",1,45,0,0,0,0,0,13,13,7,,,,,,,n,0.5035420000203885,right,0.5390677999821492,,001,2019_Jul_19_0804,Test,3.0.7,60.00459635215219,
Pictures\IA75_L60.bmp,Pictures\IA75_L60.bmp,"Advisor 1 says:

"Make it exciting, take a chance!"",Pictures\IA75.bmp,"Advisor 2 says:

"Let's stay with the certain option."","

"Make it exciting, take a chance!"",1,95,0,0,0,0,0,14,14,12,,,,,,,n,0.3873122000368312,left,0.6532743999850936,,001,2019_Jul_19_0804,Test,3.0.7,60.00459635215219,
Pictures\IA25_L5.bmp,Pictures\IA25_L5.bmp,"Advisor 1 says:

"It would be smarter to choose the safe option."",Pictures\IA25.bmp,"Advisor 2 says:

"Certainty is boring, take a risk!"","

"It would be smarter to choose the safe option."",0,55,0,0,0,0,0,15,15,18,,,,,,,n,1.0432094000279903,right,0.43128670001169667,,001,2019_Jul_19_0804,Test,3.0.7,60.00459635215219,
Pictures\IA100_L60.bmp,Pictures\IA100_L60.bmp,"Advisor 1 says:

"You'd have a lot to lose, don't gamble."",Pictures\IA100.bmp,"Advisor 2 says:

"Make it exciting, take a chance!"","

"You'd have a lot to lose, don't gamble."",0,45,0,0,0,0,0,16,16,3,,,,,,,n,0.38658039999427274,left,0.6988048999919556,,001,2019_Jul_19_0804,Test,3.0.7,60.00459635215219,
Pictures\IA50_L10.bmp,Pictures\IA50_L10.bmp,"Advisor 1 says:

"Play it safe, don’t gamble!"",Pictures\IA50.bmp,"Advisor 2 says:

"It would probably be best to play it safe."","

"Play it safe, don’t gamble!"",0,100,0,0,0,0,0,17,17,17,,,,,,,n,0.34911040001315996,left,0.8006693999632262,,001,2019_Jul_19_0804,Test,3.0.7,60.00459635215219,
Pictures\IA75_L15.bmp,Pictures\IA75_L15.bmp,"Advisor 1 says:

"Take a chance!"",Pictures\IA75.bmp,"Advisor 2 says:

"I don't think you should gamble."","

"Take a chance!"",1,80,0,0,0,0,0,18,18,14,,,,,,,n,0.8990598000236787,left,0.5701006999588571,,001,2019_Jul_19_0804,Test,3.0.7,60.00459635215219,
Pictures\IA100_L40.bmp,Pictures\IA100_L40.bmp,"Advisor 1 says:

"Try your luck and gamble!"",Pictures\IA100.bmp,"Advisor 2 says:

"Go with the safe option here!"","

"Try your luck and gamble!"",1,45,0,0,0,0,0,19,19,11,,,,,,,n,0.7718294999795035,left,0.699190000013914,,001,2019_Jul_19_0804,Test,3.0.7,60.00459635215219,
