Choice,Choice2,AdviceVar,Amount,AdviceVar2,AdviceVar1,GambleAdvice,GamblePercent,trials_2.thisRepN,trials_2.thisTrialN,trials_2.thisN,trials_2.thisIndex,trials.thisRepN,trials.thisTrialN,trials.thisN,trials.thisIndex,instructions.started,instructions.stopped,space.keys,space.rt,space.started,space.stopped,chooseInst.started,chooseInst.stopped,Ad1.started,Ad1.stopped,Ad2.started,Ad2.stopped,key_resp_3.keys,key_resp_3.rt,key_resp_3.started,key_resp_3.stopped,Ad1pic.started,Ad1pic.stopped,Ad2pic.started,Ad2pic.stopped,enter.keys,enter.rt,enter.started,enter.stopped,iSi.started,iSi.stopped,receiveMoneyPicture.started,receiveMoneyPicture.stopped,ISI2.started,ISI2.stopped,ChoicePic.started,ChoicePic.stopped,text_3.started,text_3.stopped,ask.started,ask.stopped,response.keys,response.rt,response.started,response.stopped,Advice.started,Advice.stopped,blank.started,blank.stopped,ChoicePic2.started,ChoicePic2.stopped,resp.keys,resp.started,resp.stopped,checkL1.started,checkL1.stopped,checkR1.started,checkR1.stopped,nGamble,resp.rt,participant,session,date,expName,psychopyVersion,frameRate,
,,,,,,,,,,,,,,,,6.493051134370035,None,space,5.678520921850577,6.493051134370035,None,,,,,,,,,,,,,,,,,,,,,,,,,,,,,,,,,,,,,,,,,,,,,,,,,,,001,2019_Jul_17_1417,Test,3.1.2,59.955787525775236,
Pictures\IA50_G40.bmp,Pictures\IA50_G40.bmp,"Advisor 1 says:

"It would probably be best to play it safe."",Pictures\IA50.bmp,"Advisor 2 says:

"What's life without a little risk?"","

"It would probably be best to play it safe."",0,35,0,0,0,0,0,0,0,3,,,,,,,12.275694163428852,None,12.275694163428852,None,12.275694163428852,None,right,0.7678473958512768,12.275694163428852,None,12.275694163428852,None,12.275694163428852,None,return,1.0477850558818318,12.275694163428852,None,13.373762974399142,None,16.508106154593406,18.35866565606557,18.37540917986189,None,20.409183294832474,None,25.527338425075868,27.627756336703897,25.527338425075868,27.627756336703897,y,1.9958973934990354,25.527338425075868,28.361698991036974,27.613058673392516,None,30.678682649944676,None,30.678682649944676,None,None,30.678682649944676,None,None,None,None,None,0,,,001,2019_Jul_17_1417,Test,3.1.2,59.955787525775236,
Pictures\IA25_L5.bmp,Pictures\IA25_L5.bmp,"Advisor 1 says:

"Let's stay with the certain option."",Pictures\IA25.bmp,"Advisor 2 says:

"Take a chance!"","

"Let's stay with the certain option."",0,60,0,0,0,0,0,1,1,8,,,,,,,,,,,,,,,,,,,,,,,,,33.54646899344516,None,36.58199723629514,38.54802624846343,38.56454490800388,None,40.56509291744442,None,44.599400113133015,None,44.599400113133015,None,n,2.219518218189478,44.599400113133015,None,None,None,46.95010594744235,None,46.95010594744235,None,left,46.95010594744235,None,48.03415853023762,49.834667849354446,None,None,0,1.0527874304971192,,001,2019_Jul_17_1417,Test,3.1.2,59.955787525775236,
Pictures\IA100_L20.bmp,Pictures\IA100_L20.bmp,"Advisor 1 says:

"Try to win as much money as you can, gamble!"",Pictures\IA100.bmp,"Advisor 2 says:

"I wouldn't gamble for this one. "","

"Try to win as much money as you can, gamble!"",1,35,0,0,0,0,0,2,2,20,,,,,,,,,,,,,,,,,,,,,,,,,49.851339839573484,None,52.885393557546195,54.85281032123021,54.86946054035798,None,56.853828897263156,None,60.908038602006854,61.45446871849708,60.908038602006854,61.45446871849708,y,0.462537706742296,60.908038602006854,None,61.440189371147426,64.3889501762169,64.97225367798819,None,64.97225367798819,None,left,64.97225367798819,None,65.90604281501146,67.83996848788229,None,None,0,0.9102393482462503,,001,2019_Jul_17_1417,Test,3.1.2,59.955787525775236,
Pictures\IA25_L15.bmp,Pictures\IA25_L15.bmp,"Advisor 1 says:

"I think you should take a gamble."",Pictures\IA25.bmp,"Advisor 2 says:

"Think of the payoff, gamble!"","

"I think you should take a gamble."",1,70,0,0,0,0,0,3,3,10,,,,,,,,,,,,,,,,,,,,,,,,,67.85664887551684,None,70.8906736690551,72.85810691656661,72.87477610763744,None,74.87534899835009,None,78.90948575749644,None,78.90948575749644,None,n,1.044779090298107,78.90948575749644,None,None,None,80.05988916024216,None,80.05988916024216,None,right,80.05988916024216,None,None,None,80.7102958286705,82.96109070675448,137,0.6223222724802326,,001,2019_Jul_17_1417,Test,3.1.2,59.955787525775236,
Pictures\IA50_L40.bmp,Pictures\IA50_L40.bmp,"Advisor 1 says:

"That gamble doesn't sound too good, play it safe."",Pictures\IA50.bmp,"Advisor 2 says:

"Let's venture and take a risk!"","

"That gamble doesn't sound too good, play it safe."",0,30,0,0,0,0,0,4,4,19,,,,,,,,,,,,,,,,,,,,,,,,,82.977754299558,None,86.01181548190652,87.97921638379921,87.99588588587358,None,89.99636049565743,None,94.03068137602531,None,94.03068137602531,None,n,0.6512818662740756,94.03068137602531,None,None,None,94.79768032138236,None,94.79768032138236,None,right,94.79768032138236,None,None,None,95.53132408973761,97.69874222186627,132,0.7083404737350065,,001,2019_Jul_17_1417,Test,3.1.2,59.955787525775236,
Pictures\IA25_L20.bmp,Pictures\IA25_L20.bmp,"Advisor 1 says:

"I wouldn't gamble for this one. "",Pictures\IA25.bmp,"Advisor 2 says:

"Why not gamble?"","

"I wouldn't gamble for this one. "",0,75,0,0,0,0,0,5,5,11,,,,,,,,,,,,,,,,,,,,,,,,,97.7154114129662,None,100.73802535585128,102.71686198961106,102.73355823906604,None,104.73394420937984,None,108.768330092018,None,108.768330092018,None,n,1.2894500715774484,108.768330092018,None,None,None,110.15499057155102,None,110.15499057155102,None,right,110.15499057155102,None,None,None,110.8192638696637,113.0698696502368,137,0.638687912345631,,001,2019_Jul_17_1417,Test,3.1.2,59.955787525775236,
Pictures\IA25_L15.bmp,Pictures\IA25_L15.bmp,"Advisor 1 says:

"There's not much on the line here, gamble!"",Pictures\IA25.bmp,"Advisor 2 says:

"Go all in!"","

"There's not much on the line here, gamble!"",1,65,0,0,0,0,0,6,6,26,,,,,,,,,,,,,,,,,,,,,,,,,113.0866175282572,None,116.10806080850307,118.08806468377588,118.10473667399492,None,120.10530583249056,None,124.13972872597515,None,124.13972872597515,None,n,0.4376206934975926,124.13972872597515,None,None,None,124.67553175109788,None,124.67553175109788,None,right,124.67553175109788,None,None,None,125.44019528044737,127.59083661012119,131,0.7419111845374573,,001,2019_Jul_17_1417,Test,3.1.2,59.955787525775236,
Pictures\IA100_L20.bmp,Pictures\IA100_L20.bmp,"Advisor 1 says:

"Go ahead and gamble!"",Pictures\IA100.bmp,"Advisor 2 says:

"Be cautious, don't gamble for this one."","

"Go ahead and gamble!"",1,40,0,0,0,0,0,7,7,4,,,,,,,,,,,,,,,,,,,,,,,,,127.60753223754,None,130.62958884050022,132.60900489630876,132.62556834207498,None,134.62626066277153,None,138.6606530767167,None,138.6606530767167,None,n,0.5725943022407591,138.6606530767167,None,None,None,139.32744280187762,None,139.32744280187762,None,right,139.32744280187762,None,None,None,140.17786763361073,142.24517296042177,126,0.8338044700794853,,001,2019_Jul_17_1417,Test,3.1.2,59.955787525775236,
Pictures\IA100_L40.bmp,Pictures\IA100_L40.bmp,"Advisor 1 says:

"Try your luck and gamble!"",Pictures\IA100.bmp,"Advisor 2 says:

"Go with the safe option here!"","

"Try your luck and gamble!"",1,45,0,0,0,0,0,8,8,5,,,,,,,,,,,,,,,,,,,,,,,,,142.26179487712216,None,145.28456246171845,147.26329335020273,147.27986115019303,None,149.28037214878714,None,153.31486937499722,None,153.31486937499722,None,n,1.2620611064776313,153.31486937499722,None,None,None,154.68176699147443,None,154.68176699147443,None,right,154.68176699147443,None,None,None,155.2322608375689,157.58300181664526,143,0.519149073807057,,001,2019_Jul_17_1417,Test,3.1.2,59.955787525775236,
Pictures\IA100_L80.bmp,Pictures\IA100_L80.bmp,"Advisor 1 says:

"Why not gamble?"",Pictures\IA100.bmp,"Advisor 2 says:

"That gamble doesn't sound too good, play it safe."","

"Why not gamble?"",1,55,0,0,0,0,0,9,9,7,,,,,,,,,,,,,,,,,,,,,,,,,157.59962031216128,None,160.60490664400277,162.60113651311258,162.60113651311258,None,164.61821282361052,None,168.65281268494437,None,168.65281268494437,None,n,1.0277876870823093,168.65281268494437,None,None,None,169.77019245331758,None,169.77019245331758,None,right,169.77019245331758,None,None,None,170.35344214938232,172.68744706903817,142,0.5503501569037326,,001,2019_Jul_17_1417,Test,3.1.2,59.955787525775236,
Pictures\IA25_L10.bmp,Pictures\IA25_L10.bmp,"Advisor 1 says:

"Dont be afraid to take the risk!"",Pictures\IA25.bmp,"Advisor 2 says:

"Be bold, gamble!"","

"Dont be afraid to take the risk!"",1,60,0,0,0,0,0,10,10,25,,,,,,,,,,,,,,,,,,,,,,,,,172.70412870071596,None,175.72301574391895,177.7056066467776,177.7221937297145,None,179.72280705245794,None,183.75714255057392,None,183.75714255057392,None,n,0.48311760774231516,183.75714255057392,None,None,None,184.34055366370012,None,184.34055366370012,None,left,184.34055366370012,None,185.05775186119718,187.2417318840453,None,None,0,0.6918140388152096,,001,2019_Jul_17_1417,Test,3.1.2,59.955787525775236,
Pictures\IA100_L80.bmp,Pictures\IA100_L80.bmp,"Advisor 1 says:

"Go all in!"",Pictures\IA100.bmp,"Advisor 2 says:

"There's not much on the line here, gamble!"","

"Go all in!"",1,50,0,0,0,0,0,11,11,23,,,,,,,,,,,,,,,,,,,,,,,,,187.25841444879188,None,190.28024898661533,192.2598693796608,192.2765040480008,None,194.27702188896365,None,198.29824465914862,None,198.29824465914862,None,n,0.44573384593240917,198.29824465914862,None,None,None,198.83328040884226,None,198.83328040884226,None,right,198.83328040884226,None,None,None,199.7287455839687,201.7459988622868,123,0.8708224775909912,,001,2019_Jul_17_1417,Test,3.1.2,59.955787525775236,
Pictures\IA50_L20.bmp,Pictures\IA50_L20.bmp,"Advisor 1 says:

"Certainty is boring, take a risk!"",Pictures\IA50.bmp,"Advisor 2 says:

"You'd have a lot to lose, don't gamble."","

"Certainty is boring, take a risk!"",1,20,0,0,0,0,0,12,12,17,,,,,,,,,,,,,,,,,,,,,,,,,201.76262762135593,None,204.78479339077603,206.76415253072628,206.78081208033836,None,208.78118125582114,None,212.81576587739983,None,212.81576587739983,None,n,0.9039297751733102,212.81576587739983,None,None,None,213.83253521550796,None,213.83253521550796,None,right,213.83253521550796,None,None,None,214.43306276013027,216.73371250278433,140,0.5832014886545949,,001,2019_Jul_17_1417,Test,3.1.2,59.955787525775236,
Pictures\IA25_L20.bmp,Pictures\IA25_L20.bmp,"Advisor 1 says:

"Don't be tempted to gamble."",Pictures\IA25.bmp,"Advisor 2 says:

"Take a leap, I think you should gamble."","

"Don't be tempted to gamble."",0,70,0,0,0,0,0,13,13,27,,,,,,,,,,,,,,,,,,,,,,,,,216.75041901573422,None,219.77241839183262,221.75185279754805,221.76844423473813,None,223.76894279272528,None,227.79023460837197,None,227.79023460837197,None,n,0.6733011473552324,227.79023460837197,None,None,None,228.57034721467062,None,228.57034721467062,None,left,228.57034721467062,None,229.1372748130525,231.4712738233793,None,None,0,0.5411929251276888,,001,2019_Jul_17_1417,Test,3.1.2,59.955787525775236,
Pictures\IA50_G10.bmp,Pictures\IA50_G10.bmp,"Advisor 1 says:

"Go with the safe option here!"",Pictures\IA50.bmp,"Advisor 2 says:

"Try your luck and gamble!"","

"Go with the safe option here!"",0,20,0,0,0,0,0,14,14,0,,,,,,,,,,,,,,,,,,,,,,,,,231.488078617258,None,234.51004658080637,236.4895397684595,236.5062269984337,None,238.50660021713702,None,242.54121625129483,None,242.54121625129483,None,n,0.4900955533084925,242.54121625129483,None,None,None,243.14109532843577,None,243.14109532843577,None,right,243.14109532843577,None,None,None,243.8916558562778,246.0423052723636,131,0.7221097555302549,,001,2019_Jul_17_1417,Test,3.1.2,59.955787525775236,
Pictures\IA100_L60.bmp,Pictures\IA100_L60.bmp,"Advisor 1 says:

"You'd have a lot to lose, don't gamble."",Pictures\IA100.bmp,"Advisor 2 says:

"Make it exciting, take a chance!"","

"You'd have a lot to lose, don't gamble."",0,45,0,0,0,0,0,15,15,22,,,,,,,,,,,,,,,,,,,,,,,,,246.0590155175014,None,249.09323531779228,251.06048568815459,251.07709423117922,None,253.0776509490679,None,257.11184835626045,None,257.11184835626045,None,n,1.0550709068775177,257.11184835626045,None,None,None,258.2633602185524,None,258.2633602185524,None,right,258.2633602185524,None,None,None,259.2961813817965,261.1801452007203,115,1.015556688333163,,001,2019_Jul_17_1417,Test,3.1.2,59.955787525775236,
Pictures\IA50_G30.bmp,Pictures\IA50_G30.bmp,"Advisor 1 says:

"I think you should gamble."",Pictures\IA50.bmp,"Advisor 2 says:

"Don't be tempted to gamble."","

"I think you should gamble."",1,30,0,0,0,0,0,16,16,2,,,,,,,,,,,,,,,,,,,,,,,,,261.19681003756705,None,264.2184268645069,266.19827585402527,266.2149469111755,None,268.2155185578158,None,272.2499367860728,None,272.2499367860728,None,n,1.1807806055585388,272.2499367860728,None,None,None,273.53618744036066,None,273.53618744036066,None,right,273.53618744036066,None,None,None,274.10056626604637,276.43461721600033,142,0.5425169184454717,,001,2019_Jul_17_1417,Test,3.1.2,59.955787525775236,
Pictures\IA75_L15.bmp,Pictures\IA75_L15.bmp,"Advisor 1 says:

"Take a chance!"",Pictures\IA75.bmp,"Advisor 2 says:

"I don't think you should gamble."","

"Take a chance!"",1,80,0,0,0,0,0,17,17,12,,,,,,,,,,,,,,,,,,,,,,,,,276.4512913833314,None,279.48532706242986,281.45277119547245,281.46931971248705,None,283.4697003955662,None,287.48775827122154,None,287.48775827122154,None,n,0.47894253459526226,287.48775827122154,None,None,None,288.05691554027726,None,288.05691554027726,None,right,288.05691554027726,None,None,None,289.08830136663164,290.97224061531597,115,1.0135867156495806,,001,2019_Jul_17_1417,Test,3.1.2,59.955787525775236,
Pictures\IA75_L60.bmp,Pictures\IA75_L60.bmp,"Advisor 1 says:

"Make it exciting, take a chance!"",Pictures\IA75.bmp,"Advisor 2 says:

"Let's stay with the certain option."","

"Make it exciting, take a chance!"",1,95,0,0,0,0,0,18,18,15,,,,,,,,,,,,,,,,,,,,,,,,,290.9889154046832,None,294.00966107696877,295.9903644262813,296.00703828257974,None,298.00760526399245,None,302.0417740577541,302.4918642989069,302.0417740577541,302.4918642989069,y,0.39609762528561987,302.0417740577541,None,302.47546538038296,305.4598287610279,306.0621984509344,None,306.0621984509344,None,right,306.0621984509344,None,None,None,307.3103627592209,308.9775219708972,102,1.2157813660160173,,001,2019_Jul_17_1417,Test,3.1.2,59.955787525775236,
Pictures\IA50_G20.bmp,Pictures\IA50_G20.bmp,"Advisor 1 says:

"Let's venture and take a risk!"",Pictures\IA50.bmp,"Advisor 2 says:

"Don't gamble for this one."","

"Let's venture and take a risk!"",1,25,0,0,0,0,0,19,19,1,,,,,,,,,,,,,,,,,,,,,,,,,308.99417094598175,None,312.0169288890611,313.99567595036933,314.0122306877165,None,316.0129071465926,None,320.0318097405543,None,320.0318097405543,None,n,0.42211594473337755,320.0318097405543,None,None,None,320.5499878237315,None,320.5499878237315,None,right,320.5499878237315,None,None,None,321.29780674920767,323.4650345398113,132,0.7197908233501948,,001,2019_Jul_17_1417,Test,3.1.2,59.955787525775236,
Pictures\IA75_L15.bmp,Pictures\IA75_L15.bmp,"Advisor 1 says:

"Trust me, gamble!"",Pictures\IA75.bmp,"Advisor 2 says:

"Play it safe, don’t gamble!"","

"Trust me, gamble!"",1,75,0,0,0,0,0,20,20,28,,,,,,,,,,,,,,,,,,,,,,,,,323.48174696206115,None,326.50083243320114,328.4831539965526,328.4999031186453,None,330.5004987134598,None,334.5182555260253,None,334.5182555260253,None,n,0.3992584766529035,334.5182555260253,None,None,None,335.0024582671467,None,335.0024582671467,None,right,335.0024582671467,None,None,None,335.93544311789447,337.91935210477095,121,0.9152137314667925,,001,2019_Jul_17_1417,Test,3.1.2,59.955787525775236,
Pictures\IA100_L60.bmp,Pictures\IA100_L60.bmp,"Advisor 1 says:

"Be cautious, don't gamble for this one."",Pictures\IA100.bmp,"Advisor 2 says:

"Why not take the gamble?"","

"Be cautious, don't gamble for this one."",0,50,0,0,0,0,0,21,21,6,,,,,,,,,,,,,,,,,,,,,,,,,337.93603000428993,None,340.95668423798634,342.937479025888,342.95413173313136,None,344.9547329262423,None,348.98906655824976,None,348.98906655824976,None,n,0.5683137948217336,348.98906655824976,None,None,None,349.6726091376913,None,349.6726091376913,None,left,349.6726091376913,None,350.45638426346704,352.57367850255105,None,None,0,0.7645612052292563,,001,2019_Jul_17_1417,Test,3.1.2,59.955787525775236,
Pictures\IA75_L45.bmp,Pictures\IA75_L45.bmp,"Advisor 1 says:

"Don't gamble for this one, play it safe."",Pictures\IA75.bmp,"Advisor 2 says:

"Go ahead and gamble!"","

"Don't gamble for this one, play it safe."",0,85,0,0,0,0,0,22,22,30,,,,,,,,,,,,,,,,,,,,,,,,,352.59033089879085,None,355.61172566062305,357.5918097778922,357.60846901647164,None,359.6087946497719,None,363.64642629100126,None,363.64642629100126,None,n,1.20657281667809,363.64642629100126,None,None,None,364.94369280617684,None,364.94369280617684,None,left,364.94369280617684,None,365.8942148924689,367.8614864118863,None,None,0,0.9332429936912376,,001,2019_Jul_17_1417,Test,3.1.2,59.955787525775236,
Pictures\IA50_L10.bmp,Pictures\IA50_L10.bmp,"Advisor 1 says:

"Play it safe, don’t gamble!"",Pictures\IA50.bmp,"Advisor 2 says:

"It would probably be best to play it safe."","

"Play it safe, don’t gamble!"",0,100,0,0,0,0,0,23,23,16,,,,,,,,,,,,,,,,,,,,,,,,,367.8781636893691,None,370.89750263816677,372.87961053382605,372.89625080046244,None,374.8967882353754,None,378.93110196240013,None,378.93110196240013,None,n,2.0576853038801346,378.93110196240013,None,None,None,381.08225149154896,None,381.08225149154896,None,right,381.08225149154896,None,None,None,381.79888954997296,383.99957328662276,134,0.690495332761202,,001,2019_Jul_17_1417,Test,3.1.2,59.955787525775236,
Pictures\IA25_L5.bmp,Pictures\IA25_L5.bmp,"Advisor 1 says:

"It would be smarter to choose the safe option."",Pictures\IA25.bmp,"Advisor 2 says:

"Certainty is boring, take a risk!"","

"It would be smarter to choose the safe option."",0,55,0,0,0,0,0,24,24,24,,,,,,,,,,,,,,,,,,,,,,,,,384.0162343912816,None,387.03619506026735,389.01771949068643,389.03438121738145,None,391.0349506869097,None,395.0692924053292,None,395.0692924053292,None,n,0.5030630369437858,395.0692924053292,None,None,None,395.68593895446975,None,395.68593895446975,None,left,395.68593895446975,None,396.5199213254964,398.58717626775615,None,None,0,0.8063831593899522,,001,2019_Jul_17_1417,Test,3.1.2,59.955787525775236,
Pictures\IA25_L10.bmp,Pictures\IA25_L10.bmp,"Advisor 1 says:

"What's life without a little risk?"",Pictures\IA25.bmp,"Advisor 2 says:

"Don't gamble for this one, play it safe."","

"What's life without a little risk?"",1,65,0,0,0,0,0,25,25,9,,,,,,,,,,,,,,,,,,,,,,,,,398.6038274199236,None,401.6255095601373,403.6053324243403,403.62200161541114,None,405.622573573055,None,409.6569261770055,None,409.6569261770055,None,n,1.4272579653479625,409.6569261770055,None,None,None,411.17545384168625,None,411.17545384168625,None,left,411.17545384168625,None,411.74100053089205,414.0916836610704,None,None,0,0.5407357322110329,,001,2019_Jul_17_1417,Test,3.1.2,59.955787525775236,
Pictures\IA50_L30.bmp,Pictures\IA50_L30.bmp,"Advisor 1 says:

"Take a leap, I think you should gamble."",Pictures\IA50.bmp,"Advisor 2 says:

"Hold back, stay with the safe choice."","

"Take a leap, I think you should gamble."",1,25,0,0,0,0,0,26,26,18,,,,,,,,,,,,,,,,,,,,,,,,,414.1084019925911,None,417.12725109187886,419.1098646988685,419.12655348394765,None,421.12714348049485,None,425.1614917302504,None,425.1614917302504,None,n,0.8424199127184693,425.1614917302504,None,None,None,426.11160296495655,None,426.11160296495655,None,right,426.11160296495655,None,None,None,426.67874671917525,429.01279238183633,142,0.5402664097200613,,001,2019_Jul_17_1417,Test,3.1.2,59.955787525775236,
Pictures\IA75_L60.bmp,Pictures\IA75_L60.bmp,"Advisor 1 says:

"Why not take the gamble?"",Pictures\IA75.bmp,"Advisor 2 says:

"It would be smarter to choose the safe option."","

"Why not take the gamble?"",1,90,0,0,0,0,0,27,27,31,,,,,,,,,,,,,,,,,,,,,,,,,429.02947245846735,None,432.0506914964935,434.0309258342895,434.04758662794484,None,436.0480036998342,None,440.0824309475429,None,440.0824309475429,None,n,0.6892643330793362,440.0824309475429,None,None,None,440.86886867770227,None,440.86886867770227,None,right,440.86886867770227,None,None,None,441.6331101589021,443.7838118256186,131,0.7346352860040497,,001,2019_Jul_17_1417,Test,3.1.2,59.955787525775236,
Pictures\IA100_L40.bmp,Pictures\IA100_L40.bmp,"Advisor 1 says:

"Think of the payoff, gamble!"",Pictures\IA100.bmp,"Advisor 2 says:

"I think you should take a gamble."","

"Think of the payoff, gamble!"",1,40,0,0,0,0,0,28,28,21,,,,,,,,,,,,,,,,,,,,,,,,,443.80033204023493,None,446.82151375635294,448.80194030178245,448.8184561621747,None,450.819194824202,None,454.8536180286901,455.3203762168705,454.8536180286901,455.3203762168705,y,0.3817445672757458,454.8536180286901,None,455.3037745161855,458.2547360674944,458.8714445087535,None,458.8714445087535,None,left,458.8714445087535,None,459.2716935700155,461.78909971250687,None,None,0,0.37178584837238304,,001,2019_Jul_17_1417,Test,3.1.2,59.955787525775236,
Pictures\IA75_L45.bmp,Pictures\IA75_L45.bmp,"Advisor 1 says:

"Don't gamble for this one."",Pictures\IA75.bmp,"Advisor 2 says:

"Trust me, gamble!"","

"Don't gamble for this one."",0,90,0,0,0,0,0,29,29,14,,,,,,,,,,,,,,,,,,,,,,,,,461.8057763679535,None,464.82434119901154,466.8072353420721,466.8238557036966,None,468.82448364415905,None,472.8443712244625,473.4089951304195,472.8443712244625,473.4089951304195,y,0.48662026520469226,472.8443712244625,None,473.394034658937,476.36004034493817,476.8765022441221,None,476.8765022441221,None,left,476.8765022441221,None,477.4270467857423,479.79439692987944,None,None,0,0.534376085648546,,001,2019_Jul_17_1417,Test,3.1.2,59.955787525775236,
Pictures\IA75_L30.bmp,Pictures\IA75_L30.bmp,"Advisor 1 says:

"Be bold, gamble!"",Pictures\IA75.bmp,"Advisor 2 says:

"Dont be afraid to take the risk!"","

"Be bold, gamble!"",1,85,0,0,0,0,0,30,30,13,,,,,,,,,,,,,,,,,,,,,,,,,479.8110819827707,None,482.82985737134004,484.8125300713,484.8290894738748,None,486.8298265807971,None,490.84745992018725,491.69775412537274,490.84745992018725,491.69775412537274,y,0.7710869341390207,490.84745992018725,None,491.6810591200192,494.64872998342616,494.89842697649146,None,494.89842697649146,None,right,494.89842697649146,None,None,None,496.18253691054997,497.799687615945,99,1.2642382155463565,,001,2019_Jul_17_1417,Test,3.1.2,59.955787525775236,
Pictures\IA75_L30.bmp,Pictures\IA75_L30.bmp,"Advisor 1 says:

"Hold back, stay with the safe choice."",Pictures\IA75.bmp,"Advisor 2 says:

"Try to win as much money as you can, gamble!"","

"Hold back, stay with the safe choice."",0,80,0,0,0,0,0,31,31,29,,,,,,,,,,,,,,,,,,,,,,,,,497.8163269495126,None,500.8372402592213,502.81779058882967,502.834411883523,None,504.8347913225298,None,508.86947702418547,None,508.86947702418547,None,n,1.3569348543533124,508.86947702418547,None,None,None,510.3214423782774,None,510.3214423782774,None,left,510.3214423782774,None,511.33698755904334,513.2375602320535,None,None,0,0.9928848965500947,,001,2019_Jul_17_1417,Test,3.1.2,59.955787525775236,
