Choice,Choice2,Amount,AdviceVar1,GambleAdviceNum,GambleAdviceType,trials_2.thisRepN,trials_2.thisTrialN,trials_2.thisN,trials_2.thisIndex,trials.thisRepN,trials.thisTrialN,trials.thisN,trials.thisIndex,instructions.started,instructions.stopped,space.keys,space.rt,space.started,space.stopped,chooseInst.started,chooseInst.stopped,Ad1.started,Ad1.stopped,Ad2.started,Ad2.stopped,key_resp_3.keys,key_resp_3.rt,key_resp_3.started,key_resp_3.stopped,Ad1pic.started,Ad1pic.stopped,Ad2pic.started,Ad2pic.stopped,enter.keys,enter.rt,enter.started,enter.stopped,iSi.started,iSi.stopped,receiveMoneyPicture.started,receiveMoneyPicture.stopped,ISI2.started,ISI2.stopped,ChoicePic.started,ChoicePic.stopped,response.keys,response.rt,response.started,response.stopped,yesNo.started,yesNo.stopped,ask.started,ask.stopped,getAdv.started,getAdv.stopped,textForCode.started,textForCode.stopped,blank.started,blank.stopped,ChoicePic2.started,ChoicePic2.stopped,resp.keys,resp.rt,resp.started,resp.stopped,checkL1.started,checkL1.stopped,checkR1.started,checkR1.stopped,endText.started,endText.stopped,key_resp_2.keys,key_resp_2.rt,key_resp_2.started,key_resp_2.stopped,participant,session,date,expName,psychopyVersion,frameRate,
,,,,,,,,,,,,,,5.7525367208290845,None,space,1.8381832585437223,5.7525367208290845,None,,,,,,,,,,,,,,,,,,,,,,,,,,,,,,,,,,,,,,,,,,,,,,,,,,,,,,,,,,001,2019_Jul_23_1220,Test,3.1.2,60.02865822110824,
Pictures\IA20_10_L95p.bmp,Pictures\IA20_10_L95p.bmp,Pictures\IA20.bmp,"

"Certainty is boring, take a risk!"",1,risk,0,0,0,0,0,0,0,0,,,,,,,10.069386332063004,None,10.069386332063004,None,10.069386332063004,None,left,1.2172925906488672,10.069386332063004,None,10.069386332063004,None,10.069386332063004,None,return,1.4811690950300545,10.069386332063004,None,11.619855296914466,None,13.72078265203163,15.588073547696695,15.604739939677529,None,17.122478868812323,None,y,0.9101961171254516,19.47218758717645,None,19.47218758717645,None,19.47218758717645,None,20.62249892926775,None,20.62249892926775,21.606510551297106,22.79367101949174,None,22.79367101949174,None,right,0.5806449406081811,22.79367101949174,None,None,None,23.390328597277403,24.590722778462805,,,,,,,,001,2019_Jul_23_1220,Test,3.1.2,60.02865822110824,
Pictures\IA50_L10.bmp,Pictures\IA50_L10.bmp,Pictures\IA50.bmp,"

"Play it safe, don’t gamble!"",0,safe,0,0,0,0,0,1,1,12,,,,,,,,,,,,,,,,,,,,,,,,,24.607386371237226,None,26.641199985169806,28.608529353514314,28.626268438179977,None,30.12565371580422,None,n,1.3330544560449198,32.112950284499675,None,32.112950284499675,None,32.112950284499675,None,None,None,None,None,33.57639895589091,None,33.57639895589091,None,right,0.5255133856553584,33.57639895589091,None,None,None,34.12684490554966,35.49372697120998,,,,,,,,001,2019_Jul_23_1220,Test,3.1.2,60.02865822110824,
Pictures\IA75_L15.bmp,Pictures\IA75_L15.bmp,Pictures\IA75.bmp,"

"Trust me, gamble!"",1,risk,0,0,0,0,0,2,2,2,,,,,,,,,,,,,,,,,,,,,,,,,35.51027331117075,None,37.53337430441752,39.51178920106031,39.528448750730604,None,41.02870207291562,None,y,1.2729351442540064,43.02906005177647,None,43.02906005177647,None,43.02906005177647,None,44.39634581573773,None,44.39634581573773,45.396847172873095,46.51359060336836,None,46.51359060336836,None,right,0.4763508416945115,46.51359060336836,None,None,None,47.01397393003572,48.381055045640096,,,,,,,,001,2019_Jul_23_1220,Test,3.1.2,60.02865822110824,
Pictures\IA75_G60.bmp,Pictures\IA75_G60.bmp,Pictures\IA75.bmp,"

"There's not much on the line here, gamble!"",1,risk,0,0,0,0,0,3,3,6,,,,,,,,,,,,,,,,,,,,,,,,,48.39772548084147,None,50.42024611902889,52.39890298584942,52.41547389596235,None,53.915987849235535,None,n,0.975630063097924,55.949798664078116,None,55.949798664078116,None,55.949798664078116,None,None,None,None,None,57.034056206117384,None,57.034056206117384,None,left,0.5234799657482654,57.034056206117384,None,57.58344687987119,58.950825948501006,None,None,,,,,,,,001,2019_Jul_23_1220,Test,3.1.2,60.02865822110824,
Pictures\IA80_40_G95p.bmp,Pictures\IA80_40_G95p.bmp,Pictures\IA80.bmp,"

"I think you should gamble."",1,risk,0,0,0,0,0,4,4,3,,,,,,,,,,,,,,,,,,,,,,,,,58.967371977400035,None,60.98671496938914,62.96867575473152,62.98530700185802,None,64.48558365029749,None,y,1.0139618003740907,66.50357185839675,None,66.50357185839675,None,66.50357185839675,None,67.60300260665826,None,67.60300260665826,68.60366724687628,69.67119899298996,None,69.67119899298996,None,left,0.30216718767769635,69.67119899298996,None,70.00405284401495,71.58788756036665,None,None,,,,,,,,001,2019_Jul_23_1220,Test,3.1.2,60.02865822110824,
Pictures\IA40_20_L95p.bmp,Pictures\IA40_20_L95p.bmp,Pictures\IA40.bmp,"

"Trust me, gamble!"",1,risk,0,0,0,0,0,5,5,7,,,,,,,,,,,,,,,,,,,,,,,,,71.60454835405108,None,73.62797746877186,75.60571901663207,75.62233782326803,None,77.12255195749458,None,y,1.609316533897072,79.13991626841016,None,79.13991626841016,None,79.13991626841016,None,80.84014452272095,None,80.84014452272095,81.82422083592974,82.89476756716613,None,82.89476756716613,None,right,0.5663802109193057,82.89476756716613,None,None,None,83.49139559839386,84.80842155544087,,,,,,,,001,2019_Jul_23_1220,Test,3.1.2,60.02865822110824,
Pictures\IA40_20_L95p.bmp,Pictures\IA40_20_L95p.bmp,Pictures\IA40.bmp,"

"Be bold, gamble!"",1,risk,0,0,0,0,0,6,6,8,,,,,,,,,,,,,,,,,,,,,,,,,84.82509883295279,None,86.84460137598217,88.82627944811247,88.84289234539028,None,90.34317863523029,None,y,1.712796394014731,92.3641572581837,None,92.3641572581837,None,92.3641572581837,None,94.16079754347447,None,94.16079754347447,95.1613794536097,96.24690189608373,None,96.24690189608373,None,left,0.27003803418483585,96.24690189608373,None,96.54516179498751,98.14567005657591,None,None,,,,,,,,001,2019_Jul_23_1220,Test,3.1.2,60.02865822110824,
Pictures\IA100_G80.bmp,Pictures\IA100_G80.bmp,Pictures\IA100.bmp,"

"Dont be afraid to take the risk!"",1,risk,0,0,0,0,0,7,7,1,,,,,,,,,,,,,,,,,,,,,,,,,98.16235013329424,None,100.18396136187948,102.16353105939925,102.18010507966392,None,103.68061685585417,None,None,,105.69776594394352,None,105.69776594394352,None,105.69776594394352,None,None,None,None,None,108.75172590324655,None,108.75172590324655,None,right,0.7650305277202278,108.75172590324655,None,None,None,109.54903798212763,110.6993682961911,,,,,,,,001,2019_Jul_23_1220,Test,3.1.2,60.02865822110824,
Pictures\IA100_L20.bmp,Pictures\IA100_L20.bmp,Pictures\IA100.bmp,"

"Go with the safe option here!"",0,safe,0,0,0,0,0,8,8,10,,,,,,,,,,,,,,,,,,,,,,,,,110.71604277461302,None,112.7349105348112,114.71722494484857,114.73388480546419,None,116.23416425287724,None,y,1.6245954852784052,118.2519941541832,None,118.2519941541832,None,118.2519941541832,None,119.98525817249902,None,119.98525817249902,120.96903622173704,122.05231810791884,None,122.05231810791884,None,right,0.8561462743673474,122.05231810791884,None,None,None,122.93626046681311,123.95325435814448,,,,,,,,001,2019_Jul_23_1220,Test,3.1.2,60.02865822110824,
Pictures\IA40_20_L95p.bmp,Pictures\IA40_20_L95p.bmp,Pictures\IA40.bmp,"

"Make it exciting, take a chance!"",1,risk,0,0,0,0,0,9,9,19,,,,,,,,,,,,,,,,,,,,,,,,,123.96994936349802,None,125.98972622235306,127.97111971513368,127.98778548510745,None,129.4882201293949,None,y,0.7190913492813706,131.50930854084436,None,131.50930854084436,None,131.50930854084436,None,132.33884743216913,None,132.33884743216913,133.32268426346127,134.406120724394,None,134.406120724394,None,right,0.3182249221717939,134.406120724394,None,None,None,134.7564477417618,136.30687596357893,,,,,,,,001,2019_Jul_23_1220,Test,3.1.2,60.02865822110824,
Pictures\IA50_G40.bmp,Pictures\IA50_G40.bmp,Pictures\IA50.bmp,"

"It would probably be best to play it safe."",0,safe,0,0,0,0,0,10,10,17,,,,,,,,,,,,,,,,,,,,,,,,,136.32352556067053,None,138.34559118305333,140.32470182154793,140.34141610993538,None,141.8418193416437,None,y,0.5927496668882668,143.87541400059126,None,143.87541400059126,None,143.87541400059126,None,144.57587365049403,None,144.57587365049403,145.57628294697497,146.64337802724913,None,146.64337802724913,None,right,0.28864391916431487,146.64337802724913,None,None,None,146.95984913257416,148.56049766228534,,,,,,,,001,2019_Jul_23_1220,Test,3.1.2,60.02865822110824,
Pictures\IA25_G15.bmp,Pictures\IA25_G15.bmp,Pictures\IA25.bmp,"

"I think you should take a gamble."",1,risk,0,0,0,0,0,11,11,9,,,,,,,,,,,,,,,,,,,,,,,,,148.5771671643015,None,150.59744040400255,152.57833627192304,152.59489505249076,None,154.09525940718595,None,y,1.6106790931662545,156.11305291962344,None,156.11305291962344,None,156.11305291962344,None,157.82966609671712,None,157.82966609671712,158.83016683184542,159.9019081739243,None,159.9019081739243,None,right,0.7657791421515867,159.9019081739243,None,None,None,160.697408276028,161.81438248010818,,,,,,,,001,2019_Jul_23_1220,Test,3.1.2,60.02865822110824,
Pictures\IA20_10_G95p.bmp,Pictures\IA20_10_G95p.bmp,Pictures\IA20.bmp,"

"Take a leap, I think you should gamble."",1,risk,0,0,0,0,0,12,12,4,,,,,,,,,,,,,,,,,,,,,,,,,161.83100408583414,None,163.8508014716208,165.8322378846351,165.8488681986928,None,167.34927609562874,None,None,,169.36993592767976,None,169.36993592767976,None,169.36993592767976,None,None,None,None,None,172.43723410111852,None,172.43723410111852,None,right,0.5583693826338276,172.43723410111852,None,None,None,173.01763862662483,174.3846985931741,,,,,,,,001,2019_Jul_23_1220,Test,3.1.2,60.02865822110824,
Pictures\IA50_G20.bmp,Pictures\IA50_G20.bmp,Pictures\IA50.bmp,"

"Let's venture and take a risk!"",1,risk,0,0,0,0,0,13,13,15,,,,,,,,,,,,,,,,,,,,,,,,,174.4014243890997,None,176.42099193437025,178.40260344918352,178.41919550846796,None,179.91952191921882,None,None,,181.94007849413902,None,181.94007849413902,None,181.94007849413902,None,None,None,None,None,185.00417693925556,None,185.00417693925556,None,right,1.1271493898238987,185.00417693925556,None,None,None,186.15488047199324,None,,,,,,,,001,2019_Jul_23_1220,Test,3.1.2,60.02865822110824,
Pictures\IA25_L5.bmp,Pictures\IA25_L5.bmp,Pictures\IA25.bmp,"

"Go all in!"",1,risk,0,0,0,0,0,14,14,14,,,,,,,,,,,,,,,,,,,,,,,,,186.95512480591424,None,188.9781732375268,190.95630106679164,190.97295253002085,None,192.47339215048123,None,y,0.5606298438506201,194.49052040057722,None,194.49052040057722,None,194.49052040057722,None,195.14063471439295,None,195.14063471439295,196.12448958458845,197.19456326100044,None,197.19456326100044,None,left,0.49649594293441623,197.19456326100044,None,197.70827111718245,199.10869217012078,None,None,,,,,,,,001,2019_Jul_23_1220,Test,3.1.2,60.02865822110824,
Pictures\IA50_L40.bmp,Pictures\IA50_L40.bmp,Pictures\IA50.bmp,"

"Go all in!"",1,risk,0,0,0,0,0,15,15,16,,,,,,,,,,,,,,,,,,,,,,,,,199.1253703807015,None,201.14871365507133,203.12654415343422,203.1431243941188,None,204.64344738377258,None,None,,206.66135286178906,None,206.66135286178906,None,206.66135286178906,None,None,None,None,None,209.71141797292512,None,209.71141797292512,None,right,0.3155022917781025,209.71141797292512,None,None,None,210.04524934582878,211.61237475008238,,,,,,,,001,2019_Jul_23_1220,Test,3.1.2,60.02865822110824,
Pictures\IA80_40_L95p.bmp,Pictures\IA80_40_L95p.bmp,Pictures\IA80.bmp,"

"Try your luck and gamble!"",1,risk,0,0,0,0,0,16,16,18,,,,,,,,,,,,,,,,,,,,,,,,,211.6290327446768,None,213.64961046853568,215.63020745047834,215.6468750864733,None,217.14723881916143,None,y,0.5339297783793882,219.18093144812156,None,219.18093144812156,None,219.18093144812156,None,219.80054819607176,None,219.80054819607176,220.7984065427445,221.88167070108466,None,221.88167070108466,None,left,0.9449449548264965,221.88167070108466,None,222.84925821225625,None,None,None,,,,,,,,001,2019_Jul_23_1220,Test,3.1.2,60.02865822110824,
Pictures\IA110_55_G95p.bmp,Pictures\IA110_55_G95p.bmp,Pictures\IA110.bmp,"

"Be bold, gamble!"",1,risk,0,0,0,0,0,17,17,11,,,,,,,,,,,,,,,,,,,,,,,,,223.79927769734059,None,225.8330465251347,227.80045458034147,227.81699532200582,None,229.31754006573465,None,y,1.0597992767579854,231.33464747783728,None,231.33464747783728,None,231.33464747783728,None,232.48493300564587,None,232.48493300564587,233.46879658428952,234.55228374071885,None,234.55228374071885,None,right,0.54614615929313,234.55228374071885,None,None,None,235.1192072959384,236.45296247000806,,,,,,,,001,2019_Jul_23_1220,Test,3.1.2,60.02865822110824,
Pictures\IA40_20_G95p.bmp,Pictures\IA40_20_G95p.bmp,Pictures\IA40.bmp,"

"There's not much on the line here, gamble!"",1,risk,0,0,0,0,0,18,18,13,,,,,,,,,,,,,,,,,,,,,,,,,236.46966525085736,None,238.4907710790867,240.47084431082476,240.48744787764736,None,241.9878806557972,None,y,0.9542959494283423,244.00906517112162,None,244.00906517112162,None,244.00906517112162,None,245.07175689283758,None,245.07175689283758,246.05575762921944,247.13925629330333,None,247.13925629330333,None,left,0.9828605534275994,247.13925629330333,None,248.13969638035633,None,None,None,,,,,,,,001,2019_Jul_23_1220,Test,3.1.2,60.02865822110824,
Pictures\IA50_G10.bmp,Pictures\IA50_G10.bmp,Pictures\IA50.bmp,"

"Go with the safe option here!"",0,safe,0,0,0,0,0,19,19,5,,,,,,,,,,,,,,,,,,,,,,,,,249.05670933693182,None,251.08000502595678,253.05791545542888,253.07454608054832,None,254.55811777105555,None,y,1.0098290253663436,256.59213758830447,None,256.59213758830447,None,256.59213758830447,None,257.69217823806684,None,257.69217823806684,258.6761687110411,259.7437275154516,None,259.7437275154516,None,right,0.35421066894195974,259.7437275154516,None,None,None,260.12662906071637,261.6603949337732,,,,,,,,001,2019_Jul_23_1220,Test,3.1.2,60.02865822110824,
,,,,,,0,0,0,0,,,,,,,,,,,,,,,,,,,,,,,,,,,,,,,,,,,,,,,,,,,,,,,,,,,,,,,,,,,,,262.1601416115882,None,return,7.377595930360258,262.1601416115882,None,,001,2019_Jul_23_1220,Test,3.1.2,60.02865822110824,
Pictures\IA25_G5.bmp,Pictures\IA25_G5.bmp,Pictures\IA25.bmp,"

"Let's stay with the certain option."",0,safe,1,0,1,0,0,0,0,15,,,,,,,269.6624227553839,None,269.6624227553839,None,269.6624227553839,None,right,1.7552257614443079,269.6624227553839,None,269.6624227553839,None,269.6624227553839,None,return,2.0351998104015365,269.6624227553839,None,271.7631143607432,None,273.7526203839807,275.73120136302896,275.7477750722319,None,277.2481478244299,None,n,1.208195073879324,279.2654007917736,None,279.2654007917736,None,279.2654007917736,None,None,None,None,None,280.5989743327955,None,280.5989743327955,None,right,0.3626255064737052,280.5989743327955,None,None,None,280.9827551190974,282.53319920261856,,,,,,,,001,2019_Jul_23_1220,Test,3.1.2,60.02865822110824,
Pictures\IA50_G10.bmp,Pictures\IA50_G10.bmp,Pictures\IA50.bmp,"

"Go with the safe option here!"",0,safe,1,0,1,0,0,1,1,16,,,,,,,,,,,,,,,,,,,,,,,,,282.5498914088821,None,284.5682176910341,286.5510729571106,286.5677318846574,None,288.06801661942154,None,y,0.9450569205218926,290.08827026502695,None,290.08827026502695,None,290.08827026502695,None,291.11883563234005,None,291.11883563234005,292.11937120114453,293.1899462346919,None,293.1899462346919,None,left,0.4273652656702325,293.1899462346919,None,293.6363811097108,295.10356165713165,None,None,,,,,,,,001,2019_Jul_23_1220,Test,3.1.2,60.02865822110824,
Pictures\IA25_L10.bmp,Pictures\IA25_L10.bmp,Pictures\IA25.bmp,"

"Go with the safe option here!"",0,safe,1,0,1,0,0,2,2,1,,,,,,,,,,,,,,,,,,,,,,,,,295.1202485760441,None,297.1387763962848,299.1213999557076,299.1380881187506,None,300.6383358426392,None,y,1.1113976946799085,302.65776249789633,None,302.65776249789633,None,302.65776249789633,None,303.8420893031871,None,303.8420893031871,304.80641612701584,305.87820194428787,None,305.87820194428787,None,left,0.5308022055542096,305.87820194428787,None,306.44023446843494,307.7906106262235,None,None,,,,,,,,001,2019_Jul_23_1220,Test,3.1.2,60.02865822110824,
Pictures\IA50_L30.bmp,Pictures\IA50_L30.bmp,Pictures\IA50.bmp,"

"Take a leap, I think you should gamble."",1,risk,1,0,1,0,0,3,3,2,,,,,,,,,,,,,,,,,,,,,,,,,307.8073025214253,None,309.826596683939,311.8084850026062,311.82510412018746,None,313.32556955504697,None,y,1.2138851039344445,315.34703336225357,None,315.34703336225357,None,315.34703336225357,None,316.6761743093375,None,316.6761743093375,317.66019152954686,318.7268297279952,None,318.7268297279952,None,right,0.4420601298334077,318.7268297279952,None,None,None,319.1940024999203,320.6444242837606,,,,,,,,001,2019_Jul_23_1220,Test,3.1.2,60.02865822110824,
Pictures\IA20_10_G95p.bmp,Pictures\IA20_10_G95p.bmp,Pictures\IA20.bmp,"

"Try your luck and gamble!"",1,risk,1,0,1,0,0,4,4,17,,,,,,,,,,,,,,,,,,,,,,,,,320.6610912976321,None,322.68346420349553,324.6622538738884,324.678926175111,None,326.1792133980198,None,y,1.140284510795027,328.1964436612325,None,328.1964436612325,None,328.1964436612325,None,329.43009256129153,None,329.43009256129153,330.413913841825,331.4974025533302,None,331.4974025533302,None,left,0.9112467276863754,331.4974025533302,None,332.43116245488636,None,None,None,,,,,,,,001,2019_Jul_23_1220,Test,3.1.2,60.02865822110824,
Pictures\IA110_55_G95p.bmp,Pictures\IA110_55_G95p.bmp,Pictures\IA110.bmp,"

"Take a chance!"",1,risk,1,0,1,0,0,5,5,10,,,,,,,,,,,,,,,,,,,,,,,,,333.4148310268065,None,335.43587993923575,337.4160191062838,337.43269420671277,None,338.93308219860774,None,y,0.9381551737897098,340.95021075964905,None,340.95021075964905,None,340.95021075964905,None,341.9837914230302,None,341.9837914230302,342.9676400728058,344.0342459256062,None,344.0342459256062,None,right,1.7101617810549214,344.0342459256062,None,None,None,345.7684641397791,None,,,,,,,,001,2019_Jul_23_1220,Test,3.1.2,60.02865822110824,
Pictures\IA110_55_L95p.bmp,Pictures\IA110_55_L95p.bmp,Pictures\IA110.bmp,"

"Go all in!"",1,risk,1,0,1,0,0,6,6,12,,,,,,,,,,,,,,,,,,,,,,,,,345.9684897674015,None,347.98822090693284,349.9696734927129,349.98633273132145,None,351.4866047144169,None,y,1.0636197922285646,353.5205813004868,None,353.5205813004868,None,353.5205813004868,None,354.6708879774669,None,354.6708879774669,355.6546781563666,356.72712052753195,None,356.72712052753195,None,left,0.5449615009129047,356.72712052753195,None,357.28831984091084,358.63893796887714,None,None,,,,,,,,001,2019_Jul_23_1220,Test,3.1.2,60.02865822110824,
Pictures\IA100_L60.bmp,Pictures\IA100_L60.bmp,Pictures\IA100.bmp,"

"You'd have a lot to lose, don't gamble."",0,safe,1,0,1,0,0,7,7,18,,,,,,,,,,,,,,,,,,,,,,,,,358.65556548384484,None,360.67547079198994,362.65673148131464,362.6733630395029,None,364.1738527334528,None,y,0.4083637687144801,366.20764208817855,None,366.20764208817855,None,366.20764208817855,None,366.7244352189591,None,366.7244352189591,367.70825743256137,368.7915358975297,None,368.7915358975297,None,right,0.3684918823419139,368.7915358975297,None,None,None,369.1920036027441,370.692421141197,,,,,,,,001,2019_Jul_23_1220,Test,3.1.2,60.02865822110824,
Pictures\IA40_20_L95p.bmp,Pictures\IA40_20_L95p.bmp,Pictures\IA40.bmp,"

"Be bold, gamble!"",1,risk,1,0,1,0,0,8,8,3,,,,,,,,,,,,,,,,,,,,,,,,,370.709132630378,None,372.73172697925474,374.710333461524,374.7269796375185,None,376.227394376765,None,y,1.1146593150915578,378.2611050445121,None,378.2611050445121,None,378.2611050445121,None,379.4614920723252,None,379.4614920723252,380.4619881422259,381.5454787198687,None,381.5454787198687,None,right,0.27815180853940547,381.5454787198687,None,None,None,381.84573347272817,383.4462050345028,,,,,,,,001,2019_Jul_23_1220,Test,3.1.2,60.02865822110824,
Pictures\IA40_20_G95p.bmp,Pictures\IA40_20_G95p.bmp,Pictures\IA40.bmp,"

"Take a chance!"",1,risk,1,0,1,0,0,9,9,5,,,,,,,,,,,,,,,,,,,,,,,,,383.4628848001594,None,385.4842484603869,387.4640610610368,387.4806724032387,None,388.98110953567084,None,y,1.4326771007617936,391.0149219054729,None,391.0149219054729,None,391.0149219054729,None,392.54868715652265,None,392.54868715652265,393.5325031498214,394.6159579606028,None,394.6159579606028,None,left,1.095513506908901,394.6159579606028,None,395.7331564069027,None,None,None,,,,,,,,001,2019_Jul_23_1220,Test,3.1.2,60.02865822110824,
Pictures\IA25_G10.bmp,Pictures\IA25_G10.bmp,Pictures\IA25.bmp,"

"What's life without a little risk?"",1,risk,1,0,1,0,0,10,10,7,,,,,,,,,,,,,,,,,,,,,,,,,396.53340291790664,None,398.5563173018163,400.53452879423276,400.55123810633086,None,402.05161987803876,None,y,1.378415456507355,404.06885014113504,None,404.06885014113504,None,404.06885014113504,None,405.53863793215714,None,405.53863793215714,406.5363283304032,407.6070150185842,None,407.6070150185842,None,right,0.44823565520346165,407.6070150185842,None,None,None,408.08677614619955,409.5205424235901,,,,,,,,001,2019_Jul_23_1220,Test,3.1.2,60.02865822110824,
Pictures\IA25_L20.bmp,Pictures\IA25_L20.bmp,Pictures\IA25.bmp,"

"Let's venture and take a risk!"",1,risk,1,0,1,0,0,11,11,19,,,,,,,,,,,,,,,,,,,,,,,,,409.53716496238485,None,411.5561894744169,413.5383782341378,413.554926129058,None,415.05530354648363,None,y,1.0832184390164912,417.07564552058466,None,417.07564552058466,None,417.07564552058466,None,418.2561552316183,None,418.2561552316183,419.24006826162804,420.30876071797684,None,420.30876071797684,None,left,0.7782508670352399,420.30876071797684,None,421.1072397273965,422.22430350387003,None,None,,,,,,,,001,2019_Jul_23_1220,Test,3.1.2,60.02865822110824,
Pictures\IA75_G15.bmp,Pictures\IA75_G15.bmp,Pictures\IA75.bmp,"

"Take a chance!"",1,risk,1,0,1,0,0,12,12,13,,,,,,,,,,,,,,,,,,,,,,,,,422.2409344400512,None,424.263076261268,426.24211940949317,426.25871364574414,None,427.74719565024134,None,y,0.5025221809046343,429.77618416852783,None,429.77618416852783,None,429.77618416852783,None,430.3762563862838,None,430.3762563862838,431.3602493474027,432.4268872347893,None,432.4268872347893,None,right,0.8278429234633222,432.4268872347893,None,None,None,433.2775238681352,434.3444967191899,,,,,,,,001,2019_Jul_23_1220,Test,3.1.2,60.02865822110824,
Pictures\IA25_G5.bmp,Pictures\IA25_G5.bmp,Pictures\IA25.bmp,"

"Be cautious, don't gamble for this one."",0,safe,1,0,1,0,0,13,13,6,,,,,,,,,,,,,,,,,,,,,,,,,434.36117119761184,None,436.38350802555215,438.362338128034,438.37893360841554,None,439.8794310778612,None,y,0.9742090329527855,441.89655061950907,None,441.89655061950907,None,441.89655061950907,None,442.98013761197217,None,442.98013761197217,443.9639843957266,445.04750762996264,None,445.04750762996264,None,right,0.4070285789202899,445.04750762996264,None,None,None,445.48110938013997,446.94820284307934,,,,,,,,001,2019_Jul_23_1220,Test,3.1.2,60.02865822110824,
Pictures\IA80_40_G95p.bmp,Pictures\IA80_40_G95p.bmp,Pictures\IA80.bmp,"

"Think of the payoff, gamble!"",1,risk,1,0,1,0,0,14,14,8,,,,,,,,,,,,,,,,,,,,,,,,,446.96488012059126,None,448.98739422741346,450.96603803162,450.9826842074981,None,452.4831875861855,None,y,1.0980784523999318,454.50026482972316,None,454.50026482972316,None,454.50026482972316,None,455.68604656588286,None,455.68604656588286,456.68439538415987,457.7676813135622,None,457.7676813135622,None,left,0.33472523163072765,457.7676813135622,None,458.1347901095869,459.6686088552233,None,None,,,,,,,,001,2019_Jul_23_1220,Test,3.1.2,60.02865822110824,
Pictures\IA100_G20.bmp,Pictures\IA100_G20.bmp,Pictures\IA100.bmp,"

"Trust me, gamble!"",1,risk,1,0,1,0,0,15,15,14,,,,,,,,,,,,,,,,,,,,,,,,,459.68528208951466,None,461.70776913804,463.68644342175685,463.7031253644964,None,465.203439645702,None,y,1.5853328783996403,467.22066648770124,None,467.22066648770124,None,467.22066648770124,None,468.9044295771746,None,468.9044295771746,469.88826827460434,470.97156882169656,None,470.97156882169656,None,right,0.4104295342694968,470.97156882169656,None,None,None,471.4053123949561,472.87248609995004,,,,,,,,001,2019_Jul_23_1220,Test,3.1.2,60.02865822110824,
Pictures\IA75_G30.bmp,Pictures\IA75_G30.bmp,Pictures\IA75.bmp,"

"Don't gamble for this one."",0,safe,1,0,1,0,0,16,16,0,,,,,,,,,,,,,,,,,,,,,,,,,472.88916897564195,None,474.922840455547,476.8903343511047,476.9070181598654,None,478.40744254062884,None,y,0.6286564157344401,480.4412054590648,None,480.4412054590648,None,480.4412054590648,None,481.1578369861236,None,481.1578369861236,482.1418877961114,483.2090494337026,None,483.2090494337026,None,right,0.5967897593509406,483.2090494337026,None,None,None,483.8256188509986,485.1260897597531,,,,,,,,001,2019_Jul_23_1220,Test,3.1.2,60.02865822110824,
Pictures\IA50_G40.bmp,Pictures\IA50_G40.bmp,Pictures\IA50.bmp,"

"There's not much on the line here, gamble!"",1,risk,1,0,1,0,0,17,17,4,,,,,,,,,,,,,,,,,,,,,,,,,485.14275304146577,None,487.17666213726625,489.1439131295774,489.1606159103103,None,490.6608452843502,None,n,0.39150112599600106,492.6781738284044,None,492.6781738284044,None,492.6781738284044,None,None,None,None,None,493.19549692980945,None,493.19549692980945,None,right,0.6901336216833442,493.19549692980945,None,None,None,493.9120133811375,495.1456958708586,,,,,,,,001,2019_Jul_23_1220,Test,3.1.2,60.02865822110824,
Pictures\IA100_L40.bmp,Pictures\IA100_L40.bmp,Pictures\IA100.bmp,"

"Think of the payoff, gamble!"",1,risk,1,0,1,0,0,18,18,9,,,,,,,,,,,,,,,,,,,,,,,,,495.16237159329467,None,497.18392248498276,499.16354381106794,499.180166660808,None,500.68047596584074,None,y,1.043750561773777,502.6977332873503,None,502.6977332873503,None,502.6977332873503,None,503.834817447816,None,503.834817447816,504.83189110225067,505.915352755459,None,505.915352755459,None,right,1.0500716425012797,505.915352755459,None,None,None,506.9825324319536,None,,,,,,,,001,2019_Jul_23_1220,Test,3.1.2,60.02865822110824,
Pictures\IA40_20_L95p.bmp,Pictures\IA40_20_L95p.bmp,Pictures\IA40.bmp,"

"Be cautious, don't gamble for this one."",0,safe,1,0,1,0,0,19,19,11,,,,,,,,,,,,,,,,,,,,,,,,,507.8327526154462,None,509.85463753773365,511.8339375847718,511.8504851687467,None,513.3510376879713,None,n,1.2130941913928837,515.368141678744,None,515.368141678744,None,515.368141678744,None,None,None,None,None,516.7183209636714,None,516.7183209636714,None,left,0.8628999777138233,516.7183209636714,None,517.602217603242,518.6526173671009,None,None,,,,,,,,001,2019_Jul_23_1220,Test,3.1.2,60.02865822110824,
