Choice,Choice2,AdviceVar,Amount,AdviceVar2,AdviceVar1,GambleAdvice,Not_GamblePercent,trials_2.thisRepN,trials_2.thisTrialN,trials_2.thisN,trials_2.thisIndex,trials.thisRepN,trials.thisTrialN,trials.thisN,trials.thisIndex,space.keys,space.rt,key_resp_3.keys,key_resp_3.rt,enter.keys,enter.rt,response.keys,response.rt,resp.keys,resp.rt,key_resp_2.keys,key_resp_2.rt,participant,session,date,expName,psychopyVersion,frameRate,
,,,,,,,,,,,,,,,,space,0.7978067000512965,,,,,,,,,,,,001,2019_Jul_19_0816,Test,3.0.7,59.74507970031367,
Pictures\IA75_L15.bmp,Pictures\IA75_L15.bmp,"Advisor 1 says:

"Take a chance!"",Pictures\IA75.bmp,"Advisor 2 says:

"I don't think you should gamble."","

"Take a chance!"",1,80,0,0,0,0,0,0,0,2,,,right,0.9947202000184916,return,1.6623586000059731,n,1.114495399990119,left,0.7270657999906689,,,,001,2019_Jul_19_0816,Test,3.0.7,59.74507970031367,
Pictures\IA50_G40.bmp,Pictures\IA50_G40.bmp,"Advisor 1 says:

"It would probably be best to play it safe."",Pictures\IA50.bmp,"Advisor 2 says:

"What's life without a little risk?"","

"It would probably be best to play it safe."",0,35,0,0,0,0,0,1,1,13,,,,,,,n,1.6239002000074834,left,0.6624874999979511,,,,001,2019_Jul_19_0816,Test,3.0.7,59.74507970031367,
Pictures\IA50_L30.bmp,Pictures\IA50_L30.bmp,"Advisor 1 says:

"Take a leap, I think you should gamble."",Pictures\IA50.bmp,"Advisor 2 says:

"Hold back, stay with the safe choice."","

"Take a leap, I think you should gamble."",1,25,0,0,0,0,0,2,2,12,,,,,,,n,1.5287004999700002,left,0.519800599955488,,,,001,2019_Jul_19_0816,Test,3.0.7,59.74507970031367,
Pictures\IA100_L60.bmp,Pictures\IA100_L60.bmp,"Advisor 1 says:

"Be cautious, don't gamble for this one."",Pictures\IA100.bmp,"Advisor 2 says:

"Why not take the gamble?"","

"Be cautious, don't gamble for this one."",0,50,0,0,0,0,0,3,3,19,,,,,,,n,0.40130019997013733,right,0.5647574000176974,,,,001,2019_Jul_19_0816,Test,3.0.7,59.74507970031367,
Pictures\IA25_L20.bmp,Pictures\IA25_L20.bmp,"Advisor 1 says:

"Don't be tempted to gamble."",Pictures\IA25.bmp,"Advisor 2 says:

"Take a leap, I think you should gamble."","

"Don't be tempted to gamble."",0,70,0,0,0,0,0,4,4,4,,,,,,,n,0.5010953999590129,right,0.39087689999723807,,,,001,2019_Jul_19_0816,Test,3.0.7,59.74507970031367,
Pictures\IA100_L40.bmp,Pictures\IA100_L40.bmp,"Advisor 1 says:

"Think of the payoff, gamble!"",Pictures\IA100.bmp,"Advisor 2 says:

"I think you should take a gamble."","

"Think of the payoff, gamble!"",1,40,0,0,0,0,0,5,5,14,,,,,,,n,0.9430554999853484,left,0.5818517999723554,,,,001,2019_Jul_19_0816,Test,3.0.7,59.74507970031367,
Pictures\IA50_L20.bmp,Pictures\IA50_L20.bmp,"Advisor 1 says:

"Certainty is boring, take a risk!"",Pictures\IA50.bmp,"Advisor 2 says:

"You'd have a lot to lose, don't gamble."","

"Certainty is boring, take a risk!"",1,20,0,0,0,0,0,6,6,5,,,,,,,n,0.7222226999583654,left,0.540100899990648,,,,001,2019_Jul_19_0816,Test,3.0.7,59.74507970031367,
Pictures\IA50_G30.bmp,Pictures\IA50_G30.bmp,"Advisor 1 says:

"I think you should gamble."",Pictures\IA50.bmp,"Advisor 2 says:

"Don't be tempted to gamble."","

"I think you should gamble."",1,30,0,0,0,0,0,7,7,18,,,,,,,n,1.205910800024867,left,0.3915613000281155,,,,001,2019_Jul_19_0816,Test,3.0.7,59.74507970031367,
Pictures\IA75_L45.bmp,Pictures\IA75_L45.bmp,"Advisor 1 says:

"Don't gamble for this one, play it safe."",Pictures\IA75.bmp,"Advisor 2 says:

"Go ahead and gamble!"","

"Don't gamble for this one, play it safe."",0,85,0,0,0,0,0,8,8,0,,,,,,,n,0.4569815000286326,left,0.5517548999632709,,,,001,2019_Jul_19_0816,Test,3.0.7,59.74507970031367,
Pictures\IA25_L5.bmp,Pictures\IA25_L5.bmp,"Advisor 1 says:

"Let's stay with the certain option."",Pictures\IA25.bmp,"Advisor 2 says:

"Take a chance!"","

"Let's stay with the certain option."",0,60,0,0,0,0,0,9,9,10,,,,,,,n,1.2570925999898463,left,0.3721199000137858,,,,001,2019_Jul_19_0816,Test,3.0.7,59.74507970031367,
Pictures\IA25_L10.bmp,Pictures\IA25_L10.bmp,"Advisor 1 says:

"What's life without a little risk?"",Pictures\IA25.bmp,"Advisor 2 says:

"Don't gamble for this one, play it safe."","

"What's life without a little risk?"",1,65,0,0,0,0,0,10,10,7,,,,,,,n,1.6863692000042647,right,0.7495391000411473,,,,001,2019_Jul_19_0816,Test,3.0.7,59.74507970031367,
Pictures\IA25_L5.bmp,Pictures\IA25_L5.bmp,"Advisor 1 says:

"It would be smarter to choose the safe option."",Pictures\IA25.bmp,"Advisor 2 says:

"Certainty is boring, take a risk!"","

"It would be smarter to choose the safe option."",0,55,0,0,0,0,0,11,11,11,,,,,,,n,2.353815399983432,right,0.5871676999959163,,,,001,2019_Jul_19_0816,Test,3.0.7,59.74507970031367,
Pictures\IA75_L60.bmp,Pictures\IA75_L60.bmp,"Advisor 1 says:

"Why not take the gamble?"",Pictures\IA75.bmp,"Advisor 2 says:

"It would be smarter to choose the safe option."","

"Why not take the gamble?"",1,90,0,0,0,0,0,12,12,17,,,,,,,n,2.308012699999381,left,0.8591384000028484,,,,001,2019_Jul_19_0816,Test,3.0.7,59.74507970031367,
Pictures\IA100_L40.bmp,Pictures\IA100_L40.bmp,"Advisor 1 says:

"Try your luck and gamble!"",Pictures\IA100.bmp,"Advisor 2 says:

"Go with the safe option here!"","

"Try your luck and gamble!"",1,45,0,0,0,0,0,13,13,9,,,,,,,n,1.4276986999902874,right,0.4585096999653615,,,,001,2019_Jul_19_0816,Test,3.0.7,59.74507970031367,
Pictures\IA25_L15.bmp,Pictures\IA25_L15.bmp,"Advisor 1 says:

"I think you should take a gamble."",Pictures\IA25.bmp,"Advisor 2 says:

"Think of the payoff, gamble!"","

"I think you should take a gamble."",1,70,0,0,0,0,0,14,14,6,,,,,,,n,1.2762629999779165,left,0.38223670003935695,,,,001,2019_Jul_19_0816,Test,3.0.7,59.74507970031367,
Pictures\IA100_L20.bmp,Pictures\IA100_L20.bmp,"Advisor 1 says:

"Try to win as much money as you can, gamble!"",Pictures\IA100.bmp,"Advisor 2 says:

"I wouldn't gamble for this one. "","

"Try to win as much money as you can, gamble!"",1,35,0,0,0,0,0,15,15,8,,,,,,,n,1.117705599986948,left,0.32705010002246127,,,,001,2019_Jul_19_0816,Test,3.0.7,59.74507970031367,
Pictures\IA25_L15.bmp,Pictures\IA25_L15.bmp,"Advisor 1 says:

"There's not much on the line here, gamble!"",Pictures\IA25.bmp,"Advisor 2 says:

"Go all in!"","

"There's not much on the line here, gamble!"",1,65,0,0,0,0,0,16,16,15,,,,,,,n,1.2362261000089347,left,0.5755589999607764,,,,001,2019_Jul_19_0816,Test,3.0.7,59.74507970031367,
Pictures\IA75_L30.bmp,Pictures\IA75_L30.bmp,"Advisor 1 says:

"Hold back, stay with the safe choice."",Pictures\IA75.bmp,"Advisor 2 says:

"Try to win as much money as you can, gamble!"","

"Hold back, stay with the safe choice."",0,80,0,0,0,0,0,17,17,1,,,,,,,n,0.4863667999743484,left,0.5574626000015996,,,,001,2019_Jul_19_0816,Test,3.0.7,59.74507970031367,
Pictures\IA75_L30.bmp,Pictures\IA75_L30.bmp,"Advisor 1 says:

"Be bold, gamble!"",Pictures\IA75.bmp,"Advisor 2 says:

"Dont be afraid to take the risk!"","

"Be bold, gamble!"",1,85,0,0,0,0,0,18,18,16,,,,,,,n,1.0785909999976866,left,0.6989081000210717,,,,001,2019_Jul_19_0816,Test,3.0.7,59.74507970031367,
Pictures\IA25_L20.bmp,Pictures\IA25_L20.bmp,"Advisor 1 says:

"I wouldn't gamble for this one. "",Pictures\IA25.bmp,"Advisor 2 says:

"Why not gamble?"","

"I wouldn't gamble for this one. "",0,75,0,0,0,0,0,19,19,3,,,,,,,n,0.5447020999854431,left,0.5982580000418238,,,,001,2019_Jul_19_0816,Test,3.0.7,59.74507970031367,
,,,,,,,,0,0,0,0,,,,,,,,,,,,,,,return,25.330530899984296,,001,2019_Jul_19_0816,Test,3.0.7,59.74507970031367,
Pictures\IA25_L15.bmp,Pictures\IA25_L15.bmp,"Advisor 1 says:

"There's not much on the line here, gamble!"",Pictures\IA25.bmp,"Advisor 2 says:

"Go all in!"","

"There's not much on the line here, gamble!"",1,65,1,0,1,0,0,0,0,16,,,right,1.200494599994272,return,1.5007955000037327,n,1.6340097999782301,left,0.7506134999566711,,,,001,2019_Jul_19_0816,Test,3.0.7,59.74507970031367,
Pictures\IA75_L60.bmp,Pictures\IA75_L60.bmp,"Advisor 1 says:

"Why not take the gamble?"",Pictures\IA75.bmp,"Advisor 2 says:

"It would be smarter to choose the safe option."","

"Why not take the gamble?"",1,90,1,0,1,0,0,1,1,14,,,,,,,n,0.9930210000020452,left,0.5709452999872155,,,,001,2019_Jul_19_0816,Test,3.0.7,59.74507970031367,
Pictures\IA75_L30.bmp,Pictures\IA75_L30.bmp,"Advisor 1 says:

"Hold back, stay with the safe choice."",Pictures\IA75.bmp,"Advisor 2 says:

"Try to win as much money as you can, gamble!"","

"Hold back, stay with the safe choice."",0,80,1,0,1,0,0,2,2,11,,,,,,,n,0.35790319996885955,left,0.6355577000067569,,,,001,2019_Jul_19_0816,Test,3.0.7,59.74507970031367,
Pictures\IA100_L40.bmp,Pictures\IA100_L40.bmp,"Advisor 1 says:

"Think of the payoff, gamble!"",Pictures\IA100.bmp,"Advisor 2 says:

"I think you should take a gamble."","

"Think of the payoff, gamble!"",1,40,1,0,1,0,0,3,3,3,,,,,,,n,0.7715472999843769,left,1.0420068999519572,,,,001,2019_Jul_19_0816,Test,3.0.7,59.74507970031367,
Pictures\IA50_G30.bmp,Pictures\IA50_G30.bmp,"Advisor 1 says:

"I think you should gamble."",Pictures\IA50.bmp,"Advisor 2 says:

"Don't be tempted to gamble."","

"I think you should gamble."",1,30,1,0,1,0,0,4,4,17,,,,,,,n,1.911608199996408,left,0.5201571000507101,,,,001,2019_Jul_19_0816,Test,3.0.7,59.74507970031367,
Pictures\IA75_L45.bmp,Pictures\IA75_L45.bmp,"Advisor 1 says:

"Don't gamble for this one, play it safe."",Pictures\IA75.bmp,"Advisor 2 says:

"Go ahead and gamble!"","

"Don't gamble for this one, play it safe."",0,85,1,0,1,0,0,5,5,12,,,,,,,n,2.460060700017493,left,0.5610723999561742,,,,001,2019_Jul_19_0816,Test,3.0.7,59.74507970031367,
Pictures\IA25_L5.bmp,Pictures\IA25_L5.bmp,"Advisor 1 says:

"It would be smarter to choose the safe option."",Pictures\IA25.bmp,"Advisor 2 says:

"Certainty is boring, take a risk!"","

"It would be smarter to choose the safe option."",0,55,1,0,1,0,0,6,6,19,,,,,,,n,0.8208438999718055,left,0.7051730999955907,,,,001,2019_Jul_19_0816,Test,3.0.7,59.74507970031367,
Pictures\IA100_L20.bmp,Pictures\IA100_L20.bmp,"Advisor 1 says:

"Try to win as much money as you can, gamble!"",Pictures\IA100.bmp,"Advisor 2 says:

"I wouldn't gamble for this one. "","

"Try to win as much money as you can, gamble!"",1,35,1,0,1,0,0,7,7,1,,,,,,,n,0.40236830001231283,left,0.661686200008262,,,,001,2019_Jul_19_0816,Test,3.0.7,59.74507970031367,
Pictures\IA50_G40.bmp,Pictures\IA50_G40.bmp,"Advisor 1 says:

"It would probably be best to play it safe."",Pictures\IA50.bmp,"Advisor 2 says:

"What's life without a little risk?"","

"It would probably be best to play it safe."",0,35,1,0,1,0,0,8,8,7,,,,,,,n,0.5907052999828011,left,0.5404117999714799,,,,001,2019_Jul_19_0816,Test,3.0.7,59.74507970031367,
Pictures\IA100_L40.bmp,Pictures\IA100_L40.bmp,"Advisor 1 says:

"Try your luck and gamble!"",Pictures\IA100.bmp,"Advisor 2 says:

"Go with the safe option here!"","

"Try your luck and gamble!"",1,45,1,0,1,0,0,9,9,0,,,,,,,n,1.050435799988918,left,0.48508860002039,,,,001,2019_Jul_19_0816,Test,3.0.7,59.74507970031367,
Pictures\IA100_L80.bmp,Pictures\IA100_L80.bmp,"Advisor 1 says:

"Go all in!"",Pictures\IA100.bmp,"Advisor 2 says:

"There's not much on the line here, gamble!"","

"Go all in!"",1,50,1,0,1,0,0,10,10,5,,,,,,,n,2.5790146999643184,left,0.72953230002895,,,,001,2019_Jul_19_0816,Test,3.0.7,59.74507970031367,
Pictures\IA50_L10.bmp,Pictures\IA50_L10.bmp,"Advisor 1 says:

"Play it safe, don’t gamble!"",Pictures\IA50.bmp,"Advisor 2 says:

"It would probably be best to play it safe."","

"Play it safe, don’t gamble!"",0,100,1,0,1,0,0,11,11,15,,,,,,,n,2.735965200001374,left,0.6018656000378542,,,,001,2019_Jul_19_0816,Test,3.0.7,59.74507970031367,
Pictures\IA100_L60.bmp,Pictures\IA100_L60.bmp,"Advisor 1 says:

"Be cautious, don't gamble for this one."",Pictures\IA100.bmp,"Advisor 2 says:

"Why not take the gamble?"","

"Be cautious, don't gamble for this one."",0,50,1,0,1,0,0,12,12,10,,,,,,,n,0.38453010004013777,left,0.6447847000090405,,,,001,2019_Jul_19_0816,Test,3.0.7,59.74507970031367,
Pictures\IA50_L30.bmp,Pictures\IA50_L30.bmp,"Advisor 1 says:

"Take a leap, I think you should gamble."",Pictures\IA50.bmp,"Advisor 2 says:

"Hold back, stay with the safe choice."","

"Take a leap, I think you should gamble."",1,25,1,0,1,0,0,13,13,9,,,,,,,n,0.3570763999596238,left,0.709981299994979,,,,001,2019_Jul_19_0816,Test,3.0.7,59.74507970031367,
Pictures\IA100_L80.bmp,Pictures\IA100_L80.bmp,"Advisor 1 says:

"Why not gamble?"",Pictures\IA100.bmp,"Advisor 2 says:

"That gamble doesn't sound too good, play it safe."","

"Why not gamble?"",1,55,1,0,1,0,0,14,14,18,,,,,,,n,0.4912417000159621,left,0.5377204999676906,,,,001,2019_Jul_19_0816,Test,3.0.7,59.74507970031367,
Pictures\IA25_L15.bmp,Pictures\IA25_L15.bmp,"Advisor 1 says:

"I think you should take a gamble."",Pictures\IA25.bmp,"Advisor 2 says:

"Think of the payoff, gamble!"","

"I think you should take a gamble."",1,70,1,0,1,0,0,15,15,13,,,,,,,n,3.459960800013505,left,2.0257100999588147,,,,001,2019_Jul_19_0816,Test,3.0.7,59.74507970031367,
Pictures\IA25_L20.bmp,Pictures\IA25_L20.bmp,"Advisor 1 says:

"I wouldn't gamble for this one. "",Pictures\IA25.bmp,"Advisor 2 says:

"Why not gamble?"","

"I wouldn't gamble for this one. "",0,75,1,0,1,0,0,16,16,2,,,,,,,n,1.3671918000327423,left,0.5682388000423089,,,,001,2019_Jul_19_0816,Test,3.0.7,59.74507970031367,
Pictures\IA25_L10.bmp,Pictures\IA25_L10.bmp,"Advisor 1 says:

"Dont be afraid to take the risk!"",Pictures\IA25.bmp,"Advisor 2 says:

"Be bold, gamble!"","

"Dont be afraid to take the risk!"",1,60,1,0,1,0,0,17,17,8,,,,,,,n,0.33952929999213666,left,0.8890089999767952,,,,001,2019_Jul_19_0816,Test,3.0.7,59.74507970031367,
Pictures\IA75_L30.bmp,Pictures\IA75_L30.bmp,"Advisor 1 says:

"Be bold, gamble!"",Pictures\IA75.bmp,"Advisor 2 says:

"Dont be afraid to take the risk!"","

"Be bold, gamble!"",1,85,1,0,1,0,0,18,18,4,,,,,,,n,0.7994856999721378,left,0.6394793000072241,,,,001,2019_Jul_19_0816,Test,3.0.7,59.74507970031367,
Pictures\IA50_L40.bmp,Pictures\IA50_L40.bmp,"Advisor 1 says:

"That gamble doesn't sound too good, play it safe."",Pictures\IA50.bmp,"Advisor 2 says:

"Let's venture and take a risk!"","

"That gamble doesn't sound too good, play it safe."",0,30,1,0,1,0,0,19,19,6,,,,,,,n,1.5017938000382856,left,0.6775606999872252,,,,001,2019_Jul_19_0816,Test,3.0.7,59.74507970031367,
