Choice,Choice2,Amount,AdviceVar1,GambleAdviceNum,GambleAdviceType,trials_2.thisRepN,trials_2.thisTrialN,trials_2.thisN,trials_2.thisIndex,trials.thisRepN,trials.thisTrialN,trials.thisN,trials.thisIndex,instructions.started,instructions.stopped,space.keys,space.rt,space.started,space.stopped,chooseInst.started,chooseInst.stopped,Ad1.started,Ad1.stopped,Ad2.started,Ad2.stopped,key_resp_3.keys,key_resp_3.rt,key_resp_3.started,key_resp_3.stopped,Ad1pic.started,Ad1pic.stopped,Ad2pic.started,Ad2pic.stopped,enter.keys,enter.rt,enter.started,enter.stopped,iSi.started,iSi.stopped,receiveMoneyPicture.started,receiveMoneyPicture.stopped,ISI2.started,ISI2.stopped,ChoicePic.started,ChoicePic.stopped,response.keys,response.rt,response.started,response.stopped,yesNo.started,yesNo.stopped,ask.started,ask.stopped,getAdv.started,getAdv.stopped,textForCode.started,textForCode.stopped,blank.started,blank.stopped,ChoicePic2.started,ChoicePic2.stopped,resp.keys,resp.rt,resp.started,resp.stopped,checkL1.started,checkL1.stopped,checkR1.started,checkR1.stopped,endText.started,endText.stopped,key_resp_2.keys,key_resp_2.rt,key_resp_2.started,key_resp_2.stopped,participant,session,date,expName,psychopyVersion,frameRate,
,,,,,,,,,,,,,,5.430202823871696,None,space,1.6763610385587526,5.430202823871696,None,,,,,,,,,,,,,,,,,,,,,,,,,,,,,,,,,,,,,,,,,,,,,,,,,,,,,,,,,,001,2019_Jul_24_1132,Test,3.1.2,59.97053047019415,
Pictures\IA75_G45.bmp,Pictures\IA75_G45.bmp,Pictures\IA75.bmp,"

"Don't gamble for this one."",0,safe,0,0,0,0,0,0,0,2,,,,,,,9.617090400839515,None,9.617090400839515,None,9.617090400839515,None,left,1.0332992048643064,9.617090400839515,None,9.617090400839515,None,9.617090400839515,None,return,1.417308234187658,9.617090400839515,None,11.097364726548221,None,13.231380442645786,15.081994786181895,15.098668803117107,None,16.665658155906385,None,n,1.6511935737289605,18.982936906082614,None,18.982936906082614,None,18.982936906082614,None,None,None,None,None,21.099984698171284,None,21.099984698171284,None,left,1.3181691797535677,21.099984698171284,None,22.434050984946225,None,None,None,,,,,,,,001,2019_Jul_24_1132,Test,3.1.2,59.97053047019415,
Pictures\IA110_55_G95p.bmp,Pictures\IA110_55_G95p.bmp,Pictures\IA110.bmp,"

"Take a chance!"",1,risk,0,0,0,0,0,1,1,10,,,,,,,,,,,,,,,,,,,,,,,,,22.91756419770263,None,24.98468106572909,26.918682288631317,26.938001780237755,None,28.469099947687937,None,n,1.524293518928971,30.46953349949763,None,30.46953349949763,None,30.46953349949763,None,None,None,None,None,32.15318436650796,None,32.15318436650796,None,left,1.1286759377499038,32.15318436650796,None,33.303849218518735,None,None,None,,,,,,,,001,2019_Jul_24_1132,Test,3.1.2,59.97053047019415,
Pictures\IA50_G20.bmp,Pictures\IA50_G20.bmp,Pictures\IA50.bmp,"

"Let's venture and take a risk!"",1,risk,0,0,0,0,0,2,2,3,,,,,,,,,,,,,,,,,,,,,,,,,34.08741325076153,None,36.12108598197028,38.08854720334239,38.10521126786898,None,39.63894153644105,None,n,2.04064439359081,41.624922946584775,None,41.624922946584775,None,41.624922946584775,None,None,None,None,None,43.8232187831818,None,43.8232187831818,None,left,1.5302683853651615,43.8232187831818,None,45.37396642679323,None,None,None,,,,,,,,001,2019_Jul_24_1132,Test,3.1.2,59.97053047019415,
Pictures\IA50_L30.bmp,Pictures\IA50_L30.bmp,Pictures\IA50.bmp,"

"Take a leap, I think you should gamble."",1,risk,0,0,0,0,0,3,3,1,,,,,,,,,,,,,,,,,,,,,,,,,45.74073352985215,None,47.77591000783195,49.74186437230492,49.758560471147575,None,51.258744590710194,None,n,2.2851495753748168,53.2760835529607,None,53.2760835529607,None,53.2760835529607,None,None,None,None,None,55.693212332776056,None,55.693212332776056,None,None,,55.693212332776056,None,None,None,None,None,,,,,,,,001,2019_Jul_24_1132,Test,3.1.2,59.97053047019415,
Pictures\IA100_G40.bmp,Pictures\IA100_G40.bmp,Pictures\IA100.bmp,"

"Try your luck and gamble!"",1,risk,0,0,0,0,0,4,4,4,,,,,,,,,,,,,,,,,,,,,,,,,57.62746547602728,None,59.66118454813932,61.628617467348704,61.645264737185244,None,63.17902704007338,None,n,1.4379271371708455,65.16287054839631,None,65.16287054839631,None,65.16287054839631,None,None,None,None,None,66.74937222071276,None,66.74937222071276,None,left,0.963484612020693,66.74937222071276,None,67.73029189793124,None,None,None,,,,,,,,001,2019_Jul_24_1132,Test,3.1.2,59.97053047019415,
Pictures\IA100_G60.bmp,Pictures\IA100_G60.bmp,Pictures\IA100.bmp,"

"Be cautious, don't gamble for this one."",0,safe,0,0,0,0,0,5,5,16,,,,,,,,,,,,,,,,,,,,,,,,,68.68062937789364,None,70.71437177596454,72.68175742123185,72.69841495448964,None,74.23217694636514,None,n,1.41674872220392,76.21578875017076,None,76.21578875017076,None,76.21578875017076,None,None,None,None,None,77.7848553572885,None,77.7848553572885,None,left,1.1196910896705958,77.7848553572885,None,78.93348525270721,None,None,None,,,,,,,,001,2019_Jul_24_1132,Test,3.1.2,59.97053047019415,
Pictures\IA100_L80.bmp,Pictures\IA100_L80.bmp,Pictures\IA100.bmp,"

"Go all in!"",1,risk,0,0,0,0,0,6,6,18,,,,,,,,,,,,,,,,,,,,,,,,,79.71708318534365,None,81.75082029619625,83.71823673172912,83.7348693839649,None,85.26865159167028,None,n,1.2260033427655799,87.25430208422131,None,87.25430208422131,None,87.25430208422131,None,None,None,None,None,88.63592751163105,None,88.63592751163105,None,left,0.40428612926552887,88.63592751163105,None,89.06974896914835,90.53685408089223,None,None,,,,,,,,001,2019_Jul_24_1132,Test,3.1.2,59.97053047019415,
Pictures\IA25_G20.bmp,Pictures\IA25_G20.bmp,Pictures\IA25.bmp,"

"I wouldn't gamble for this one. "",0,safe,0,0,0,0,0,7,7,7,,,,,,,,,,,,,,,,,,,,,,,,,90.55344039222473,None,92.60391683269609,94.5546231738108,94.57126173529014,None,96.1050308804588,None,n,1.1830879338858722,98.08886692447595,None,98.08886692447595,None,98.08886692447595,None,None,None,None,None,99.42250556868385,None,99.42250556868385,None,None,,99.42250556868385,None,None,None,None,None,,,,,,,,001,2019_Jul_24_1132,Test,3.1.2,59.97053047019415,
Pictures\IA80_40_L95p.bmp,Pictures\IA80_40_L95p.bmp,Pictures\IA80.bmp,"

"Let's stay with the certain option."",0,safe,0,0,0,0,0,8,8,11,,,,,,,,,,,,,,,,,,,,,,,,,101.33992545645833,None,103.40702708485878,105.34104168131034,105.35773280394824,None,106.89141610959086,None,n,1.4440068149115177,108.89170441843453,None,108.89170441843453,None,108.89170441843453,None,None,None,None,None,110.46273818135887,None,110.46273818135887,None,left,0.5050051286007147,110.46273818135887,None,110.99266507469656,112.39306603236673,None,None,,,,,,,,001,2019_Jul_24_1132,Test,3.1.2,59.97053047019415,
Pictures\IA25_L10.bmp,Pictures\IA25_L10.bmp,Pictures\IA25.bmp,"

"Dont be afraid to take the risk!"",1,risk,0,0,0,0,0,9,9,19,,,,,,,,,,,,,,,,,,,,,,,,,112.40973569512335,None,114.44348711256407,116.41081864160878,116.42754335362588,None,117.96126491384075,None,n,1.3910599999626356,119.92827298959855,None,119.92827298959855,None,119.92827298959855,None,None,None,None,None,121.44526766070521,None,121.44526766070521,None,left,0.48215564198926586,121.44526766070521,None,121.9456990354256,123.36283341347098,None,None,,,,,,,,001,2019_Jul_24_1132,Test,3.1.2,59.97053047019415,
Pictures\IA25_L15.bmp,Pictures\IA25_L15.bmp,Pictures\IA25.bmp,"

"There's not much on the line here, gamble!"",1,risk,0,0,0,0,0,10,10,0,,,,,,,,,,,,,,,,,,,,,,,,,123.37944491683902,None,125.41326195797501,127.38067714945646,127.39733001752302,None,128.93107645875898,None,n,1.1161570514996129,130.91487984643481,None,130.91487984643481,None,130.91487984643481,None,None,None,None,None,132.15246188382935,None,132.15246188382935,None,right,0.8305459331659222,132.15246188382935,None,None,None,133.01560786513983,134.08258508843028,,,,,,,,001,2019_Jul_24_1132,Test,3.1.2,59.97053047019415,
Pictures\IA25_G5.bmp,Pictures\IA25_G5.bmp,Pictures\IA25.bmp,"

"Let's stay with the certain option."",0,safe,0,0,0,0,0,11,11,9,,,,,,,,,,,,,,,,,,,,,,,,,134.09923609042016,None,136.133036336867,138.10037999540964,138.11706240969033,None,139.63740513332868,None,n,1.6593274908545936,141.65140723950663,None,141.65140723950663,None,141.65140723950663,None,None,None,None,None,143.4181694285644,None,143.4181694285644,None,left,1.004518393606304,143.4181694285644,None,144.45220697775858,None,None,None,,,,,,,,001,2019_Jul_24_1132,Test,3.1.2,59.97053047019415,
Pictures\IA50_L20.bmp,Pictures\IA50_L20.bmp,Pictures\IA50.bmp,"

"Certainty is boring, take a risk!"",1,risk,0,0,0,0,0,12,12,17,,,,,,,,,,,,,,,,,,,,,,,,,145.36909907685185,None,147.39237869413228,149.37024422589275,149.38693254941518,None,150.9206416691186,None,n,2.1980078387659887,152.90449855099178,None,152.90449855099178,None,152.90449855099178,None,None,None,None,None,155.22159069350255,None,155.22159069350255,None,left,0.9529008472609348,155.22159069350255,None,156.2055467884511,None,None,None,,,,,,,,001,2019_Jul_24_1132,Test,3.1.2,59.97053047019415,
Pictures\IA110_55_L95p.bmp,Pictures\IA110_55_L95p.bmp,Pictures\IA110.bmp,"

"Trust me, gamble!"",1,risk,0,0,0,0,0,13,13,5,,,,,,,,,,,,,,,,,,,,,,,,,157.17251318849685,None,159.19274177044645,161.173634078541,161.19030529636166,None,162.72389498715893,None,n,1.3990169508178951,164.71115372677286,None,164.71115372677286,None,164.71115372677286,None,None,None,None,None,166.24134435894393,None,166.24134435894393,None,left,1.012828654976147,166.24134435894393,None,167.27533587824746,None,None,None,,,,,,,,001,2019_Jul_24_1132,Test,3.1.2,59.97053047019415,
Pictures\IA75_L60.bmp,Pictures\IA75_L60.bmp,Pictures\IA75.bmp,"

"Why not take the gamble?"",1,risk,0,0,0,0,0,14,14,13,,,,,,,,,,,,,,,,,,,,,,,,,168.1922936010369,None,170.21488805717217,172.19343688400022,172.2100682921855,None,173.74386200736353,None,n,1.2622095840461043,175.72765513161812,None,175.72765513161812,None,175.72765513161812,None,None,None,None,None,177.09776593302922,None,177.09776593302922,None,left,0.9721911036667734,177.09776593302922,None,178.09511734823081,None,None,None,,,,,,,,001,2019_Jul_24_1132,Test,3.1.2,59.97053047019415,
Pictures\IA25_L5.bmp,Pictures\IA25_L5.bmp,Pictures\IA25.bmp,"

"It would be smarter to choose the safe option."",0,safe,0,0,0,0,0,15,15,6,,,,,,,,,,,,,,,,,,,,,,,,,179.06202932104043,None,181.09579131291594,183.06318659957924,183.07986154955324,None,184.61358248774195,None,n,1.2722366359366788,186.597400182005,None,186.597400182005,None,186.597400182005,None,None,None,None,None,187.99754766426304,None,187.99754766426304,None,left,0.9439607850217726,187.99754766426304,None,188.96484093873642,None,None,None,,,,,,,,001,2019_Jul_24_1132,Test,3.1.2,59.97053047019415,
Pictures\IA100_L40.bmp,Pictures\IA100_L40.bmp,Pictures\IA100.bmp,"

"Think of the payoff, gamble!"",1,risk,0,0,0,0,0,16,16,12,,,,,,,,,,,,,,,,,,,,,,,,,189.948491308126,None,191.9822349502474,193.94963894526882,193.9663061199235,None,195.50006406863213,None,n,1.553329360663156,197.4838344889531,None,197.4838344889531,None,197.4838344889531,None,None,None,None,None,199.15520657157595,None,199.15520657157595,None,left,0.481960325966611,199.15520657157595,None,199.66794223373108,201.10168500501732,None,None,,,,,,,,001,2019_Jul_24_1132,Test,3.1.2,59.97053047019415,
Pictures\IA75_L15.bmp,Pictures\IA75_L15.bmp,Pictures\IA75.bmp,"

"Trust me, gamble!"",1,risk,0,0,0,0,0,17,17,8,,,,,,,,,,,,,,,,,,,,,,,,,201.11833694004508,None,203.14017034791777,205.1194845771879,205.13616543640364,None,206.66991560979386,None,n,1.2704803467913734,208.67038897123803,None,208.67038897123803,None,208.67038897123803,None,None,None,None,None,210.05751652566414,None,210.05751652566414,None,left,1.0685123823514004,210.05751652566414,None,211.15450337169023,None,None,None,,,,,,,,001,2019_Jul_24_1132,Test,3.1.2,59.97053047019415,
Pictures\IA20_10_L95p.bmp,Pictures\IA20_10_L95p.bmp,Pictures\IA20.bmp,"

"Don't be tempted to gamble."",0,safe,0,0,0,0,0,18,18,14,,,,,,,,,,,,,,,,,,,,,,,,,212.00477062496793,None,214.05859076379147,216.00591826211075,216.02255837865323,None,217.55636453434272,None,n,1.3279247174914417,219.556747080057,None,219.556747080057,None,219.556747080057,None,None,None,None,None,221.00695020250078,None,221.00695020250078,None,left,0.9736765006828136,221.00695020250078,None,222.00752837525124,None,None,None,,,,,,,,001,2019_Jul_24_1132,Test,3.1.2,59.97053047019415,
Pictures\IA20_10_G95p.bmp,Pictures\IA20_10_G95p.bmp,Pictures\IA20.bmp,"

"Take a leap, I think you should gamble."",1,risk,0,0,0,0,0,19,19,15,,,,,,,,,,,,,,,,,,,,,,,,,222.957890425223,None,224.97996735609922,226.95904179451918,226.97571021322437,None,228.50943643863047,None,n,1.4144310549991133,230.50990637893483,None,230.50990637893483,None,230.50990637893483,None,None,None,None,None,232.04342982401067,None,232.04342982401067,None,left,0.8969561801659438,232.04342982401067,None,232.96074085731289,233.97766523953305,None,None,,,,,,,,001,2019_Jul_24_1132,Test,3.1.2,59.97053047019415,
,,,,,,0,0,0,0,,,,,,,,,,,,,,,,,,,,,,,,,,,,,,,,,,,,,,,,,,,,,,,,,,,,,,,,,,,,,234.32777232123135,None,return,62.930799035362725,234.32777232123135,None,,001,2019_Jul_24_1132,Test,3.1.2,59.97053047019415,
Pictures\IA110_55_L95p.bmp,Pictures\IA110_55_L95p.bmp,Pictures\IA110.bmp,"

"Trust me, gamble!"",1,risk,1,0,1,0,0,0,0,7,,,,,,,297.36380719447243,None,297.36380719447243,None,297.36380719447243,None,right,1.1508166262456143,297.36380719447243,None,297.36380719447243,None,297.36380719447243,None,return,1.918634081651362,297.36380719447243,None,299.3461705929958,None,301.3633817289947,303.33080811693617,303.34747653564136,None,304.84787338794376,None,n,2.0893489942782253,306.8649510994619,None,306.8649510994619,None,306.8649510994619,None,None,None,None,None,309.07060114415435,None,309.07060114415435,None,left,1.3315302886012432,309.07060114415435,None,310.43281377612493,None,None,None,,,,,,,,001,2019_Jul_24_1132,Test,3.1.2,59.97053047019415,
Pictures\IA75_L15.bmp,Pictures\IA75_L15.bmp,Pictures\IA75.bmp,"

"Trust me, gamble!"",1,risk,1,0,1,0,0,1,1,13,,,,,,,,,,,,,,,,,,,,,,,,,311.0162659681737,None,313.05020181619057,315.01744657267045,315.03413893935976,None,316.53439832401455,None,n,0.9783174333242641,318.5516716625689,None,318.5516716625689,None,318.5516716625689,None,None,None,None,None,319.62432580205586,None,319.62432580205586,None,None,,319.62432580205586,None,None,None,None,None,,,,,,,,001,2019_Jul_24_1132,Test,3.1.2,59.97053047019415,
Pictures\IA80_40_G95p.bmp,Pictures\IA80_40_G95p.bmp,Pictures\IA80.bmp,"

"Think of the payoff, gamble!"",1,risk,1,0,1,0,0,2,2,12,,,,,,,,,,,,,,,,,,,,,,,,,321.5526389123015,None,323.5742676737673,325.5537940137501,325.57048980158015,None,327.1042219362289,None,n,1.449512052056889,329.08803652036386,None,329.08803652036386,None,329.08803652036386,None,None,None,None,None,330.6441267414384,None,330.6441267414384,None,None,,330.6441267414384,None,None,None,None,None,,,,,,,,001,2019_Jul_24_1132,Test,3.1.2,59.97053047019415,
Pictures\IA100_G60.bmp,Pictures\IA100_G60.bmp,Pictures\IA100.bmp,"

"Be cautious, don't gamble for this one."",0,safe,1,0,1,0,0,3,3,8,,,,,,,,,,,,,,,,,,,,,,,,,332.60582427405006,None,334.6274191351231,336.6069526284,336.6235939889948,None,338.1239986166156,None,n,1.2675418980852555,340.15774256974964,None,340.15774256974964,None,340.15774256974964,None,None,None,None,None,341.5412679742067,None,341.5412679742067,None,right,1.0039694560564385,341.5412679742067,None,None,None,342.5753073894766,None,,,,,,,,001,2019_Jul_24_1132,Test,3.1.2,59.97053047019415,
Pictures\IA100_L60.bmp,Pictures\IA100_L60.bmp,Pictures\IA100.bmp,"

"You'd have a lot to lose, don't gamble."",0,safe,1,0,1,0,0,4,4,19,,,,,,,,,,,,,,,,,,,,,,,,,343.492201665661,None,345.5145280287825,347.4933250438071,347.51004042544173,None,349.03153109723553,None,n,1.9807949610949436,351.04425338584133,None,351.04425338584133,None,351.04425338584133,None,None,None,None,None,353.1446140984581,None,353.1446140984581,None,left,0.37646728052277467,353.1446140984581,None,353.5450847229904,355.07888839057796,None,None,,,,,,,,001,2019_Jul_24_1132,Test,3.1.2,59.97053047019415,
Pictures\IA25_G5.bmp,Pictures\IA25_G5.bmp,Pictures\IA25.bmp,"

"Let's stay with the certain option."",0,safe,1,0,1,0,0,5,5,16,,,,,,,,,,,,,,,,,,,,,,,,,355.0969728504506,None,357.1186255599014,359.09665095222863,359.1133675779138,None,360.6137258646313,None,n,1.249817902020368,362.63085955844963,None,362.63085955844963,None,362.63085955844963,None,None,None,None,None,363.99830591341106,None,363.99830591341106,None,right,0.45847388518996013,363.99830591341106,None,None,None,364.4815675168311,365.9318922452703,,,,,,,,001,2019_Jul_24_1132,Test,3.1.2,59.97053047019415,
Pictures\IA75_G30.bmp,Pictures\IA75_G30.bmp,Pictures\IA75.bmp,"

"Be bold, gamble!"",1,risk,1,0,1,0,0,6,6,15,,,,,,,,,,,,,,,,,,,,,,,,,365.9486601880626,None,367.97044227882816,369.94978418823575,369.966456650106,None,371.50021024463695,None,n,1.3245206826613867,373.4839464535535,None,373.4839464535535,None,373.4839464535535,None,None,None,None,None,374.91949589805245,None,374.91949589805245,None,left,0.39282935164555965,374.91949589805245,None,375.3346684075086,376.85172434813376,None,None,,,,,,,,001,2019_Jul_24_1132,Test,3.1.2,59.97053047019415,
Pictures\IA25_G20.bmp,Pictures\IA25_G20.bmp,Pictures\IA25.bmp,"

"I wouldn't gamble for this one. "",0,safe,1,0,1,0,0,7,7,10,,,,,,,,,,,,,,,,,,,,,,,,,376.8684257341929,None,378.88980226429794,380.8695659070281,380.8862504983981,None,382.3865101940655,None,n,1.1484199617952981,384.4037462110873,None,384.4037462110873,None,384.4037462110873,None,None,None,None,None,385.67377434530226,None,385.67377434530226,None,right,0.8543377884889196,385.67377434530226,None,None,None,386.5544546048868,387.6048212578471,,,,,,,,001,2019_Jul_24_1132,Test,3.1.2,59.97053047019415,
Pictures\IA75_G45.bmp,Pictures\IA75_G45.bmp,Pictures\IA75.bmp,"

"Don't gamble for this one."",0,safe,1,0,1,0,0,8,8,9,,,,,,,,,,,,,,,,,,,,,,,,,387.62146106337696,None,389.64266933557064,391.6225797763318,391.63930479936334,None,393.13968890014166,None,n,1.218027731141774,395.1736686009599,None,395.1736686009599,None,395.1736686009599,None,None,None,None,None,396.5236609189442,None,396.5236609189442,None,left,0.3801546479917306,396.5236609189442,None,396.9241446060123,398.45789198028706,None,None,,,,,,,,001,2019_Jul_24_1132,Test,3.1.2,59.97053047019415,
Pictures\IA100_L40.bmp,Pictures\IA100_L40.bmp,Pictures\IA100.bmp,"

"Think of the payoff, gamble!"",1,risk,1,0,1,0,0,9,9,5,,,,,,,,,,,,,,,,,,,,,,,,,398.4745837249511,None,400.50834291771116,402.4757276299397,402.4923764548412,None,403.99263148531736,None,n,1.1428015160017821,406.00985879398013,None,406.00985879398013,None,406.00985879398013,None,None,None,None,None,407.26443488045607,None,407.26443488045607,None,right,0.35107775257347384,407.26443488045607,None,None,None,407.64381790575226,409.2109655640443,,,,,,,,001,2019_Jul_24_1132,Test,3.1.2,59.97053047019415,
Pictures\IA50_G20.bmp,Pictures\IA50_G20.bmp,Pictures\IA50.bmp,"

"Let's venture and take a risk!"",1,risk,1,0,1,0,0,10,10,2,,,,,,,,,,,,,,,,,,,,,,,,,409.227636781864,None,411.24717242735005,413.2287881511593,413.2454553258149,None,414.74569169552433,None,n,2.0821633551058767,416.7652012159351,None,416.7652012159351,None,416.7652012159351,None,None,None,None,None,418.9807131647349,None,418.9807131647349,None,right,1.0584750670386711,418.9807131647349,None,None,None,420.06407018687514,None,,,,,,,,001,2019_Jul_24_1132,Test,3.1.2,59.97053047019415,
Pictures\IA20_10_L95p.bmp,Pictures\IA20_10_L95p.bmp,Pictures\IA20.bmp,"

"Don't be tempted to gamble."",0,safe,1,0,1,0,0,11,11,14,,,,,,,,,,,,,,,,,,,,,,,,,420.91431349216964,None,422.94799555376176,424.91543282714974,424.93212394978855,None,426.4328231065074,None,n,1.0853269770614133,428.44960131272364,None,428.44960131272364,None,428.44960131272364,None,None,None,None,None,429.6680439349084,None,429.6680439349084,None,right,0.38685324115613184,429.6680439349084,None,None,None,430.08356788880246,431.6007037597092,,,,,,,,001,2019_Jul_24_1132,Test,3.1.2,59.97053047019415,
Pictures\IA40_20_G95p.bmp,Pictures\IA40_20_G95p.bmp,Pictures\IA40.bmp,"

"Hold back, stay with the safe choice."",0,safe,1,0,1,0,0,12,12,6,,,,,,,,,,,,,,,,,,,,,,,,,431.61733952207305,None,433.68449868783773,435.61846943148794,435.6351568219716,None,437.16868462122784,None,n,1.4779302224178537,439.1527184693705,None,439.1527184693705,None,439.1527184693705,None,None,None,None,None,440.7529535328258,None,440.7529535328258,None,right,0.9016953928421572,440.7529535328258,None,None,None,441.6868906870959,442.6871575360574,,,,,,,,001,2019_Jul_24_1132,Test,3.1.2,59.97053047019415,
Pictures\IA100_L20.bmp,Pictures\IA100_L20.bmp,Pictures\IA100.bmp,"

"Try to win as much money as you can, gamble!"",1,risk,1,0,1,0,0,13,13,17,,,,,,,,,,,,,,,,,,,,,,,,,442.70385830009127,None,444.7262751679309,446.7049866544412,446.7216687577102,None,448.2552827075042,None,n,1.0914931163551955,450.2427283657953,None,450.2427283657953,None,450.2427283657953,None,None,None,None,None,451.4565978561268,None,451.4565978561268,None,right,0.3818459354679362,451.4565978561268,None,None,None,451.8564044683835,453.38997736449073,,,,,,,,001,2019_Jul_24_1132,Test,3.1.2,59.97053047019415,
Pictures\IA75_G15.bmp,Pictures\IA75_G15.bmp,Pictures\IA75.bmp,"

"Take a chance!"",1,risk,1,0,1,0,0,14,14,3,,,,,,,,,,,,,,,,,,,,,,,,,453.406494008962,None,455.44067617909695,457.408055604109,457.42470847217464,None,458.94369020390604,None,n,1.5674396992890252,460.95868350780165,None,460.95868350780165,None,460.95868350780165,None,None,None,None,None,462.62579098324295,None,462.62579098324295,None,left,0.39626853091795056,462.62579098324295,None,463.0429748123197,464.5600777158734,None,None,,,,,,,,001,2019_Jul_24_1132,Test,3.1.2,59.97053047019415,
Pictures\IA100_L80.bmp,Pictures\IA100_L80.bmp,Pictures\IA100.bmp,"

"Go all in!"",1,risk,1,0,1,0,0,15,15,18,,,,,,,,,,,,,,,,,,,,,,,,,464.5767184544411,None,466.5958018873507,468.57785893828895,468.59454570674916,None,470.0948302834395,None,n,1.555713895613735,472.1139877373889,None,472.1139877373889,None,472.1139877373889,None,None,None,None,None,473.7956219975613,None,473.7956219975613,None,left,0.3461335824758862,473.7956219975613,None,474.1628117669816,475.7132620823804,None,None,,,,,,,,001,2019_Jul_24_1132,Test,3.1.2,59.97053047019415,
Pictures\IA75_G60.bmp,Pictures\IA75_G60.bmp,Pictures\IA75.bmp,"

"Make it exciting, take a chance!"",1,risk,1,0,1,0,0,16,16,1,,,,,,,,,,,,,,,,,,,,,,,,,475.72989971082006,None,477.7513291130972,479.7310433047978,479.747743135792,None,481.2814821127222,None,n,1.2672775372266187,483.2819383684646,None,483.2819383684646,None,483.2819383684646,None,None,None,None,None,484.64874310406867,None,484.64874310406867,None,right,0.5166186566602846,484.64874310406867,None,None,None,485.1159384095181,486.5830285926486,,,,,,,,001,2019_Jul_24_1132,Test,3.1.2,59.97053047019415,
Pictures\IA40_20_L95p.bmp,Pictures\IA40_20_L95p.bmp,Pictures\IA40.bmp,"

"Trust me, gamble!"",1,risk,1,0,1,0,0,17,17,4,,,,,,,,,,,,,,,,,,,,,,,,,486.5996851928694,None,488.6335659916249,490.60075663188127,490.617410121974,None,492.1512523551437,None,n,1.3582568604742846,494.13489246111294,None,494.13489246111294,None,494.13489246111294,None,None,None,None,None,495.60283824039016,None,495.60283824039016,None,left,0.8181726008933765,495.60283824039016,None,496.4524949755896,497.53614279467456,None,None,,,,,,,,001,2019_Jul_24_1132,Test,3.1.2,59.97053047019415,
Pictures\IA75_L60.bmp,Pictures\IA75_L60.bmp,Pictures\IA75.bmp,"

"Why not take the gamble?"",1,risk,1,0,1,0,0,18,18,11,,,,,,,,,,,,,,,,,,,,,,,,,497.5527965957781,None,499.586500428265,501.5538888726469,501.5704667866348,None,503.0708611508353,None,None,,505.0881547052186,None,505.0881547052186,None,505.0881547052186,None,None,None,None,None,508.1442551897153,None,508.1442551897153,None,None,,508.1442551897153,None,None,None,None,None,,,,,,,,001,2019_Jul_24_1132,Test,3.1.2,59.97053047019415,
Pictures\IA50_G10.bmp,Pictures\IA50_G10.bmp,Pictures\IA50.bmp,"

"Go with the safe option here!"",0,safe,1,0,1,0,0,19,19,0,,,,,,,,,,,,,,,,,,,,,,,,,510.10637663273974,None,512.1401442228444,514.1075363993814,514.124178070987,None,515.6579484602071,None,n,1.6822876980131696,517.6581944713134,None,517.6581944713134,None,517.6581944713134,None,None,None,None,None,519.4586278365141,None,519.4586278365141,None,None,,519.4586278365141,None,None,None,None,None,,,,,,,,001,2019_Jul_24_1132,Test,3.1.2,59.97053047019415,
,,,,,,1,0,1,0,,,,,,,,,,,,,,,,,,,,,,,,,,,,,,,,,,,,,,,,,,,,,,,,,,,,,,,,,,,,,521.5102783502143,None,return,39.83700877864612,521.5102783502143,None,,001,2019_Jul_24_1132,Test,3.1.2,59.97053047019415,
Pictures\IA50_L30.bmp,Pictures\IA50_L30.bmp,Pictures\IA50.bmp,"

"Take a leap, I think you should gamble."",1,risk,2,0,2,0,0,0,0,10,,,,,,,561.4539330986636,None,561.4539330986636,None,561.4539330986636,None,left,1.1412893718843407,561.4539330986636,None,561.4539330986636,None,561.4539330986636,None,return,1.73321697308711,561.4539330986636,None,563.2380404702262,None,565.2432608196677,567.2226384955438,567.2393482789494,None,568.7395672319426,None,n,1.5981475457047054,570.7568666955713,None,570.7568666955713,None,570.7568666955713,None,None,None,None,None,572.4737601631196,None,572.4737601631196,None,None,,572.4737601631196,None,None,None,None,None,,,,,,,,001,2019_Jul_24_1132,Test,3.1.2,59.97053047019415,
Pictures\IA75_L45.bmp,Pictures\IA75_L45.bmp,Pictures\IA75.bmp,"

"Don't gamble for this one, play it safe."",0,safe,2,0,2,0,0,1,1,15,,,,,,,,,,,,,,,,,,,,,,,,,574.4247212236996,None,576.4471458668586,578.425843668806,578.4424887615542,None,579.9762663040683,None,n,1.8098747800358979,581.9767402875377,None,581.9767402875377,None,581.9767402875377,None,None,None,None,None,583.9103303515503,None,583.9103303515503,None,left,1.5963551790791826,583.9103303515503,None,585.5278782521827,None,None,None,,,,,,,,001,2019_Jul_24_1132,Test,3.1.2,59.97053047019415,
Pictures\IA25_L15.bmp,Pictures\IA25_L15.bmp,Pictures\IA25.bmp,"

"There's not much on the line here, gamble!"",1,risk,2,0,2,0,0,2,2,14,,,,,,,,,,,,,,,,,,,,,,,,,585.8612727513619,None,587.8814885817874,589.8624194554659,589.8790813429032,None,591.3793404165453,None,n,1.1865348884803097,593.3999897987806,None,593.3999897987806,None,593.3999897987806,None,None,None,None,None,594.7134875666425,None,594.7134875666425,None,left,0.3449277859435824,594.7134875666425,None,595.0805532419663,596.6477139627941,None,None,,,,,,,,001,2019_Jul_24_1132,Test,3.1.2,59.97053047019415,
Pictures\IA100_G60.bmp,Pictures\IA100_G60.bmp,Pictures\IA100.bmp,"

"Be cautious, don't gamble for this one."",0,safe,2,0,2,0,0,3,3,17,,,,,,,,,,,,,,,,,,,,,,,,,596.6643848696012,None,598.684618116743,600.6655088697744,600.6821772884787,None,602.1826058640845,None,n,1.2015456090903172,604.2004334274052,None,604.2004334274052,None,604.2004334274052,None,None,None,None,None,605.533199058752,None,605.533199058752,None,left,0.9969057338930725,605.533199058752,None,606.5505420641666,None,None,None,,,,,,,,001,2019_Jul_24_1132,Test,3.1.2,59.97053047019415,
Pictures\IA50_G10.bmp,Pictures\IA50_G10.bmp,Pictures\IA50.bmp,"

"Go with the safe option here!"",0,safe,2,0,2,0,0,4,4,8,,,,,,,,,,,,,,,,,,,,,,,,,607.4841265299501,None,609.5069841028935,611.4852654587348,611.5019173937626,None,613.0023469024063,None,n,1.4215488933859888,615.0361493259416,None,615.0361493259416,None,615.0361493259416,None,None,None,None,None,616.5863306152887,None,616.5863306152887,None,left,0.30336621567766997,616.5863306152887,None,616.9201312971536,618.5206179699444,None,None,,,,,,,,001,2019_Jul_24_1132,Test,3.1.2,59.97053047019415,
Pictures\IA110_55_L95p.bmp,Pictures\IA110_55_L95p.bmp,Pictures\IA110.bmp,"

"Trust me, gamble!"",1,risk,2,0,2,0,0,5,5,3,,,,,,,,,,,,,,,,,,,,,,,,,618.5372437799006,None,620.560069318527,622.5384212742692,622.5550881379104,None,624.0553316609139,None,n,1.216883204127953,626.0726230382088,None,626.0726230382088,None,626.0726230382088,None,None,None,None,None,627.3898377197538,None,627.3898377197538,None,left,0.3155271262239694,627.3898377197538,None,627.7232340850105,629.3236803261416,None,None,,,,,,,,001,2019_Jul_24_1132,Test,3.1.2,59.97053047019415,
Pictures\IA100_G80.bmp,Pictures\IA100_G80.bmp,Pictures\IA100.bmp,"

"Why not gamble?"",1,risk,2,0,2,0,0,6,6,7,,,,,,,,,,,,,,,,,,,,,,,,,629.3403534100371,None,631.3571851104507,633.3415106885759,633.3580895356017,None,634.8787678420258,None,n,1.1654979843260662,636.8757056102359,None,636.8757056102359,None,636.8757056102359,None,None,None,None,None,638.1591489695211,None,638.1591489695211,None,left,0.7220037184688408,638.1591489695211,None,638.9096535877497,640.0934046008742,None,None,,,,,,,,001,2019_Jul_24_1132,Test,3.1.2,59.97053047019415,
Pictures\IA40_20_G95p.bmp,Pictures\IA40_20_G95p.bmp,Pictures\IA40.bmp,"

"Hold back, stay with the safe choice."",0,safe,2,0,2,0,0,7,7,18,,,,,,,,,,,,,,,,,,,,,,,,,640.1100947904733,None,642.1438595814643,644.1112408725521,644.1278732137753,None,645.6281456609677,None,n,1.1873708908206027,647.6454236647141,None,647.6454236647141,None,647.6454236647141,None,None,None,None,None,648.9622806815669,None,648.9622806815669,None,left,0.990716579655782,648.9622806815669,None,649.9791602779469,None,None,None,,,,,,,,001,2019_Jul_24_1132,Test,3.1.2,59.97053047019415,
Pictures\IA75_G30.bmp,Pictures\IA75_G30.bmp,Pictures\IA75.bmp,"

"Be bold, gamble!"",1,risk,2,0,2,0,0,8,8,12,,,,,,,,,,,,,,,,,,,,,,,,,650.9128097453986,None,652.946843873452,654.9143004296338,654.9308976264138,None,656.4312291660326,None,n,1.3677928231936676,658.448517744212,None,658.448517744212,None,658.448517744212,None,None,None,None,None,659.9153759118117,None,659.9153759118117,None,left,0.5730696525552048,659.9153759118117,None,660.5156859293465,661.8496103942953,None,None,,,,,,,,001,2019_Jul_24_1132,Test,3.1.2,59.97053047019415,
Pictures\IA75_G15.bmp,Pictures\IA75_G15.bmp,Pictures\IA75.bmp,"

"Take a chance!"",1,risk,2,0,2,0,0,9,9,6,,,,,,,,,,,,,,,,,,,,,,,,,661.8662977847807,None,663.9000831026142,665.8674264501433,665.8840836723894,None,667.3845343299008,None,n,1.4465624068907346,669.401672999923,None,669.401672999923,None,669.401672999923,None,None,None,None,None,670.9685304832956,None,670.9685304832956,None,right,1.2237233081068553,670.9685304832956,None,None,None,672.2192565426203,None,,,,,,,,001,2019_Jul_24_1132,Test,3.1.2,59.97053047019415,
Pictures\IA100_L60.bmp,Pictures\IA100_L60.bmp,Pictures\IA100.bmp,"

"You'd have a lot to lose, don't gamble."",0,safe,2,0,2,0,0,10,10,5,,,,,,,,,,,,,,,,,,,,,,,,,672.9027366636174,None,674.9255945475734,676.9038706161982,676.9205726242826,None,678.4208444494479,None,n,1.1138841701340425,680.4381212091439,None,680.4381212091439,None,680.4381212091439,None,None,None,None,None,681.6715474938273,None,681.6715474938273,None,left,0.8084817538147036,681.6715474938273,None,682.5055105243619,683.6057375014852,None,None,,,,,,,,001,2019_Jul_24_1132,Test,3.1.2,59.97053047019415,
Pictures\IA100_L40.bmp,Pictures\IA100_L40.bmp,Pictures\IA100.bmp,"

"Think of the payoff, gamble!"",1,risk,2,0,2,0,0,11,11,19,,,,,,,,,,,,,,,,,,,,,,,,,683.6224979799726,None,685.6443432063306,687.6236201140682,687.6402922649258,None,689.1407161753386,None,n,1.2732611120190995,691.1745058473507,None,691.1745058473507,None,691.1745058473507,None,None,None,None,None,692.5757061078557,None,692.5757061078557,None,left,0.8160172823590983,692.5757061078557,None,693.4086172931811,694.5089070948861,None,None,,,,,,,,001,2019_Jul_24_1132,Test,3.1.2,59.97053047019415,
Pictures\IA40_20_L95p.bmp,Pictures\IA40_20_L95p.bmp,Pictures\IA40.bmp,"

"Trust me, gamble!"",1,risk,2,0,2,0,0,12,12,4,,,,,,,,,,,,,,,,,,,,,,,,,694.5255882651154,None,696.5594805713436,698.5267387013728,698.5433809950055,None,700.0436481549796,None,n,1.2983875231620914,702.0609230485979,None,702.0609230485979,None,702.0609230485979,None,None,None,None,None,703.4650729542673,None,703.4650729542673,None,left,0.37431849325548683,703.4650729542673,None,703.8615265377875,705.3953793453938,None,None,,,,,,,,001,2019_Jul_24_1132,Test,3.1.2,59.97053047019415,
Pictures\IA25_G20.bmp,Pictures\IA25_G20.bmp,Pictures\IA25.bmp,"

"I wouldn't gamble for this one. "",0,safe,2,0,2,0,0,13,13,0,,,,,,,,,,,,,,,,,,,,,,,,,705.4120402997914,None,707.432796981434,709.4131683431287,709.429797263213,None,710.9299888470823,None,n,1.48290269467725,712.9483171409711,None,712.9483171409711,None,712.9483171409711,None,None,None,None,None,714.5475774903889,None,714.5475774903889,None,right,1.1714520129062294,714.5475774903889,None,None,None,715.7483032698028,None,,,,,,,,001,2019_Jul_24_1132,Test,3.1.2,59.97053047019415,
Pictures\IA75_G45.bmp,Pictures\IA75_G45.bmp,Pictures\IA75.bmp,"

"Don't gamble for this one."",0,safe,2,0,2,0,0,14,14,11,,,,,,,,,,,,,,,,,,,,,,,,,716.4985369959022,None,718.5322719296664,720.4996497996153,720.5163278597165,None,722.0167010750474,None,n,1.308795254692086,724.0339498435924,None,724.0339498435924,None,724.0339498435924,None,None,None,None,None,725.467373826782,None,725.467373826782,None,left,0.3074323967084638,725.467373826782,None,725.8011001765926,727.4016269700323,None,None,,,,,,,,001,2019_Jul_24_1132,Test,3.1.2,59.97053047019415,
Pictures\IA80_40_G95p.bmp,Pictures\IA80_40_G95p.bmp,Pictures\IA80.bmp,"

"Think of the payoff, gamble!"",1,risk,2,0,2,0,0,15,15,16,,,,,,,,,,,,,,,,,,,,,,,,,727.4182866803812,None,729.441511559412,731.4193938858616,731.4361297943406,None,732.9365036316967,None,n,1.1481699075229699,734.9703523961352,None,734.9703523961352,None,734.9703523961352,None,None,None,None,None,736.237085661006,None,736.237085661006,None,right,0.6413879629362782,736.237085661006,None,None,None,736.904352374987,738.17137519275,,,,,,,,001,2019_Jul_24_1132,Test,3.1.2,59.97053047019415,
Pictures\IA50_G20.bmp,Pictures\IA50_G20.bmp,Pictures\IA50.bmp,"

"Let's venture and take a risk!"",1,risk,2,0,2,0,0,16,16,9,,,,,,,,,,,,,,,,,,,,,,,,,738.1880414343659,None,740.211168033361,742.1891868944194,742.2057859572751,None,743.7062711372064,None,n,0.9461605783835694,745.7400744937795,None,745.7400744937795,None,745.7400744937795,None,None,None,None,None,746.7922443988164,None,746.7922443988164,None,left,0.6539363953997963,746.7922443988164,None,747.4739778720641,748.7410355232578,None,None,,,,,,,,001,2019_Jul_24_1132,Test,3.1.2,59.97053047019415,
Pictures\IA50_L10.bmp,Pictures\IA50_L10.bmp,Pictures\IA50.bmp,"

"Play it safe, don’t gamble!"",0,safe,2,0,2,0,0,17,17,1,,,,,,,,,,,,,,,,,,,,,,,,,748.7577064300649,None,750.7780765228281,752.7588481579651,752.7755274621168,None,754.3092639509441,None,n,1.12657753455278,756.2953694551861,None,756.2953694551861,None,756.2953694551861,None,None,None,None,None,757.5432183353232,None,757.5432183353232,None,right,0.8067139571958251,757.5432183353232,None,None,None,758.3770787316398,759.477351427643,,,,,,,,001,2019_Jul_24_1132,Test,3.1.2,59.97053047019415,
Pictures\IA100_L80.bmp,Pictures\IA100_L80.bmp,Pictures\IA100.bmp,"

"Go all in!"",1,risk,2,0,2,0,0,18,18,13,,,,,,,,,,,,,,,,,,,,,,,,,759.4941000876433,None,761.516437336214,763.4952495908628,763.5119136553885,None,765.0123198380743,None,n,1.1676169143684092,767.0459120169735,None,767.0459120169735,None,767.0459120169735,None,None,None,None,None,768.3295702860878,None,768.3295702860878,None,left,0.7560110994254501,768.3295702860878,None,769.1134406659157,770.2471742934258,None,None,,,,,,,,001,2019_Jul_24_1132,Test,3.1.2,59.97053047019415,
Pictures\IA100_G40.bmp,Pictures\IA100_G40.bmp,Pictures\IA100.bmp,"

"Try your luck and gamble!"",1,risk,2,0,2,0,0,19,19,2,,,,,,,,,,,,,,,,,,,,,,,,,770.2638448892203,None,772.2847772930827,774.2649754206604,774.2815446262912,None,775.7820584193969,None,n,1.0932270125795185,777.8158801257241,None,777.8158801257241,None,777.8158801257241,None,None,None,None,None,779.0159478021042,None,779.0159478021042,None,left,0.3814254461940436,779.0159478021042,None,779.4164601023485,780.9335561636208,None,None,,,,,,,,001,2019_Jul_24_1132,Test,3.1.2,59.97053047019415,
,,,,,,2,0,2,0,,,,,,,,,,,,,,,,,,,,,,,,,,,,,,,,,,,,,,,,,,,,,,,,,,,,,,,,,,,,,781.0665004407047,None,return,2.1866008231882006,781.0665004407047,None,,001,2019_Jul_24_1132,Test,3.1.2,59.97053047019415,
Pictures\IA25_G10.bmp,Pictures\IA25_G10.bmp,Pictures\IA25.bmp,"

"What's life without a little risk?"",1,risk,3,0,3,0,0,0,0,14,,,,,,,783.3839231897973,None,783.3839231897973,None,783.3839231897973,None,right,0.9731670617566124,783.3839231897973,None,783.3839231897973,None,783.3839231897973,None,return,1.453228343712908,783.3839231897973,None,784.9011809777121,None,786.9066859038439,788.8858054391158,788.902490652511,None,790.4529307044877,None,n,0.584956560845967,792.419988853303,None,792.419988853303,None,792.419988853303,None,None,None,None,None,793.1366437740535,None,793.1366437740535,None,left,0.3162576952327072,793.1366437740535,None,793.4704363695846,795.0709171331337,None,None,,,,,,,,001,2019_Jul_24_1132,Test,3.1.2,59.97053047019415,
Pictures\IA100_G80.bmp,Pictures\IA100_G80.bmp,Pictures\IA100.bmp,"

"Why not gamble?"",1,risk,3,0,3,0,0,1,1,3,,,,,,,,,,,,,,,,,,,,,,,,,795.087574977405,None,797.1212987147092,799.0887198154333,799.1053711284358,None,800.605674365891,None,n,0.22162459389437572,802.6229333978581,None,802.6229333978581,None,802.6229333978581,None,None,None,None,None,802.9599505738506,None,802.9599505738506,None,left,0.3407440420851344,802.9599505738506,None,803.3232865839664,804.9070507218303,None,None,,,,,,,,001,2019_Jul_24_1132,Test,3.1.2,59.97053047019415,
Pictures\IA100_G40.bmp,Pictures\IA100_G40.bmp,Pictures\IA100.bmp,"

"Try your luck and gamble!"",1,risk,3,0,3,0,0,2,2,7,,,,,,,,,,,,,,,,,,,,,,,,,804.9237150973686,None,806.9464044124006,808.9248543371659,808.9415271100506,None,810.4418175959827,None,n,0.3053815784660401,812.4590343302125,None,812.4590343302125,None,812.4590343302125,None,None,None,None,None,812.8756073301984,None,812.8756073301984,None,left,0.32071855147660244,812.8756073301984,None,813.2260860721644,814.8098237739405,None,None,,,,,,,,001,2019_Jul_24_1132,Test,3.1.2,59.97053047019415,
Pictures\IA100_L80.bmp,Pictures\IA100_L80.bmp,Pictures\IA100.bmp,"

"Go all in!"",1,risk,3,0,3,0,0,3,3,9,,,,,,,,,,,,,,,,,,,,,,,,,814.8265456868439,None,816.8497963799355,818.8276861706936,818.8443465030659,None,820.34459127012,None,n,0.3942646756040631,822.3618820253896,None,822.3618820253896,None,822.3618820253896,None,None,None,None,None,822.8786356615956,None,822.8786356615956,None,right,0.3494352941033867,822.8786356615956,None,None,None,823.2455448974933,824.7960636357029,,,,,,,,001,2019_Jul_24_1132,Test,3.1.2,59.97053047019415,
Pictures\IA50_G30.bmp,Pictures\IA50_G30.bmp,Pictures\IA50.bmp,"

"I think you should gamble."",1,risk,3,0,3,0,0,4,4,17,,,,,,,,,,,,,,,,,,,,,,,,,824.8127130826279,None,826.8466084989841,828.8138473462213,828.8305207411313,None,830.3525096553922,None,n,1.1586379755299276,832.3491762204603,None,832.3491762204603,None,832.3491762204603,None,None,None,None,None,833.6317247959914,None,833.6317247959914,None,right,0.36413189180893824,833.6317247959914,None,None,None,834.0152775695724,835.5657854223346,,,,,,,,001,2019_Jul_24_1132,Test,3.1.2,59.97053047019415,
Pictures\IA25_L15.bmp,Pictures\IA25_L15.bmp,Pictures\IA25.bmp,"

"There's not much on the line here, gamble!"",1,risk,3,0,3,0,0,5,5,15,,,,,,,,,,,,,,,,,,,,,,,,,835.5824326921711,None,837.6040701619941,839.5835825064032,839.6002017850888,None,841.1005208841971,None,n,0.949632414000007,843.1178324773236,None,843.1178324773236,None,843.1178324773236,None,None,None,None,None,844.184514549489,None,844.184514549489,None,right,0.2990835697546572,844.184514549489,None,None,None,844.5016552099924,846.1187636495733,,,,,,,,001,2019_Jul_24_1132,Test,3.1.2,59.97053047019415,
Pictures\IA100_G60.bmp,Pictures\IA100_G60.bmp,Pictures\IA100.bmp,"

"Be cautious, don't gamble for this one."",0,safe,3,0,3,0,0,6,6,5,,,,,,,,,,,,,,,,,,,,,,,,,846.1354606814539,None,848.1546501697203,850.1366014763162,850.1532860676862,None,851.6534960013096,None,n,0.8663845573446451,853.672887025853,None,853.672887025853,None,853.672887025853,None,None,None,None,None,854.6708371406485,None,854.6708371406485,None,left,0.18043561693411903,854.6708371406485,None,854.8712730561556,856.6050682019913,None,None,,,,,,,,001,2019_Jul_24_1132,Test,3.1.2,59.97053047019415,
Pictures\IA75_L60.bmp,Pictures\IA75_L60.bmp,Pictures\IA75.bmp,"

"Why not take the gamble?"",1,risk,3,0,3,0,0,7,7,0,,,,,,,,,,,,,,,,,,,,,,,,,856.6217873157793,None,858.6555228715688,860.6229159811437,860.6395228193187,None,862.1400027120317,None,n,0.9259036942712555,864.1570319055563,None,864.1570319055563,None,864.1570319055563,None,None,None,None,None,865.2071848927417,None,865.2071848927417,None,right,0.6278041689402016,865.2071848927417,None,None,None,865.8577467995228,867.1414315047232,,,,,,,,001,2019_Jul_24_1132,Test,3.1.2,59.97053047019415,
Pictures\IA20_10_L95p.bmp,Pictures\IA20_10_L95p.bmp,Pictures\IA20.bmp,"

"Don't be tempted to gamble."",0,safe,3,0,3,0,0,8,8,18,,,,,,,,,,,,,,,,,,,,,,,,,867.1581425321792,None,869.1916812168811,871.1592718195689,871.1759315299159,None,872.6762549832029,None,n,1.5088430262530892,874.7099012783247,None,874.7099012783247,None,874.7099012783247,None,None,None,None,None,876.3439225926531,None,876.3439225926531,None,right,0.29881050053882063,876.3439225926531,None,None,None,876.6607957821698,878.277945897461,,,,,,,,001,2019_Jul_24_1132,Test,3.1.2,59.97053047019415,
Pictures\IA80_40_G95p.bmp,Pictures\IA80_40_G95p.bmp,Pictures\IA80.bmp,"

"Think of the payoff, gamble!"",1,risk,3,0,3,0,0,9,9,2,,,,,,,,,,,,,,,,,,,,,,,,,878.2946363980745,None,880.3138162449441,882.295763508374,882.3123445324882,None,883.8126614545081,None,n,1.0757686214237765,885.8466224945596,None,885.8466224945596,None,885.8466224945596,None,None,None,None,None,887.0467274924731,None,887.0467274924731,None,left,0.4116701945877139,887.0467274924731,None,887.4805719649348,888.9809762815448,None,None,,,,,,,,001,2019_Jul_24_1132,Test,3.1.2,59.97053047019415,
Pictures\IA100_L60.bmp,Pictures\IA100_L60.bmp,Pictures\IA100.bmp,"

"You'd have a lot to lose, don't gamble."",0,safe,3,0,3,0,0,10,10,11,,,,,,,,,,,,,,,,,,,,,,,,,888.9976795336797,None,891.0192296089144,892.9987991796725,893.0154980776306,None,894.5159061263921,None,n,1.1483658455726982,896.5496609649736,None,896.5496609649736,None,896.5496609649736,None,None,None,None,None,897.8164853565859,None,897.8164853565859,None,right,0.2895507171651843,897.8164853565859,None,None,None,898.1336163756941,899.7507431650274,,,,,,,,001,2019_Jul_24_1132,Test,3.1.2,59.97053047019415,
Pictures\IA75_L45.bmp,Pictures\IA75_L45.bmp,Pictures\IA75.bmp,"

"Don't gamble for this one, play it safe."",0,safe,3,0,3,0,0,11,11,1,,,,,,,,,,,,,,,,,,,,,,,,,899.7674013203114,None,901.8011508716763,903.7685452253018,903.7851673031028,None,905.2856257359335,None,n,1.0265601800383592,907.3192054743222,None,907.3192054743222,None,907.3192054743222,None,None,None,None,None,908.4695310113957,None,908.4695310113957,None,right,0.4201527570348844,908.4695310113957,None,None,None,908.9200171554648,910.4037710921084,,,,,,,,001,2019_Jul_24_1132,Test,3.1.2,59.97053047019415,
Pictures\IA40_20_G95p.bmp,Pictures\IA40_20_G95p.bmp,Pictures\IA40.bmp,"

"Hold back, stay with the safe choice."",0,safe,3,0,3,0,0,12,12,12,,,,,,,,,,,,,,,,,,,,,,,,,910.4204587936065,None,912.4417958250897,914.4215983444165,914.4382294415891,None,915.9386682806153,None,n,1.3818509116717905,917.9556850336294,None,917.9556850336294,None,917.9556850336294,None,None,None,None,None,919.4726318087696,None,919.4726318087696,None,right,0.30492812183729257,919.4726318087696,None,None,None,919.8064250263278,921.4068787317656,,,,,,,,001,2019_Jul_24_1132,Test,3.1.2,59.97053047019415,
Pictures\IA50_G20.bmp,Pictures\IA50_G20.bmp,Pictures\IA50.bmp,"

"Let's venture and take a risk!"",1,risk,3,0,3,0,0,13,13,16,,,,,,,,,,,,,,,,,,,,,,,,,921.4235875821314,None,923.4572945247446,925.424727443954,925.4413787569565,None,926.9417805854637,None,n,1.3294800923831644,928.9755711905136,None,928.9755711905136,None,928.9755711905136,None,None,None,None,None,930.42575223105,None,930.42575223105,None,right,1.1754099614918232,930.42575223105,None,None,None,931.626477077426,None,,,,,,,,001,2019_Jul_24_1132,Test,3.1.2,59.97053047019415,
Pictures\IA25_G20.bmp,Pictures\IA25_G20.bmp,Pictures\IA25.bmp,"

"I wouldn't gamble for this one. "",0,safe,3,0,3,0,0,14,14,6,,,,,,,,,,,,,,,,,,,,,,,,,932.3767067603612,None,934.4104690632494,936.3778354257238,936.3944021432517,None,937.8949641433383,None,n,0.9040814828586008,939.9286822824115,None,939.9286822824115,None,939.9286822824115,None,None,None,None,None,940.962066393763,None,940.962066393763,None,right,0.34284213426872157,940.962066393763,None,None,None,941.3292518090066,942.8963643228535,,,,,,,,001,2019_Jul_24_1132,Test,3.1.2,59.97053047019415,
Pictures\IA25_L10.bmp,Pictures\IA25_L10.bmp,Pictures\IA25.bmp,"

"Dont be afraid to take the risk!"",1,risk,3,0,3,0,0,15,15,4,,,,,,,,,,,,,,,,,,,,,,,,,942.9130112816774,None,944.9469334451323,946.914129372607,946.9308363568953,None,948.4310674393882,None,n,1.1824500466827885,950.4500389076993,None,950.4500389076993,None,950.4500389076993,None,None,None,None,None,951.7484740158152,None,951.7484740158152,None,right,0.2921168835782737,951.7484740158152,None,None,None,952.0656560410198,953.6827713228804,,,,,,,,001,2019_Jul_24_1132,Test,3.1.2,59.97053047019415,
Pictures\IA50_G10.bmp,Pictures\IA50_G10.bmp,Pictures\IA50.bmp,"

"Go with the safe option here!"",0,safe,3,0,3,0,0,16,16,10,,,,,,,,,,,,,,,,,,,,,,,,,953.699417659679,None,955.7228310124528,957.7005568994764,957.7172601516131,None,959.2175375750094,None,n,1.029534395212977,961.2347580413907,None,961.2347580413907,None,961.2347580413907,None,None,None,None,None,962.3713676040379,None,962.3713676040379,None,right,0.3489367406236852,962.3713676040379,None,None,None,962.7520329350091,964.3191401616396,,,,,,,,001,2019_Jul_24_1132,Test,3.1.2,59.97053047019415,
Pictures\IA75_L30.bmp,Pictures\IA75_L30.bmp,Pictures\IA75.bmp,"

"Hold back, stay with the safe choice."",0,safe,3,0,3,0,0,17,17,8,,,,,,,,,,,,,,,,,,,,,,,,,964.3356736008,None,966.3577813219408,968.3369434659644,968.3536392537944,None,969.887345885395,None,n,1.336777696154968,971.8711131955888,None,971.8711131955888,None,971.8711131955888,None,None,None,None,None,973.3416708601553,None,973.3416708601553,None,left,0.2182989342836663,973.3416708601553,None,973.5883739692263,975.2889336678172,None,None,,,,,,,,001,2019_Jul_24_1132,Test,3.1.2,59.97053047019415,
Pictures\IA50_G40.bmp,Pictures\IA50_G40.bmp,Pictures\IA50.bmp,"

"It would probably be best to play it safe."",0,safe,3,0,3,0,0,18,18,19,,,,,,,,,,,,,,,,,,,,,,,,,975.3055725403092,None,977.3277542824899,979.3067291968227,979.3233938833737,None,980.8447480205587,None,n,1.2463445113389753,982.8573633207716,None,982.8573633207716,None,982.8573633207716,None,None,None,None,None,984.2412861995554,None,984.2412861995554,None,right,1.2143596464666189,984.2412861995554,None,None,None,985.4751674959307,None,,,,,,,,001,2019_Jul_24_1132,Test,3.1.2,59.97053047019415,
Pictures\IA50_L30.bmp,Pictures\IA50_L30.bmp,Pictures\IA50.bmp,"

"Take a leap, I think you should gamble."",1,risk,3,0,3,0,0,19,19,13,,,,,,,,,,,,,,,,,,,,,,,,,986.1918339241538,None,988.2257713272347,990.1930764201943,990.2098465400768,None,991.7102486795948,None,n,0.6394394678936806,993.7440389736339,None,993.7440389736339,None,993.7440389736339,None,None,None,None,None,994.5106804897341,None,994.5106804897341,None,right,0.2407176682008867,994.5106804897341,None,None,None,994.7778401531186,996.4449606910957,,,,,,,,001,2019_Jul_24_1132,Test,3.1.2,59.97053047019415,
,,,,,,3,0,3,0,,,,,,,,,,,,,,,,,,,,,,,,,,,,,,,,,,,,,,,,,,,,,,,,,,,,,,,,,,,,,996.5779413566752,None,return,7.1890985667905625,996.5779413566752,None,,001,2019_Jul_24_1132,Test,3.1.2,59.97053047019415,
Pictures\IA100_L60.bmp,Pictures\IA100_L60.bmp,Pictures\IA100.bmp,"

"You'd have a lot to lose, don't gamble."",0,safe,4,0,4,0,0,0,0,18,,,,,,,1003.8800237116147,None,1003.8800237116147,None,1003.8800237116147,None,left,1.2150765309124836,1003.8800237116147,None,1003.8800237116147,None,1003.8800237116147,None,return,1.6390267539409251,1003.8800237116147,None,1005.5806493449136,None,1007.5979478755025,1009.565357468754,1009.5820373949327,None,1011.0822970906002,None,n,1.4031543537748803,1013.0996127268927,None,1013.0996127268927,None,1013.0996127268927,None,None,None,None,None,1014.6330848548596,None,1014.6330848548596,None,left,0.23767378616503265,1014.6330848548596,None,1014.9001835597401,1016.5673594579921,None,None,,,,,,,,001,2019_Jul_24_1132,Test,3.1.2,59.97053047019415,
Pictures\IA100_L80.bmp,Pictures\IA100_L80.bmp,Pictures\IA100.bmp,"

"Go all in!"",1,risk,4,0,4,0,0,1,1,16,,,,,,,,,,,,,,,,,,,,,,,,,1016.5840204123915,None,1018.606788102642,1020.5851705376363,1020.6017963475906,None,1022.1022466940894,None,n,1.102226789273118,1024.1360730656097,None,1024.1360730656097,None,1024.1360730656097,None,None,None,None,None,1025.3206016106733,None,1025.3206016106733,None,right,0.2940582253231696,1025.3206016106733,None,None,None,1025.63661764898,1027.27040290461,,,,,,,,001,2019_Jul_24_1132,Test,3.1.2,59.97053047019415,
Pictures\IA50_G30.bmp,Pictures\IA50_G30.bmp,Pictures\IA50.bmp,"

"I think you should gamble."",1,risk,4,0,4,0,0,2,2,19,,,,,,,,,,,,,,,,,,,,,,,,,1027.2870573277405,None,1029.3100349516162,1031.288214917292,1031.3048799148573,None,1032.8052963609634,None,n,1.0478760626538133,1034.8223958433764,None,1034.8223958433764,None,1034.8223958433764,None,None,None,None,None,1035.977533681128,None,1035.977533681128,None,right,0.2927460624232481,1035.977533681128,None,None,None,1036.2895594255215,1037.9234445162538,,,,,,,,001,2019_Jul_24_1132,Test,3.1.2,59.97053047019415,
Pictures\IA50_L20.bmp,Pictures\IA50_L20.bmp,Pictures\IA50.bmp,"

"Certainty is boring, take a risk!"",1,risk,4,0,4,0,0,3,3,3,,,,,,,,,,,,,,,,,,,,,,,,,1037.9401042266009,None,1039.9738065040247,1041.9412590170386,1041.9579087749762,None,1043.4583217999434,None,n,0.9509809653955017,1045.4789447460926,None,1045.4789447460926,None,1045.4789447460926,None,None,None,None,None,1046.546761392864,None,1046.546761392864,None,left,0.6032929410685028,1046.546761392864,None,1047.1760842371887,1048.493132526898,None,None,,,,,,,,001,2019_Jul_24_1132,Test,3.1.2,59.97053047019415,
Pictures\IA50_L10.bmp,Pictures\IA50_L10.bmp,Pictures\IA50.bmp,"

"Play it safe, don’t gamble!"",0,safe,4,0,4,0,0,4,4,5,,,,,,,,,,,,,,,,,,,,,,,,,1048.5097897491441,None,1050.5295452806613,1052.5109324100822,1052.5275793689061,None,1054.0277507369456,None,n,0.8627292241926625,1056.0469374260965,None,1056.0469374260965,None,1056.0469374260965,None,None,None,None,None,1057.01628898312,None,1057.01628898312,None,left,0.18937039195589023,1057.01628898312,None,1057.228892651453,1058.9627605742799,None,None,,,,,,,,001,2019_Jul_24_1132,Test,3.1.2,59.97053047019415,
Pictures\IA75_G15.bmp,Pictures\IA75_G15.bmp,Pictures\IA75.bmp,"

"Take a chance!"",1,risk,4,0,4,0,0,5,5,7,,,,,,,,,,,,,,,,,,,,,,,,,1058.9794560510954,None,1061.000017727728,1062.9805679217689,1062.9972375845255,None,1064.4974876387978,None,n,0.9765371961948404,1066.5168652897928,None,1066.5168652897928,None,1066.5168652897928,None,None,None,None,None,1067.5982131694009,None,1067.5982131694009,None,left,0.2472221893931419,1067.5982131694009,None,1067.8652916584515,1069.5324457858087,None,None,,,,,,,,001,2019_Jul_24_1132,Test,3.1.2,59.97053047019415,
Pictures\IA25_G15.bmp,Pictures\IA25_G15.bmp,Pictures\IA25.bmp,"

"I think you should take a gamble."",1,risk,4,0,4,0,0,6,6,11,,,,,,,,,,,,,,,,,,,,,,,,,1069.5489997518116,None,1071.5718962013516,1073.5502727271041,1073.5669106665564,None,1075.087479496483,None,n,1.4406537861759716,1077.0844947068736,None,1077.0844947068736,None,1077.0844947068736,None,None,None,None,None,1078.6397971325869,None,1078.6397971325869,None,left,0.2850901719339163,1078.6397971325869,None,1078.9514736096326,1080.5855549494272,None,None,,,,,,,,001,2019_Jul_24_1132,Test,3.1.2,59.97053047019415,
Pictures\IA100_G40.bmp,Pictures\IA100_G40.bmp,Pictures\IA100.bmp,"

"Try your luck and gamble!"",1,risk,4,0,4,0,0,7,7,8,,,,,,,,,,,,,,,,,,,,,,,,,1080.6022781063812,None,1082.6245798994942,1084.603418590229,1084.6200776785508,None,1086.1204935026317,None,n,1.1147658913541818,1088.1540520921526,None,1088.1540520921526,None,1088.1540520921526,None,None,None,None,None,1089.3751666250946,None,1089.3751666250946,None,left,0.549528473531609,1089.3751666250946,None,1089.9549177651124,1091.3053165767951,None,None,,,,,,,,001,2019_Jul_24_1132,Test,3.1.2,59.97053047019415,
Pictures\IA50_L30.bmp,Pictures\IA50_L30.bmp,Pictures\IA50.bmp,"

"Take a leap, I think you should gamble."",1,risk,4,0,4,0,0,8,8,1,,,,,,,,,,,,,,,,,,,,,,,,,1091.3219874836022,None,1093.355837492093,1095.3231217471957,1095.3396726030724,None,1096.8400312008025,None,n,0.651161228401179,1098.8573571005154,None,1098.8573571005154,None,1098.8573571005154,None,None,None,None,None,1099.6464136183795,None,1099.6464136183795,None,right,0.8139904120980646,1099.6464136183795,None,None,None,1100.4912664502435,1101.5915867312006,,,,,,,,001,2019_Jul_24_1132,Test,3.1.2,59.97053047019415,
Pictures\IA100_G20.bmp,Pictures\IA100_G20.bmp,Pictures\IA100.bmp,"

"Go ahead and gamble!"",1,risk,4,0,4,0,0,9,9,2,,,,,,,,,,,,,,,,,,,,,,,,,1101.608242087369,None,1103.6280682187871,1105.6093751069102,1105.6259909644568,None,1107.1597834355844,None,n,0.5224607206419023,1109.1457915928268,None,1109.1457915928268,None,1109.1457915928268,None,None,None,None,None,1109.7768467783126,None,1109.7768467783126,None,left,0.4754243924835464,1109.7768467783126,None,1110.2773179626683,1111.7111369320837,None,None,,,,,,,,001,2019_Jul_24_1132,Test,3.1.2,59.97053047019415,
Pictures\IA20_10_G95p.bmp,Pictures\IA20_10_G95p.bmp,Pictures\IA20.bmp,"

"Take a leap, I think you should gamble."",1,risk,4,0,4,0,0,10,10,9,,,,,,,,,,,,,,,,,,,,,,,,,1111.7277975754687,None,1113.7615191356826,1115.7289337051398,1115.7455713335794,None,1117.2458894996498,None,n,0.6289241259455594,1119.263053983731,None,1119.263053983731,None,1119.263053983731,None,None,None,None,None,1120.0130867955804,None,1120.0130867955804,None,right,0.3908668610274617,1120.0130867955804,None,None,None,1120.4302955056783,1121.9473844136564,,,,,,,,001,2019_Jul_24_1132,Test,3.1.2,59.97053047019415,
Pictures\IA25_L20.bmp,Pictures\IA25_L20.bmp,Pictures\IA25.bmp,"

"Don't be tempted to gamble."",0,safe,4,0,4,0,0,11,11,14,,,,,,,,,,,,,,,,,,,,,,,,,1121.9640400808394,None,1123.9978129581605,1125.9651958043132,1125.9817699861478,None,1127.515619683626,None,n,0.5123017993337271,1129.4993720652064,None,1129.4993720652064,None,1129.4993720652064,None,None,None,None,None,1130.1212710345726,None,1130.1212710345726,None,right,0.6023857168001996,1130.1212710345726,None,None,None,1130.7498378068385,1132.066938346693,,,,,,,,001,2019_Jul_24_1132,Test,3.1.2,59.97053047019415,
Pictures\IA25_G20.bmp,Pictures\IA25_G20.bmp,Pictures\IA25.bmp,"

"I wouldn't gamble for this one. "",0,safe,4,0,4,0,0,12,12,12,,,,,,,,,,,,,,,,,,,,,,,,,1132.0835672667772,None,1134.104461727079,1136.0847295215199,1136.1012884637285,None,1137.601799146706,None,n,1.0327966082204512,1139.6186840303026,None,1139.6186840303026,None,1139.6186840303026,None,None,None,None,None,1140.7689877964813,None,1140.7689877964813,None,right,0.2519449183928373,1140.7689877964813,None,None,None,1141.0527953517276,1142.7033009651977,,,,,,,,001,2019_Jul_24_1132,Test,3.1.2,59.97053047019415,
Pictures\IA50_G20.bmp,Pictures\IA50_G20.bmp,Pictures\IA50.bmp,"

"Let's venture and take a risk!"",1,risk,4,0,4,0,0,13,13,4,,,,,,,,,,,,,,,,,,,,,,,,,1142.7198686157635,None,1144.753707738807,1146.7211182650963,1146.737767089996,None,1148.2381872682572,None,n,1.7317318870827876,1150.2553514413275,None,1150.2553514413275,None,1150.2553514413275,None,None,None,None,None,1152.1055959906726,None,1152.1055959906726,None,right,0.2175444172899006,1152.1055959906726,None,None,None,1152.3393413744661,1154.0398556651917,,,,,,,,001,2019_Jul_24_1132,Test,3.1.2,59.97053047019415,
Pictures\IA50_G40.bmp,Pictures\IA50_G40.bmp,Pictures\IA50.bmp,"

"It would probably be best to play it safe."",0,safe,4,0,4,0,0,14,14,15,,,,,,,,,,,,,,,,,,,,,,,,,1154.0565057341437,None,1156.0902549744942,1158.057657103439,1158.0743158807481,None,1159.5745898830037,None,n,2.370725984683304,1161.59187690612,None,1161.59187690612,None,1161.59187690612,None,None,None,None,None,1164.092318233249,None,1164.092318233249,None,left,1.8542740308676002,1164.092318233249,None,1165.9765543018975,None,None,None,,,,,,,,001,2019_Jul_24_1132,Test,3.1.2,59.97053047019415,
Pictures\IA50_G10.bmp,Pictures\IA50_G10.bmp,Pictures\IA50.bmp,"

"Go with the safe option here!"",0,safe,4,0,4,0,0,15,15,10,,,,,,,,,,,,,,,,,,,,,,,,,1166.0432814709175,None,1168.0643314376075,1170.0444176005867,1170.0610630043457,None,1171.5615043314747,None,n,1.4920906340994406,1173.5823866622804,None,1173.5823866622804,None,1173.5823866622804,None,None,None,None,None,1175.1805842810418,None,1175.1805842810418,None,right,0.26187835543896654,1175.1805842810418,None,None,None,1175.4626231066331,1177.129777545003,,,,,,,,001,2019_Jul_24_1132,Test,3.1.2,59.97053047019415,
Pictures\IA25_L10.bmp,Pictures\IA25_L10.bmp,Pictures\IA25.bmp,"

"Dont be afraid to take the risk!"",1,risk,4,0,4,0,0,16,16,17,,,,,,,,,,,,,,,,,,,,,,,,,1177.1464307240813,None,1179.1655667181503,1181.1475724519814,1181.1642505120826,None,1182.664518294082,None,n,1.0064824392866285,1184.6837046722203,None,1184.6837046722203,None,1184.6837046722203,None,None,None,None,None,1185.802941372226,None,1185.802941372226,None,left,0.2232459034967178,1185.802941372226,None,1186.0489773588915,1187.7494527730205,None,None,,,,,,,,001,2019_Jul_24_1132,Test,3.1.2,59.97053047019415,
Pictures\IA100_L20.bmp,Pictures\IA100_L20.bmp,Pictures\IA100.bmp,"

"Try to win as much money as you can, gamble!"",1,risk,4,0,4,0,0,17,17,0,,,,,,,,,,,,,,,,,,,,,,,,,1187.7660994208318,None,1189.7857370785086,1191.7672666517801,1191.783936936562,None,1193.2841048834607,None,n,1.4028763083533704,1195.3028583318146,None,1195.3028583318146,None,1195.3028583318146,None,None,None,None,None,1196.835196818215,None,1196.835196818215,None,right,0.2705521907428192,1196.835196818215,None,None,None,1197.1354062542187,1198.7692599326592,,,,,,,,001,2019_Jul_24_1132,Test,3.1.2,59.97053047019415,
Pictures\IA75_L60.bmp,Pictures\IA75_L60.bmp,Pictures\IA75.bmp,"

"Why not take the gamble?"",1,risk,4,0,4,0,0,18,18,6,,,,,,,,,,,,,,,,,,,,,,,,,1198.7859106236365,None,1200.8054823466036,1202.7870221832973,1202.8037556036734,None,1204.3039994376895,None,n,1.112326929165647,1206.321257536617,None,1206.321257536617,None,1206.321257536617,None,None,None,None,None,1207.543545831776,None,1207.543545831776,None,left,0.5619189115059271,1207.543545831776,None,1208.121930381657,1209.4890028992622,None,None,,,,,,,,001,2019_Jul_24_1132,Test,3.1.2,59.97053047019415,
Pictures\IA100_L40.bmp,Pictures\IA100_L40.bmp,Pictures\IA100.bmp,"

"Think of the payoff, gamble!"",1,risk,4,0,4,0,0,19,19,13,,,,,,,,,,,,,,,,,,,,,,,,,1209.5056703849286,None,1211.5394482384554,1213.506812734854,1213.5234270373358,None,1215.0238699195297,None,n,1.407841627318703,1217.0574736059016,None,1217.0574736059016,None,1217.0574736059016,None,None,None,None,None,1218.5911774383867,None,1218.5911774383867,None,right,0.6661542212841596,1218.5911774383867,None,None,None,1219.2750895561285,1220.5254607498764,,,,,,,,001,2019_Jul_24_1132,Test,3.1.2,59.97053047019415,
,,,,,,4,0,4,0,,,,,,,,,,,,,,,,,,,,,,,,,,,,,,,,,,,,,,,,,,,,,,,,,,,,,,,,,,,,,1220.6420721910426,None,return,12.014801409011852,1220.6420721910426,None,,001,2019_Jul_24_1132,Test,3.1.2,59.97053047019415,
Pictures\IA25_L20.bmp,Pictures\IA25_L20.bmp,Pictures\IA25.bmp,"

"Don't be tempted to gamble."",0,safe,5,0,5,0,0,0,0,6,,,,,,,1232.7785501952849,None,1232.7785501952849,None,1232.7785501952849,None,left,1.3663379054287361,1232.7785501952849,None,1232.7785501952849,None,1232.7785501952849,None,return,2.1662145577611227,1232.7785501952849,None,1234.9961269579044,None,1237.0009790682188,1238.9807212510686,1238.9973790953381,None,1240.4978344180427,None,n,2.2851449101817707,1242.5313889643958,None,1242.5313889643958,None,1242.5313889643958,None,None,None,None,None,1244.932044952543,None,1244.932044952543,None,left,0.5564466417145013,1244.932044952543,None,1245.5158311723126,1246.8662956076905,None,None,,,,,,,,001,2019_Jul_24_1132,Test,3.1.2,59.97053047019415,
Pictures\IA100_G60.bmp,Pictures\IA100_G60.bmp,Pictures\IA100.bmp,"

"Be cautious, don't gamble for this one."",0,safe,5,0,5,0,0,1,1,5,,,,,,,,,,,,,,,,,,,,,,,,,1246.8829590501928,None,1248.9167008262366,1250.8841191278452,1250.9007850584485,None,1252.4011974613904,None,n,1.4939293416300643,1254.418300675955,None,1254.418300675955,None,1254.418300675955,None,None,None,None,None,1256.035201981028,None,1256.035201981028,None,right,0.5011495032194944,1256.035201981028,None,None,None,1256.5690774925652,1257.9694905797342,,,,,,,,001,2019_Jul_24_1132,Test,3.1.2,59.97053047019415,
Pictures\IA50_L20.bmp,Pictures\IA50_L20.bmp,Pictures\IA50.bmp,"

"Certainty is boring, take a risk!"",1,risk,5,0,5,0,0,2,2,11,,,,,,,,,,,,,,,,,,,,,,,,,1257.986133495392,None,1259.9899095015035,1261.9869903355893,1261.9869903355893,None,1263.5043218335331,None,n,1.0620296320539637,1265.5379186776236,None,1265.5379186776236,None,1265.5379186776236,None,None,None,None,None,1266.710209180973,None,1266.710209180973,None,right,0.5457922770565347,1266.710209180973,None,None,None,1267.2720913929707,1268.6558618754943,,,,,,,,001,2019_Jul_24_1132,Test,3.1.2,59.97053047019415,
Pictures\IA75_G15.bmp,Pictures\IA75_G15.bmp,Pictures\IA75.bmp,"

"Take a chance!"",1,risk,5,0,5,0,0,3,3,14,,,,,,,,,,,,,,,,,,,,,,,,,1268.6723620362873,None,1270.6919017249393,1272.6736312794264,1272.6901808912507,None,1274.190549752403,None,n,1.6289048431517585,1276.2106035451734,None,1276.2106035451734,None,1276.2106035451734,None,None,None,None,None,1277.9436553704754,None,1277.9436553704754,None,right,0.5599744596311211,1277.9436553704754,None,None,None,1278.5252738311983,1279.875714318593,,,,,,,,001,2019_Jul_24_1132,Test,3.1.2,59.97053047019415,
Pictures\IA80_40_G95p.bmp,Pictures\IA80_40_G95p.bmp,Pictures\IA80.bmp,"

"Think of the payoff, gamble!"",1,risk,5,0,5,0,0,4,4,2,,,,,,,,,,,,,,,,,,,,,,,,,1279.8923786941332,None,1281.9113977473962,1283.8935002062017,1283.910191639853,None,1285.410425210447,None,n,1.3229877006888273,1287.4443511060554,None,1287.4443511060554,None,1287.4443511060554,None,None,None,None,None,1288.8789168171452,None,1288.8789168171452,None,right,0.43238799963546626,1288.8789168171452,None,None,None,1289.328408964383,1290.828831941758,,,,,,,,001,2019_Jul_24_1132,Test,3.1.2,59.97053047019415,
Pictures\IA40_20_G95p.bmp,Pictures\IA40_20_G95p.bmp,Pictures\IA40.bmp,"

"Hold back, stay with the safe choice."",0,safe,5,0,5,0,0,5,5,15,,,,,,,,,,,,,,,,,,,,,,,,,1290.8454984943883,None,1292.862721759885,1294.846641466339,1294.8632934013667,None,1296.363569269698,None,n,1.4497297609996167,1298.3812478578993,None,1298.3812478578993,None,1298.3812478578993,None,None,None,None,None,1299.9310416253275,None,1299.9310416253275,None,right,0.9719118141947547,1299.9310416253275,None,None,None,1300.9317196331785,None,,,,,,,,001,2019_Jul_24_1132,Test,3.1.2,59.97053047019415,
Pictures\IA50_L40.bmp,Pictures\IA50_L40.bmp,Pictures\IA50.bmp,"

"That gamble doesn't sound too good, play it safe."",0,safe,5,0,5,0,0,6,6,0,,,,,,,,,,,,,,,,,,,,,,,,,1301.88196940754,None,1303.9158841066883,1305.8831086473374,1305.8997098872833,None,1307.4334317585099,None,n,1.538535104944458,1309.4202074952836,None,1309.4202074952836,None,1309.4202074952836,None,None,None,None,None,1311.0842306570275,None,1311.0842306570275,None,left,0.5543628561172227,1311.0842306570275,None,1311.6681176449374,1313.0184816231877,None,None,,,,,,,,001,2019_Jul_24_1132,Test,3.1.2,59.97053047019415,
Pictures\IA110_55_G95p.bmp,Pictures\IA110_55_G95p.bmp,Pictures\IA110.bmp,"

"Take a chance!"",1,risk,5,0,5,0,0,7,7,18,,,,,,,,,,,,,,,,,,,,,,,,,1313.0351683916479,None,1315.0582464726494,1317.036282128397,1317.0529751171116,None,1318.5533557967492,None,n,1.3047897211508825,1320.5735604307165,None,1320.5735604307165,None,1320.5735604307165,None,None,None,None,None,1321.9879323932864,None,1321.9879323932864,None,left,0.49044568752651685,1321.9879323932864,None,1322.5044123382495,1323.9215305436328,None,None,,,,,,,,001,2019_Jul_24_1132,Test,3.1.2,59.97053047019415,
Pictures\IA50_G40.bmp,Pictures\IA50_G40.bmp,Pictures\IA50.bmp,"

"It would probably be best to play it safe."",0,safe,5,0,5,0,0,8,8,9,,,,,,,,,,,,,,,,,,,,,,,,,1323.938268007173,None,1325.9613395569058,1327.9393972945627,1327.9560691344077,None,1329.4563114133607,None,n,1.6843842351354397,1331.4736012355925,None,1331.4736012355925,None,1331.4736012355925,None,None,None,None,None,1333.2752099180734,None,1333.2752099180734,None,left,0.5229172873969219,1333.2752099180734,None,1333.824403119831,1335.2248087426933,None,None,,,,,,,,001,2019_Jul_24_1132,Test,3.1.2,59.97053047019415,
Pictures\IA110_55_L95p.bmp,Pictures\IA110_55_L95p.bmp,Pictures\IA110.bmp,"

"Trust me, gamble!"",1,risk,5,0,5,0,0,9,9,8,,,,,,,,,,,,,,,,,,,,,,,,,1335.2414609887355,None,1337.2609487382533,1339.2426036496736,1339.2592929062348,None,1340.759539228352,None,n,1.058989171157009,1342.7788310398219,None,1342.7788310398219,None,1342.7788310398219,None,None,None,None,None,1343.9475060196519,None,1343.9475060196519,None,right,0.4583165127260145,1343.9475060196519,None,None,None,1344.4274310780138,1345.8778534644653,,,,,,,,001,2019_Jul_24_1132,Test,3.1.2,59.97053047019415,
Pictures\IA50_L30.bmp,Pictures\IA50_L30.bmp,Pictures\IA50.bmp,"

"Take a leap, I think you should gamble."",1,risk,5,0,5,0,0,10,10,17,,,,,,,,,,,,,,,,,,,,,,,,,1345.8945203281064,None,1347.9284054810405,1349.8956558357504,1349.9122928421648,None,1351.4125970126597,None,n,1.4448104719249386,1353.4167058024404,None,1353.4167058024404,None,1353.4167058024404,None,None,None,None,None,1354.9800451092933,None,1354.9800451092933,None,left,0.4094825307238352,1354.9800451092933,None,1355.413896735051,1356.9143346410392,None,None,,,,,,,,001,2019_Jul_24_1132,Test,3.1.2,59.97053047019415,
Pictures\IA25_G20.bmp,Pictures\IA25_G20.bmp,Pictures\IA25.bmp,"

"I wouldn't gamble for this one. "",0,safe,5,0,5,0,0,11,11,4,,,,,,,,,,,,,,,,,,,,,,,,,1356.9309971505018,None,1358.9514717435568,1360.9321528739756,1360.9487976557111,None,1362.4490390016244,None,n,1.7365746670129738,1364.4685786902764,None,1364.4685786902764,None,1364.4685786902764,None,None,None,None,None,1366.3333363397896,None,1366.3333363397896,None,left,0.39191621813552047,1366.3333363397896,None,1366.7504290421248,1368.2675630469557,None,None,,,,,,,,001,2019_Jul_24_1132,Test,3.1.2,59.97053047019415,
Pictures\IA50_G20.bmp,Pictures\IA50_G20.bmp,Pictures\IA50.bmp,"

"Let's venture and take a risk!"",1,risk,5,0,5,0,0,12,12,16,,,,,,,,,,,,,,,,,,,,,,,,,1368.2842305326221,None,1370.3062129156142,1372.285386878123,1372.3020294827666,None,1373.802454326219,None,n,1.4406117994531087,1375.8362415101283,None,1375.8362415101283,None,1375.8362415101283,None,None,None,None,None,1377.403134137944,None,1377.403134137944,None,right,1.2736937307909102,1377.403134137944,None,None,None,1378.7038076050094,None,,,,,,,,001,2019_Jul_24_1132,Test,3.1.2,59.97053047019415,
Pictures\IA75_G45.bmp,Pictures\IA75_G45.bmp,Pictures\IA75.bmp,"

"Don't gamble for this one."",0,safe,5,0,5,0,0,13,13,1,,,,,,,,,,,,,,,,,,,,,,,,,1379.3540606761044,None,1381.370902017913,1383.3550574720512,1383.3717345991145,None,1384.8722729622286,None,n,1.4511109687373391,1386.8894094551624,None,1386.8894094551624,None,1386.8894094551624,None,None,None,None,None,1388.4562803120834,None,1388.4562803120834,None,left,0.4443265360459918,1388.4562803120834,None,1388.9233767154683,1390.3905151055797,None,None,,,,,,,,001,2019_Jul_24_1132,Test,3.1.2,59.97053047019415,
Pictures\IA100_L20.bmp,Pictures\IA100_L20.bmp,Pictures\IA100.bmp,"

"Try to win as much money as you can, gamble!"",1,risk,5,0,5,0,0,14,14,7,,,,,,,,,,,,,,,,,,,,,,,,,1390.4072071612563,None,1392.42867544013,1394.4083118786357,1394.425042810909,None,1395.925386169013,None,n,1.130323683435563,1397.9460781599983,None,1397.9460781599983,None,1397.9460781599983,None,None,None,None,None,1399.1926745916871,None,1399.1926745916871,None,left,0.4436628347830265,1399.1926745916871,None,1399.6597986752104,1401.1269149834143,None,None,,,,,,,,001,2019_Jul_24_1132,Test,3.1.2,59.97053047019415,
Pictures\IA100_G40.bmp,Pictures\IA100_G40.bmp,Pictures\IA100.bmp,"

"Try your luck and gamble!"",1,risk,5,0,5,0,0,15,15,12,,,,,,,,,,,,,,,,,,,,,,,,,1401.1436061060513,None,1403.1666879192062,1405.1447677387687,1405.1614000799937,None,1406.6618230573686,None,n,1.3086154893062485,1408.6953810248624,None,1408.6953810248624,None,1408.6953810248624,None,None,None,None,None,1410.1290961160112,None,1410.1290961160112,None,right,0.7307938725498389,1410.1290961160112,None,None,None,1410.879725139349,1412.06338502573,,,,,,,,001,2019_Jul_24_1132,Test,3.1.2,59.97053047019415,
Pictures\IA50_G30.bmp,Pictures\IA50_G30.bmp,Pictures\IA50.bmp,"

"I think you should gamble."",1,risk,5,0,5,0,0,16,16,19,,,,,,,,,,,,,,,,,,,,,,,,,1412.0800444250644,None,1414.1137569659086,1416.0811836648636,1416.0978424421728,None,1417.5980455335148,None,n,1.5962012277541362,1419.6153577486666,None,1419.6153577486666,None,1419.6153577486666,None,None,None,None,None,1421.3201416227776,None,1421.3201416227776,None,right,0.42754988489286916,1421.3201416227776,None,None,None,1421.7659208994983,1423.2498987653426,,,,,,,,001,2019_Jul_24_1132,Test,3.1.2,59.97053047019415,
Pictures\IA75_L15.bmp,Pictures\IA75_L15.bmp,Pictures\IA75.bmp,"

"Trust me, gamble!"",1,risk,5,0,5,0,0,17,17,3,,,,,,,,,,,,,,,,,,,,,,,,,1423.2665659399963,None,1425.2890764226822,1427.2676998925772,1427.2844756106888,None,1428.7845972166842,None,n,0.9134837100828008,1430.80191440804,None,1430.80191440804,None,1430.80191440804,None,None,None,None,None,1431.8186297896746,None,1431.8186297896746,None,left,0.4165664687170647,1431.8186297896746,None,1432.252337105504,1433.7528813778617,None,None,,,,,,,,001,2019_Jul_24_1132,Test,3.1.2,59.97053047019415,
Pictures\IA75_L30.bmp,Pictures\IA75_L30.bmp,Pictures\IA75.bmp,"

"Hold back, stay with the safe choice."",0,safe,5,0,5,0,0,18,18,13,,,,,,,,,,,,,,,,,,,,,,,,,1433.7695507296057,None,1435.7926039295844,1437.7707055200417,1437.787367407479,None,1439.2876292802366,None,n,0.9860641395425773,1441.30492501171,None,1441.30492501171,None,1441.30492501171,None,None,None,None,None,1442.4216533936788,None,1442.4216533936788,None,left,0.437335279857507,1442.4216533936788,None,1442.8888322154498,1444.3559087140193,None,None,,,,,,,,001,2019_Jul_24_1132,Test,3.1.2,59.97053047019415,
Pictures\IA100_L40.bmp,Pictures\IA100_L40.bmp,Pictures\IA100.bmp,"

"Think of the payoff, gamble!"",1,risk,5,0,5,0,0,19,19,10,,,,,,,,,,,,,,,,,,,,,,,,,1444.3725923723496,None,1446.4063521871349,1448.3738127864826,1448.390391944521,None,1449.890773246184,None,n,2.5262270853563678,1451.9245766027589,None,1451.9245766027589,None,1451.9245766027589,None,None,None,None,None,1454.5637675714452,None,1454.5637675714452,None,right,1.1988733873204183,1454.5637675714452,None,None,None,1455.7924882328325,None,,,,,,,,001,2019_Jul_24_1132,Test,3.1.2,59.97053047019415,
,,,,,,5,0,5,0,,,,,,,,,,,,,,,,,,,,,,,,,,,,,,,,,,,,,,,,,,,,,,,,,,,,,,,,,,,,,1456.64237449546,None,return,12.439894603990979,1456.64237449546,None,,001,2019_Jul_24_1132,Test,3.1.2,59.97053047019415,
Pictures\IA100_G60.bmp,Pictures\IA100_G60.bmp,Pictures\IA100.bmp,"

"Be cautious, don't gamble for this one."",0,safe,6,0,6,0,0,0,0,8,,,,,,,1469.1960975982975,None,1469.1960975982975,None,1469.1960975982975,None,right,1.10225260333209,1469.1960975982975,None,1469.1960975982975,None,1469.1960975982975,None,return,6.950074363154272,1469.1960975982975,None,1476.2646112246994,None,1478.215526255387,1480.182687349431,1480.1994524931097,None,1481.699687307756,None,n,1.4129624526703992,1483.7169752639102,None,1483.7169752639102,None,1483.7169752639102,None,None,None,None,None,1485.250586103576,None,1485.250586103576,None,left,0.34331114153428643,1485.250586103576,None,1485.617681325114,1487.2014429748751,None,None,,,,,,,,001,2019_Jul_24_1132,Test,3.1.2,59.97053047019415,
Pictures\IA80_40_G95p.bmp,Pictures\IA80_40_G95p.bmp,Pictures\IA80.bmp,"

"Think of the payoff, gamble!"",1,risk,6,0,6,0,0,1,1,9,,,,,,,,,,,,,,,,,,,,,,,,,1487.2181257001675,None,1489.2371904723104,1491.2192537435049,1491.235912520814,None,1492.7361666182524,None,n,1.3831310402565578,1494.7544028523598,None,1494.7544028523598,None,1494.7544028523598,None,None,None,None,None,1496.2539036768549,None,1496.2539036768549,None,left,0.27574828118849837,1496.2539036768549,None,1496.5540689490454,1498.1879070768473,None,None,,,,,,,,001,2019_Jul_24_1132,Test,3.1.2,59.97053047019415,
Pictures\IA50_L10.bmp,Pictures\IA50_L10.bmp,Pictures\IA50.bmp,"

"Play it safe, don’t gamble!"",0,safe,6,0,6,0,0,2,2,4,,,,,,,,,,,,,,,,,,,,,,,,,1498.2045677202323,None,1500.2241400652265,1502.2057078930693,1502.2224067910256,None,1503.7226105043947,None,n,1.3413934367599722,1505.7399547538616,None,1505.7399547538616,None,1505.7399547538616,None,None,None,None,None,1507.2067843082868,None,1507.2067843082868,None,left,0.2508364688601432,1507.2067843082868,None,1507.473832007071,1509.1410094603862,None,None,,,,,,,,001,2019_Jul_24_1132,Test,3.1.2,59.97053047019415,
Pictures\IA50_L20.bmp,Pictures\IA50_L20.bmp,Pictures\IA50.bmp,"

"Certainty is boring, take a risk!"",1,risk,6,0,6,0,0,3,3,0,,,,,,,,,,,,,,,,,,,,,,,,,1509.1577295072138,None,1511.1807665345286,1513.1588575505511,1513.1752905325857,None,1514.67591629029,None,n,0.5400503591881716,1516.6930403427114,None,1516.6930403427114,None,1516.6930403427114,None,None,None,None,None,1517.3464666771588,None,1517.3464666771588,None,right,0.422600427580619,1517.3464666771588,None,None,None,1517.7934924930842,1519.2939325761627,,,,,,,,001,2019_Jul_24_1132,Test,3.1.2,59.97053047019415,
Pictures\IA75_G60.bmp,Pictures\IA75_G60.bmp,Pictures\IA75.bmp,"

"Make it exciting, take a chance!"",1,risk,6,0,6,0,0,4,4,12,,,,,,,,,,,,,,,,,,,,,,,,,1519.3105260407892,None,1521.3443838245994,1523.3116733669185,1523.3283927917191,None,1524.828827898592,None,n,1.114161593530298,1526.8626129054128,None,1526.8626129054128,None,1526.8626129054128,None,None,None,None,None,1528.0960522526339,None,1528.0960522526339,None,left,0.28071204508887604,1528.0960522526339,None,1528.3964669570696,1530.0303225015878,None,None,,,,,,,,001,2019_Jul_24_1132,Test,3.1.2,59.97053047019415,
Pictures\IA100_L20.bmp,Pictures\IA100_L20.bmp,Pictures\IA100.bmp,"

"Try to win as much money as you can, gamble!"",1,risk,6,0,6,0,0,5,5,15,,,,,,,,,,,,,,,,,,,,,,,,,1530.0469809678843,None,1532.0807354954532,1534.0481189636312,1534.0647027868608,None,1535.5652333746575,None,n,1.2016952062367636,1537.5987670831537,None,1537.5987670831537,None,1537.5987670831537,None,None,None,None,None,1538.9324732171344,None,1538.9324732171344,None,left,0.2520186284218653,1538.9324732171344,None,1539.2162543362965,1540.866759016727,None,None,,,,,,,,001,2019_Jul_24_1132,Test,3.1.2,59.97053047019415,
Pictures\IA75_G15.bmp,Pictures\IA75_G15.bmp,Pictures\IA75.bmp,"

"Take a chance!"",1,risk,6,0,6,0,0,6,6,3,,,,,,,,,,,,,,,,,,,,,,,,,1540.883392913015,None,1542.9040239454962,1544.8845134920457,1544.9012223424115,None,1546.401561346337,None,n,1.2582814926881838,1548.4218801219913,None,1548.4218801219913,None,1548.4218801219913,None,None,None,None,None,1549.7873363062017,None,1549.7873363062017,None,left,0.2928343900512118,1549.7873363062017,None,1550.1026793128613,1551.7198592853792,None,None,,,,,,,,001,2019_Jul_24_1132,Test,3.1.2,59.97053047019415,
Pictures\IA100_G80.bmp,Pictures\IA100_G80.bmp,Pictures\IA100.bmp,"

"Why not gamble?"",1,risk,6,0,6,0,0,7,7,7,,,,,,,,,,,,,,,,,,,,,,,,,1551.7365028230624,None,1553.7428005207594,1555.737632110452,1555.7542980410553,None,1557.254728482737,None,n,0.8960884545231238,1559.2718099264084,None,1559.2718099264084,None,1559.2718099264084,None,None,None,None,None,1560.271865597696,None,1560.271865597696,None,right,0.42396390758949565,1560.271865597696,None,None,None,1560.722310999091,1562.206147976146,,,,,,,,001,2019_Jul_24_1132,Test,3.1.2,59.97053047019415,
Pictures\IA75_G45.bmp,Pictures\IA75_G45.bmp,Pictures\IA75.bmp,"

"Don't gamble for this one."",0,safe,6,0,6,0,0,8,8,14,,,,,,,,,,,,,,,,,,,,,,,,,1562.2228226151083,None,1564.245841292669,1566.2239668311095,1566.2572728782552,None,1567.7408663323067,None,n,1.2094456446084223,1569.7580805784337,None,1569.7580805784337,None,1569.7580805784337,None,None,None,None,None,1571.0791148078779,None,1571.0791148078779,None,right,0.32850257923018944,1571.0791148078779,None,None,None,1571.425446505492,1573.0259030100433,,,,,,,,001,2019_Jul_24_1132,Test,3.1.2,59.97053047019415,
Pictures\IA80_40_L95p.bmp,Pictures\IA80_40_L95p.bmp,Pictures\IA80.bmp,"

"Let's stay with the certain option."",0,safe,6,0,6,0,0,9,9,13,,,,,,,,,,,,,,,,,,,,,,,,,1573.0425764049533,None,1575.0631517661486,1577.0437246641222,1577.0603952599167,None,1578.5607118709222,None,n,1.354705405587083,1580.5806157555335,None,1580.5806157555335,None,1580.5806157555335,None,None,None,None,None,1582.0483994971555,None,1582.0483994971555,None,right,0.3268650969639566,1582.0483994971555,None,None,None,1582.395185895447,1583.99566261583,,,,,,,,001,2019_Jul_24_1132,Test,3.1.2,59.97053047019415,
Pictures\IA50_L30.bmp,Pictures\IA50_L30.bmp,Pictures\IA50.bmp,"

"Take a leap, I think you should gamble."",1,risk,6,0,6,0,0,10,10,10,,,,,,,,,,,,,,,,,,,,,,,,,1584.0123587146709,None,1586.0461163523678,1588.0135147491592,1588.0301629520336,None,1589.5305809532047,None,n,1.4351162037037284,1591.547690699038,None,1591.547690699038,None,1591.547690699038,None,None,None,None,None,1593.1145565797551,None,1593.1145565797551,None,left,0.19631624027715588,1593.1145565797551,None,1593.331632300792,1595.0488370921312,None,None,,,,,,,,001,2019_Jul_24_1132,Test,3.1.2,59.97053047019415,
Pictures\IA100_L60.bmp,Pictures\IA100_L60.bmp,Pictures\IA100.bmp,"

"You'd have a lot to lose, don't gamble."",0,safe,6,0,6,0,0,11,11,16,,,,,,,,,,,,,,,,,,,,,,,,,1595.0654992905793,None,1597.0874474621678,1599.0666515929142,1599.0833308970678,None,1600.5836279142686,None,n,2.180223817233127,1602.6024087317464,None,1602.6024087317464,None,1602.6024087317464,None,None,None,None,None,1604.9012895211717,None,1604.9012895211717,None,right,0.761342169413183,1604.9012895211717,None,None,None,1605.6852221035542,1606.8355463965754,,,,,,,,001,2019_Jul_24_1132,Test,3.1.2,59.97053047019415,
Pictures\IA25_G15.bmp,Pictures\IA25_G15.bmp,Pictures\IA25.bmp,"

"I think you should take a gamble."",1,risk,6,0,6,0,0,12,12,2,,,,,,,,,,,,,,,,,,,,,,,,,1606.8521902452712,None,1608.8729721189493,1610.853343480644,1610.8700423786004,None,1612.3702806143874,None,n,2.1357984413280064,1614.3904134044014,None,1614.3904134044014,None,1614.3904134044014,None,None,None,None,None,1616.6546193794557,None,1616.6546193794557,None,left,0.5035869103430741,1616.6546193794557,None,1617.1884942689676,1618.5888815420758,None,None,,,,,,,,001,2019_Jul_24_1132,Test,3.1.2,59.97053047019415,
Pictures\IA75_L60.bmp,Pictures\IA75_L60.bmp,Pictures\IA75.bmp,"

"Why not take the gamble?"",1,risk,6,0,6,0,0,13,13,17,,,,,,,,,,,,,,,,,,,,,,,,,1618.6055505828072,None,1620.628306765585,1622.6067019521024,1622.6233697487833,None,1624.1237802856476,None,n,1.1287005077592767,1626.1573388751667,None,1626.1573388751667,None,1626.1573388751667,None,None,None,None,None,1627.4077305957571,None,1627.4077305957571,None,left,0.23826160031057952,1627.4077305957571,None,1627.6748022425263,1629.3419442403856,None,None,,,,,,,,001,2019_Jul_24_1132,Test,3.1.2,59.97053047019415,
Pictures\IA75_L45.bmp,Pictures\IA75_L45.bmp,Pictures\IA75.bmp,"

"Don't gamble for this one, play it safe."",0,safe,6,0,6,0,0,14,14,6,,,,,,,,,,,,,,,,,,,,,,,,,1629.3586154582053,None,1631.3813022851364,1633.3597543869919,1633.3764109872109,None,1634.8767098704875,None,n,0.9437841297640261,1636.8939368681395,None,1636.8939368681395,None,1636.8939368681395,None,None,None,None,None,1637.9651273815025,None,1637.9651273815025,None,right,0.25663965624517004,1637.9651273815025,None,None,None,1638.2444902531706,1639.911645002553,,,,,,,,001,2019_Jul_24_1132,Test,3.1.2,59.97053047019415,
Pictures\IA100_L80.bmp,Pictures\IA100_L80.bmp,Pictures\IA100.bmp,"

"Go all in!"",1,risk,6,0,6,0,0,15,15,5,,,,,,,,,,,,,,,,,,,,,,,,,1639.928270190484,None,1641.950548035612,1643.9294479958653,1643.9461108163405,None,1645.4465101567448,None,n,1.0938537033216562,1647.4635891123135,None,1647.4635891123135,None,1647.4635891123135,None,None,None,None,None,1648.680417267181,None,1648.680417267181,None,right,0.34098756508683437,1648.680417267181,None,None,None,1649.0475395468302,1650.61468813816,,,,,,,,001,2019_Jul_24_1132,Test,3.1.2,59.97053047019415,
Pictures\IA25_G5.bmp,Pictures\IA25_G5.bmp,Pictures\IA25.bmp,"

"Let's stay with the certain option."",0,safe,6,0,6,0,0,16,16,1,,,,,,,,,,,,,,,,,,,,,,,,,1650.6313419392636,None,1652.6536421773135,1654.6324942415986,1654.649113520286,None,1656.1493859674765,None,n,1.5824619273716962,1658.166648731597,None,1658.166648731597,None,1658.166648731597,None,None,None,None,None,1659.8669055037453,None,1659.8669055037453,None,left,0.2501186513745779,1659.8669055037453,None,1660.1338847797188,1661.801195968529,None,None,,,,,,,,001,2019_Jul_24_1132,Test,3.1.2,59.97053047019415,
Pictures\IA20_10_L95p.bmp,Pictures\IA20_10_L95p.bmp,Pictures\IA20.bmp,"

"Don't be tempted to gamble."",0,safe,6,0,6,0,0,17,17,19,,,,,,,,,,,,,,,,,,,,,,,,,1661.8178821149622,None,1663.8517607366275,1665.8189771909447,1665.8356104652075,None,1667.3359221000092,None,n,1.163568150052015,1669.3532582631424,None,1669.3532582631424,None,1669.3532582631424,None,None,None,None,None,1670.6219185631717,None,1670.6219185631717,None,right,0.3348089852825069,1670.6219185631717,None,None,None,1670.9871386886834,1672.57088074464,,,,,,,,001,2019_Jul_24_1132,Test,3.1.2,59.97053047019415,
Pictures\IA110_55_L95p.bmp,Pictures\IA110_55_L95p.bmp,Pictures\IA110.bmp,"

"Trust me, gamble!"",1,risk,6,0,6,0,0,18,18,11,,,,,,,,,,,,,,,,,,,,,,,,,1672.5876107438753,None,1674.621513935549,1676.5887254136624,1676.605417469339,None,1678.1056924046325,None,n,1.4415977099506563,1680.1229868920555,None,1680.1229868920555,None,1680.1229868920555,None,None,None,None,None,1681.6782121866008,None,1681.6782121866008,None,right,0.29429241794423433,1681.6782121866008,None,None,None,1681.9902727644248,1683.6240648623361,,,,,,,,001,2019_Jul_24_1132,Test,3.1.2,59.97053047019415,
Pictures\IA50_G30.bmp,Pictures\IA50_G30.bmp,Pictures\IA50.bmp,"

"I think you should gamble."",1,risk,6,0,6,0,0,19,19,18,,,,,,,,,,,,,,,,,,,,,,,,,1683.6407637602942,None,1685.6744560853067,1687.6419023780663,1687.658563954491,None,1689.1589583186897,None,n,1.347485243999472,1691.192746124626,None,1691.192746124626,None,1691.192746124626,None,None,None,None,None,1692.6595874975346,None,1692.6595874975346,None,right,0.26466627396075637,1692.6595874975346,None,None,None,1692.9433770140413,1694.593850904207,,,,,,,,001,2019_Jul_24_1132,Test,3.1.2,59.97053047019415,
,,,,,,6,0,6,0,,,,,,,,,,,,,,,,,,,,,,,,,,,,,,,,,,,,,,,,,,,,,,,,,,,,,,,,,,,,,1694.726830325736,None,return,1.9733157258633582,1694.726830325736,None,,001,2019_Jul_24_1132,Test,3.1.2,59.97053047019415,
Pictures\IA50_G10.bmp,Pictures\IA50_G10.bmp,Pictures\IA50.bmp,"

"Go with the safe option here!"",0,safe,7,0,7,0,0,0,0,16,,,,,,,1696.8274460688308,None,1696.8274460688308,None,1696.8274460688308,None,right,2.336630587111358,1696.8274460688308,None,1696.8274460688308,None,1696.8274460688308,None,return,3.0325698799042584,1696.8274460688308,None,1699.9143097600163,None,1701.9173132103924,1703.8965188962038,1703.9132084637777,None,1705.4135586641632,None,n,1.7731108928492176,1707.430697645198,None,1707.430697645198,None,1707.430697645198,None,None,None,None,None,1709.3192403077528,None,1709.3192403077528,None,right,0.268505104653741,1709.3192403077528,None,None,None,1709.6147867292102,1711.2653060272414,,,,,,,,001,2019_Jul_24_1132,Test,3.1.2,59.97053047019415,
Pictures\IA100_G20.bmp,Pictures\IA100_G20.bmp,Pictures\IA100.bmp,"

"Go ahead and gamble!"",1,risk,7,0,7,0,0,1,1,2,,,,,,,,,,,,,,,,,,,,,,,,,1711.2819595173341,None,1713.3008653619481,1715.2830993791567,1715.2997793053355,None,1716.800004478585,None,n,1.120762217669835,1718.8186465843655,None,1718.8186465843655,None,1718.8186465843655,None,None,None,None,None,1720.0562973555834,None,1720.0562973555834,None,left,0.2351539606552251,1720.0562973555834,None,1720.3177639301075,1721.9850275339622,None,None,,,,,,,,001,2019_Jul_24_1132,Test,3.1.2,59.97053047019415,
Pictures\IA75_G45.bmp,Pictures\IA75_G45.bmp,Pictures\IA75.bmp,"

"Don't gamble for this one."",0,safe,7,0,7,0,0,2,2,6,,,,,,,,,,,,,,,,,,,,,,,,,1722.0016576980952,None,1724.0354380397248,1726.0028187087873,1726.019520405859,None,1727.5197589526588,None,n,1.1533364517545124,1729.5537084852376,None,1729.5537084852376,None,1729.5537084852376,None,None,None,None,None,1730.8371602418692,None,1730.8371602418692,None,right,0.23791046688529605,1730.8371602418692,None,None,None,1731.1042010983738,1732.7713822838423,,,,,,,,001,2019_Jul_24_1132,Test,3.1.2,59.97053047019415,
Pictures\IA40_20_L95p.bmp,Pictures\IA40_20_L95p.bmp,Pictures\IA40.bmp,"

"Trust me, gamble!"",1,risk,7,0,7,0,0,3,3,13,,,,,,,,,,,,,,,,,,,,,,,,,1732.788104196744,None,1734.8085380471266,1736.7892409484402,1736.8059053239785,None,1738.3062129156142,None,n,1.0440792186855106,1740.3267966741541,None,1740.3267966741541,None,1740.3267966741541,None,None,None,None,None,1741.4761185729994,None,1741.4761185729994,None,right,0.3267733481952746,1741.4761185729994,None,None,None,1741.8239838746094,1743.4244503315704,,,,,,,,001,2019_Jul_24_1132,Test,3.1.2,59.97053047019415,
Pictures\IA75_G15.bmp,Pictures\IA75_G15.bmp,Pictures\IA75.bmp,"

"Take a chance!"",1,risk,7,0,7,0,0,4,4,8,,,,,,,,,,,,,,,,,,,,,,,,,1743.4411371000306,None,1745.4615989415624,1747.442260167164,1747.4588965515532,None,1748.9591736639368,None,n,0.8728893895495276,1750.9777526341231,None,1750.9777526341231,None,1750.9777526341231,None,None,None,None,None,1751.9600236618526,None,1751.9600236618526,None,right,0.5065577043769736,1751.9600236618526,None,None,None,1752.4937041683797,1753.8940821111055,,,,,,,,001,2019_Jul_24_1132,Test,3.1.2,59.97053047019415,
Pictures\IA25_G15.bmp,Pictures\IA25_G15.bmp,Pictures\IA25.bmp,"

"I think you should take a gamble."",1,risk,7,0,7,0,0,5,5,7,,,,,,,,,,,,,,,,,,,,,,,,,1753.9107810090618,None,1755.931050644699,1757.9119208708862,1757.9285780931305,None,1759.4288259703144,None,n,1.0025154713312077,1761.4476761436408,None,1761.4476761436408,None,1761.4476761436408,None,None,None,None,None,1762.5664083809233,None,1762.5664083809233,None,right,0.3719296041253983,1762.5664083809233,None,None,None,1762.9633113779046,1764.5138176756036,,,,,,,,001,2019_Jul_24_1132,Test,3.1.2,59.97053047019415,
Pictures\IA100_L80.bmp,Pictures\IA100_L80.bmp,Pictures\IA100.bmp,"

"Go all in!"",1,risk,7,0,7,0,0,6,6,14,,,,,,,,,,,,,,,,,,,,,,,,,1764.5304674335412,None,1766.549398159178,1768.5316020081473,1768.5482060472086,None,1770.0485574916447,None,n,0.9510546754227107,1772.0669408347958,None,1772.0669408347958,None,1772.0669408347958,None,None,None,None,None,1773.1325496018735,None,1773.1325496018735,None,right,0.34937371357409575,1773.1325496018735,None,None,None,1773.4996522877163,1775.0668111424684,,,,,,,,001,2019_Jul_24_1132,Test,3.1.2,59.97053047019415,
Pictures\IA100_L60.bmp,Pictures\IA100_L60.bmp,Pictures\IA100.bmp,"

"You'd have a lot to lose, don't gamble."",0,safe,7,0,7,0,0,7,7,11,,,,,,,,,,,,,,,,,,,,,,,,,1775.0834633885088,None,1777.1050738002223,1779.0846191119845,1779.101276023216,None,1780.6017089530005,None,n,1.0064329882552556,1782.6352793610067,None,1782.6352793610067,None,1782.6352793610067,None,None,None,None,None,1783.771205317572,None,1783.771205317572,None,right,0.3424185348685569,1783.771205317572,None,None,None,1784.136029523822,1785.7198493329715,,,,,,,,001,2019_Jul_24_1132,Test,3.1.2,59.97053047019415,
Pictures\IA100_L20.bmp,Pictures\IA100_L20.bmp,Pictures\IA100.bmp,"

"Try to win as much money as you can, gamble!"",1,risk,7,0,7,0,0,8,8,10,,,,,,,,,,,,,,,,,,,,,,,,,1785.73649349268,None,1787.7563329976465,1789.7376504602062,1789.7543170128347,None,1791.2546771656298,None,n,1.2223383682139684,1793.2751474045062,None,1793.2751474045062,None,1793.2751474045062,None,None,None,None,None,1794.638656026712,None,1794.638656026712,None,right,0.2667282886650355,1794.638656026712,None,None,None,1794.9224430551158,1796.5729303188318,,,,,,,,001,2019_Jul_24_1132,Test,3.1.2,59.97053047019415,
Pictures\IA25_G5.bmp,Pictures\IA25_G5.bmp,Pictures\IA25.bmp,"

"Let's stay with the certain option."",0,safe,7,0,7,0,0,9,9,4,,,,,,,,,,,,,,,,,,,,,,,,,1796.5895996705758,None,1798.6233722368843,1800.5907507288584,1800.6073196234765,None,1802.1078166218913,None,n,0.3874096430135978,1804.1416461035396,None,1804.1416461035396,None,1804.1416461035396,None,None,None,None,None,1804.6582047347338,None,1804.6582047347338,None,right,0.27883103982094326,1804.6582047347338,None,None,None,1804.9586116638502,1806.5924124701205,,,,,,,,001,2019_Jul_24_1132,Test,3.1.2,59.97053047019415,
Pictures\IA25_L20.bmp,Pictures\IA25_L20.bmp,Pictures\IA25.bmp,"

"Don't be tempted to gamble."",0,safe,7,0,7,0,0,10,10,19,,,,,,,,,,,,,,,,,,,,,,,,,1806.6090973725013,None,1808.6326488149489,1810.6102039559582,1810.6269327111413,None,1812.127359109657,None,n,0.39972668197151506,1814.1611139482384,None,1814.1611139482384,None,1814.1611139482384,None,None,None,None,None,1814.665041417572,None,1814.665041417572,None,right,0.351787794739721,1814.665041417572,None,None,None,1815.0447858397138,1816.6119667763714,,,,,,,,001,2019_Jul_24_1132,Test,3.1.2,59.97053047019415,
Pictures\IA25_L10.bmp,Pictures\IA25_L10.bmp,Pictures\IA25.bmp,"

"Dont be afraid to take the risk!"",1,risk,7,0,7,0,0,11,11,0,,,,,,,,,,,,,,,,,,,,,,,,,1816.6286463915376,None,1818.6518479446104,1820.6297822101942,1820.646438188388,None,1822.146874539313,None,n,0.2688739658060513,1824.1637594229096,None,1824.1637594229096,None,1824.1637594229096,None,None,None,None,None,1824.5805348922122,None,1824.5805348922122,None,None,,1824.5805348922122,None,None,None,None,None,,,,,,,,001,2019_Jul_24_1132,Test,3.1.2,59.97053047019415,
Pictures\IA50_G20.bmp,Pictures\IA50_G20.bmp,Pictures\IA50.bmp,"

"Let's venture and take a risk!"",1,risk,7,0,7,0,0,12,12,18,,,,,,,,,,,,,,,,,,,,,,,,,1826.5314567651812,None,1828.5533421121881,1830.5326218190394,1830.5491916466954,None,1832.0496864680217,None,n,0.4687230002036813,1834.0834836043405,None,1834.0834836043405,None,1834.0834836043405,None,None,None,None,None,1834.6833989466622,None,1834.6833989466622,None,left,0.19693982089302153,1834.6833989466622,None,1834.9004861751719,1836.6176788370112,None,None,,,,,,,,001,2019_Jul_24_1132,Test,3.1.2,59.97053047019415,
Pictures\IA20_10_G95p.bmp,Pictures\IA20_10_G95p.bmp,Pictures\IA20.bmp,"

"Take a leap, I think you should gamble."",1,risk,7,0,7,0,0,13,13,9,,,,,,,,,,,,,,,,,,,,,,,,,1836.6343540979988,None,1838.6562574837453,1840.635469389811,1840.652170775872,None,1842.1525433691777,None,n,1.366322665802727,1844.1696481388071,None,1844.1696481388071,None,1844.1696481388071,None,None,None,None,None,1845.6559613995823,None,1845.6559613995823,None,left,0.38395304702316935,1845.6559613995823,None,1846.0703601092528,1847.6041454270862,None,None,,,,,,,,001,2019_Jul_24_1132,Test,3.1.2,59.97053047019415,
Pictures\IA75_G30.bmp,Pictures\IA75_G30.bmp,Pictures\IA75.bmp,"

"Be bold, gamble!"",1,risk,7,0,7,0,0,14,14,15,,,,,,,,,,,,,,,,,,,,,,,,,1847.6207917638849,None,1849.6418131173987,1851.621930381657,1851.6386277245501,None,1853.1390251988769,None,n,1.2029989717921126,1855.1726500341183,None,1855.1726500341183,None,1855.1726500341183,None,None,None,None,None,1856.4895767178323,None,1856.4895767178323,None,right,0.33580702528161055,1856.4895767178323,None,None,None,1856.8567798608028,1858.42387433591,,,,,,,,001,2019_Jul_24_1132,Test,3.1.2,59.97053047019415,
Pictures\IA25_L5.bmp,Pictures\IA25_L5.bmp,Pictures\IA25.bmp,"

"It would be smarter to choose the safe option."",0,safe,7,0,7,0,0,15,15,5,,,,,,,,,,,,,,,,,,,,,,,,,1858.4405583052549,None,1860.4743249623216,1862.4413691155614,1862.4579865281712,None,1863.9587600169443,None,n,1.367342165680384,1865.9759618225607,None,1865.9759618225607,None,1865.9759618225607,None,None,None,None,None,1867.4594041244027,None,1867.4594041244027,None,right,0.7879477573187614,1867.4594041244027,None,None,None,1868.2766934490146,1869.3936274104262,,,,,,,,001,2019_Jul_24_1132,Test,3.1.2,59.97053047019415,
Pictures\IA100_G60.bmp,Pictures\IA100_G60.bmp,Pictures\IA100.bmp,"

"Be cautious, don't gamble for this one."",0,safe,7,0,7,0,0,16,16,12,,,,,,,,,,,,,,,,,,,,,,,,,1869.410217453912,None,1871.4442363423414,1873.4114571508371,1873.4281709774068,None,1874.9283877533117,None,n,0.9820688694253477,1876.945661091867,None,1876.945661091867,None,1876.945661091867,None,None,None,None,None,1878.0349824060077,None,1878.0349824060077,None,right,0.36404667430906557,1878.0349824060077,None,None,None,1878.4295378785564,1879.9800199172578,,,,,,,,001,2019_Jul_24_1132,Test,3.1.2,59.97053047019415,
Pictures\IA75_G60.bmp,Pictures\IA75_G60.bmp,Pictures\IA75.bmp,"

"Make it exciting, take a chance!"",1,risk,7,0,7,0,0,17,17,3,,,,,,,,,,,,,,,,,,,,,,,,,1879.9966591007624,None,1882.0155960466554,1883.9977818568832,1884.0144959944673,None,1885.5147802601432,None,n,1.2885735150230175,1887.5342844933393,None,1887.5342844933393,None,1887.5342844933393,None,None,None,None,None,1888.9488847392868,None,1888.9488847392868,None,left,0.23424269322276814,1888.9488847392868,None,1889.199333375217,1890.8831310402575,None,None,,,,,,,,001,2019_Jul_24_1132,Test,3.1.2,59.97053047019415,
Pictures\IA100_G80.bmp,Pictures\IA100_G80.bmp,Pictures\IA100.bmp,"

"Why not gamble?"",1,risk,7,0,7,0,0,18,18,1,,,,,,,,,,,,,,,,,,,,,,,,,1890.8997988369365,None,1892.9229179716249,1894.9009265692612,1894.9176046293624,None,1896.4180238745857,None,n,1.579321631374114,1898.435190535757,None,1898.435190535757,None,1898.435190535757,None,None,None,None,None,1900.135382617248,None,1900.135382617248,None,left,0.3111701482466742,1900.135382617248,None,1900.469159351128,1902.0696413587275,None,None,,,,,,,,001,2019_Jul_24_1132,Test,3.1.2,59.97053047019415,
Pictures\IA50_L30.bmp,Pictures\IA50_L30.bmp,Pictures\IA50.bmp,"

"Take a leap, I think you should gamble."",1,risk,7,0,7,0,0,19,19,17,,,,,,,,,,,,,,,,,,,,,,,,,1902.0863057342676,None,1904.1200434671455,1906.0874459071028,1906.1041385848048,None,1907.6043995245245,None,n,1.2645465340428927,1909.6217132947395,None,1909.6217132947395,None,1909.6217132947395,None,None,None,None,None,1911.0051223804176,None,1911.0051223804176,None,right,0.3451364755164832,1911.0051223804176,None,None,None,1911.3723096617368,1912.9394330610312,,,,,,,,001,2019_Jul_24_1132,Test,3.1.2,59.97053047019415,
,,,,,,7,0,7,0,,,,,,,,,,,,,,,,,,,,,,,,,,,,,,,,,,,,,,,,,,,,,,,,,,,,,,,,,,,,,1913.0556992780157,None,return,9.118518260493147,1913.0556992780157,None,,001,2019_Jul_24_1132,Test,3.1.2,59.97053047019415,
Pictures\IA75_L60.bmp,Pictures\IA75_L60.bmp,Pictures\IA75.bmp,"

"Why not take the gamble?"",1,risk,8,0,8,0,0,0,0,7,,,,,,,1922.2749909650784,None,1922.2749909650784,None,1922.2749909650784,None,left,1.6829672609292174,1922.2749909650784,None,1922.2749909650784,None,1922.2749909650784,None,return,2.5227319237819756,1922.2749909650784,None,1924.8593003083379,None,1926.8632427062848,1928.8439599141848,1928.8606037628824,None,1930.3609720020077,None,n,1.3043984670803184,1932.3812618534748,None,1932.3812618534748,None,1932.3812618534748,None,None,None,None,None,1933.799569682723,None,1933.799569682723,None,right,0.27807621181455033,1933.799569682723,None,None,None,1934.0954389354401,1935.7459150026962,,,,,,,,001,2019_Jul_24_1132,Test,3.1.2,59.97053047019415,
Pictures\IA75_G15.bmp,Pictures\IA75_G15.bmp,Pictures\IA75.bmp,"

"Take a chance!"",1,risk,8,0,8,0,0,1,1,12,,,,,,,,,,,,,,,,,,,,,,,,,1935.7625967949507,None,1937.7855383413435,1939.7636402428134,1939.7802249990827,None,1941.2807646062492,None,n,1.2337634225332295,1943.2674526374203,None,1943.2674526374203,None,1943.2674526374203,None,None,None,None,None,1944.6147086650026,None,1944.6147086650026,None,left,0.31853990698255075,1944.6147086650026,None,1944.9652147760926,1946.5489941535825,None,None,,,,,,,,001,2019_Jul_24_1132,Test,3.1.2,59.97053047019415,
Pictures\IA25_L10.bmp,Pictures\IA25_L10.bmp,Pictures\IA25.bmp,"

"Dont be afraid to take the risk!"",1,risk,8,0,8,0,0,2,2,2,,,,,,,,,,,,,,,,,,,,,,,,,1946.565659151146,None,1948.58451119055,1950.5668005680336,1950.583410205324,None,1952.083706289487,None,n,1.0305109753298893,1954.102494260259,None,1954.102494260259,None,1954.102494260259,None,None,None,None,None,1955.2510681733793,None,1955.2510681733793,None,right,0.3218898255890963,1955.2510681733793,None,None,None,1955.6015792606731,1957.1853549060097,,,,,,,,001,2019_Jul_24_1132,Test,3.1.2,59.97053047019415,
Pictures\IA25_G10.bmp,Pictures\IA25_G10.bmp,Pictures\IA25.bmp,"

"What's life without a little risk?"",1,risk,8,0,8,0,0,3,3,16,,,,,,,,,,,,,,,,,,,,,,,,,1957.2020292339575,None,1959.2249810437725,1961.2031718948956,1961.21974389964,None,1962.7202418310944,None,n,1.4347694244570448,1964.7539568600396,None,1964.7539568600396,None,1964.7539568600396,None,None,None,None,None,1966.320941236624,None,1966.320941236624,None,left,0.21177637434993812,1966.320941236624,None,1966.5547031040942,1968.2551564363157,None,None,,,,,,,,001,2019_Jul_24_1132,Test,3.1.2,59.97053047019415,
Pictures\IA75_G60.bmp,Pictures\IA75_G60.bmp,Pictures\IA75.bmp,"

"Make it exciting, take a chance!"",1,risk,8,0,8,0,0,4,4,13,,,,,,,,,,,,,,,,,,,,,,,,,1968.2718578223767,None,1970.2954045996312,1972.2730020383779,1972.2896486861891,None,1973.790068553436,None,n,1.0052735326262336,1975.8071608825549,None,1975.8071608825549,None,1975.8071608825549,None,None,None,None,None,1976.9405788320973,None,1976.9405788320973,None,left,0.2078062962682452,1976.9405788320973,None,1977.174330747158,1978.8748888906857,None,None,,,,,,,,001,2019_Jul_24_1132,Test,3.1.2,59.97053047019415,
Pictures\IA40_20_G95p.bmp,Pictures\IA40_20_G95p.bmp,Pictures\IA40.bmp,"

"Hold back, stay with the safe choice."",0,safe,8,0,8,0,0,5,5,8,,,,,,,,,,,,,,,,,,,,,,,,,1978.891523408999,None,1980.9146804872462,1982.8926657589245,1982.9094271704498,None,1984.409747202596,None,n,1.0412393610313302,1986.4268927148996,None,1986.4268927148996,None,1986.4268927148996,None,None,None,None,None,1987.5938235350832,None,1987.5938235350832,None,left,0.38620602357150347,1987.5938235350832,None,1988.010768817362,1989.5278247579854,None,None,,,,,,,,001,2019_Jul_24_1132,Test,3.1.2,59.97053047019415,
Pictures\IA50_G20.bmp,Pictures\IA50_G20.bmp,Pictures\IA50.bmp,"

"Let's venture and take a risk!"",1,risk,8,0,8,0,0,6,6,10,,,,,,,,,,,,,,,,,,,,,,,,,1989.5445864805233,None,1991.5665523798389,1993.5456744032135,1993.5623854306696,None,1995.062809652095,None,n,1.1634347255712782,1997.0963660645257,None,1997.0963660645257,None,1997.0963660645257,None,None,None,None,None,1998.3800607221337,None,1998.3800607221337,None,right,0.35179059385336586,1998.3800607221337,None,None,None,1998.7638759904976,2000.3142333130772,,,,,,,,001,2019_Jul_24_1132,Test,3.1.2,59.97053047019415,
Pictures\IA50_G10.bmp,Pictures\IA50_G10.bmp,Pictures\IA50.bmp,"

"Go with the safe option here!"",0,safe,8,0,8,0,0,7,7,19,,,,,,,,,,,,,,,,,,,,,,,,,2000.3309853942183,None,2002.3480223630622,2004.332127433131,2004.3487893205684,None,2005.8490356426855,None,n,1.0331381002451963,2007.8663403935307,None,2007.8663403935307,None,2007.8663403935307,None,None,None,None,None,2009.001890646664,None,2009.001890646664,None,right,0.329632799655883,2009.001890646664,None,None,None,2009.3502128260434,2010.9506911014896,,,,,,,,001,2019_Jul_24_1132,Test,3.1.2,59.97053047019415,
Pictures\IA100_G60.bmp,Pictures\IA100_G60.bmp,Pictures\IA100.bmp,"

"Be cautious, don't gamble for this one."",0,safe,8,0,8,0,0,8,8,15,,,,,,,,,,,,,,,,,,,,,,,,,2010.9673679175403,None,2012.9894896342548,2014.9684928507495,2014.9851622024935,None,2016.485538838965,None,n,0.9718393482162355,2018.5193652104836,None,2018.5193652104836,None,2018.5193652104836,None,None,None,None,None,2019.621011649916,None,2019.621011649916,None,right,0.24625556168575713,2019.621011649916,None,None,None,2019.8865409843302,2021.5536975997902,,,,,,,,001,2019_Jul_24_1132,Test,3.1.2,59.97053047019415,
