Choice,Choice2,AdviceVar,Amount,AdviceVar2,AdviceVar1,GambleAdvice,Not_GamblePercent,trials_2.thisRepN,trials_2.thisTrialN,trials_2.thisN,trials_2.thisIndex,trials.thisRepN,trials.thisTrialN,trials.thisN,trials.thisIndex,instructions.started,instructions.stopped,space.keys,space.rt,space.started,space.stopped,chooseInst.started,chooseInst.stopped,Ad1.started,Ad1.stopped,Ad2.started,Ad2.stopped,key_resp_3.keys,key_resp_3.rt,key_resp_3.started,key_resp_3.stopped,Ad1pic.started,Ad1pic.stopped,Ad2pic.started,Ad2pic.stopped,enter.keys,enter.rt,enter.started,enter.stopped,iSi.started,iSi.stopped,receiveMoneyPicture.started,receiveMoneyPicture.stopped,ISI2.started,ISI2.stopped,ChoicePic.started,ChoicePic.stopped,text_3.started,text_3.stopped,ask.started,ask.stopped,response.keys,response.rt,response.started,response.stopped,Advice.started,Advice.stopped,blank.started,blank.stopped,ChoicePic2.started,ChoicePic2.stopped,resp.keys,resp.rt,resp.started,resp.stopped,checkL1.started,checkL1.stopped,checkR1.started,checkR1.stopped,endText.started,endText.stopped,key_resp_2.keys,key_resp_2.rt,key_resp_2.started,key_resp_2.stopped,participant,session,date,expName,psychopyVersion,frameRate,
,,,,,,,,,,,,,,,,5.563634876394644,None,space,0.8193717920221388,5.563634876394644,None,,,,,,,,,,,,,,,,,,,,,,,,,,,,,,,,,,,,,,,,,,,,,,,,,,,,,,,,001,2019_Jul_19_1235,Test,3.1.2,59.98979420568922,
Pictures\IA50_G20.bmp,Pictures\IA50_G20.bmp,"Advisor 1 says:

"Let's venture and take a risk!"",Pictures\IA50.bmp,"Advisor 2 says:

"Don't gamble for this one."","

"Let's venture and take a risk!"",1,25,0,0,0,0,0,0,0,14,,,,,,,8.880141748464666,None,8.880141748464666,None,8.880141748464666,None,right,1.1748983678990044,8.880141748464666,None,8.880141748464666,None,8.880141748464666,None,return,1.654743158724159,8.880141748464666,None,10.60070793365594,None,12.737506581819616,14.598860812082421,14.615529381146189,None,16.632677536224946,None,19.850115993234795,None,19.850115993234795,None,n,0.9407372251152992,19.850115993234795,None,None,None,21.017023126769345,None,21.017023126769345,None,left,0.8694925750023685,21.017023126769345,None,21.917515868786722,23.801568638184108,None,None,,,,,,,,001,2019_Jul_19_1235,Test,3.1.2,59.98979420568922,
Pictures\IA100_G60.bmp,Pictures\IA100_G60.bmp,"Advisor 1 says:

"Be cautious, don't gamble for this one."",Pictures\IA100.bmp,"Advisor 2 says:

"Why not take the gamble?"","

"Be cautious, don't gamble for this one."",0,50,0,0,0,0,0,1,1,2,,,,,,,,,,,,,,,,,,,,,,,,,23.818915843206923,None,25.838482455408666,27.819383299618494,27.836045648378786,None,29.87000512861414,None,32.89002520154463,None,32.89002520154463,None,n,0.6285743077169172,32.89002520154463,None,None,None,33.63738226890564,None,33.63738226890564,None,right,0.6492108135134913,33.63738226890564,None,None,None,34.30468485876918,36.52195287926588,,,,,,,,001,2019_Jul_19_1235,Test,3.1.2,59.98979420568922,
Pictures\IA50_G40.bmp,Pictures\IA50_G40.bmp,"Advisor 1 says:

"It would probably be best to play it safe."",Pictures\IA50.bmp,"Advisor 2 says:

"What's life without a little risk?"","

"It would probably be best to play it safe."",0,35,0,0,0,0,0,2,2,15,,,,,,,,,,,,,,,,,,,,,,,,,36.53865254984703,None,38.572395874303766,40.53984000731725,40.55651168653276,None,42.557029527495615,None,45.60777265258366,None,45.60777265258366,None,n,2.230573578039184,45.60777265258366,None,None,None,47.93074398348108,None,47.93074398348108,None,left,0.7474289119709283,47.93074398348108,None,48.70889625855489,50.84285657858709,None,None,,,,,,,,001,2019_Jul_19_1235,Test,3.1.2,59.98979420568922,
Pictures\IA25_G10.bmp,Pictures\IA25_G10.bmp,"Advisor 1 says:

"What's life without a little risk?"",Pictures\IA25.bmp,"Advisor 2 says:

"Don't gamble for this one, play it safe."","

"What's life without a little risk?"",1,65,0,0,0,0,0,3,3,9,,,,,,,,,,,,,,,,,,,,,,,,,50.85952328151325,None,52.88106515369145,54.86069705430418,54.877310262585524,None,56.91563857870642,None,59.91198507871013,None,59.91198507871013,None,n,1.0941049173707142,59.91198507871013,None,None,None,61.10017936269287,None,61.10017936269287,None,left,0.3780195336439647,61.10017936269287,None,61.49598774348851,64.01339979527984,None,None,,,,,,,,001,2019_Jul_19_1235,Test,3.1.2,59.98979420568922,
Pictures\IA100_G20.bmp,Pictures\IA100_G20.bmp,"Advisor 1 says:

"Go ahead and gamble!"",Pictures\IA100.bmp,"Advisor 2 says:

"Be cautious, don't gamble for this one."","

"Go ahead and gamble!"",1,40,0,0,0,0,0,4,4,5,,,,,,,,,,,,,,,,,,,,,,,,,64.03006712027127,None,66.05159655178431,68.03124773537274,68.047806826944,None,70.08165340858977,None,73.06927187828114,None,73.06927187828114,None,n,1.1844459241838194,73.06927187828114,None,None,None,74.36624790489441,None,74.36624790489441,None,left,0.42353604186791927,74.36624790489441,None,74.81656612048391,77.26729363261256,None,None,,,,,,,,001,2019_Jul_19_1235,Test,3.1.2,59.98979420568922,
Pictures\IA50_G10.bmp,Pictures\IA50_G10.bmp,"Advisor 1 says:

"Go with the safe option here!"",Pictures\IA50.bmp,"Advisor 2 says:

"Try your luck and gamble!"","

"Go with the safe option here!"",0,20,0,0,0,0,0,5,5,3,,,,,,,,,,,,,,,,,,,,,,,,,77.28395567031112,None,79.3060505281901,81.28513846255373,81.30181200784864,None,83.30238272144925,None,86.33651543740416,None,86.33651543740416,None,n,0.4770453395904042,86.33651543740416,None,None,None,86.90311895753257,None,86.90311895753257,None,right,0.6384394108899869,86.90311895753257,None,None,None,87.57028221240034,89.82097694347613,,,,,,,,001,2019_Jul_19_1235,Test,3.1.2,59.98979420568922,
Pictures\IA100_L60.bmp,Pictures\IA100_L60.bmp,"Advisor 1 says:

"You'd have a lot to lose, don't gamble."",Pictures\IA100.bmp,"Advisor 2 says:

"Make it exciting, take a chance!"","

"You'd have a lot to lose, don't gamble."",0,45,0,0,0,0,0,6,6,16,,,,,,,,,,,,,,,,,,,,,,,,,89.83765048877103,None,91.86097230308224,93.83883701317245,93.85551024746383,None,95.85587817890337,None,98.88989022083115,None,98.88989022083115,None,n,1.1634352666442282,98.88989022083115,None,None,None,100.15699071274139,None,100.15699071274139,None,right,0.6003564861021005,100.15699071274139,None,None,None,100.7741725196829,103.0582162074279,,,,,,,,001,2019_Jul_19_1235,Test,3.1.2,59.98979420568922,
Pictures\IA100_G40.bmp,Pictures\IA100_G40.bmp,"Advisor 1 says:

"Try your luck and gamble!"",Pictures\IA100.bmp,"Advisor 2 says:

"Go with the safe option here!"","

"Try your luck and gamble!"",1,45,0,0,0,0,0,7,7,19,,,,,,,,,,,,,,,,,,,,,,,,,103.0748841544264,None,105.09544041828485,107.07602278247941,107.09271934296703,None,109.13163952174364,None,112.12742961483309,None,112.12742961483309,None,n,1.1257330248481594,112.12742961483309,None,None,None,113.36082876939327,None,113.36082876939327,None,right,0.4282787184929475,113.36082876939327,None,None,None,113.81137309334008,116.26209096395178,,,,,,,,001,2019_Jul_19_1235,Test,3.1.2,59.98979420568922,
Pictures\IA75_G45.bmp,Pictures\IA75_G45.bmp,"Advisor 1 says:

"Don't gamble for this one."",Pictures\IA75.bmp,"Advisor 2 says:

"Trust me, gamble!"","

"Don't gamble for this one."",0,90,0,0,0,0,0,8,8,0,,,,,,,,,,,,,,,,,,,,,,,,,116.27876171009848,None,118.2977859111852,120.27993175073061,120.29661866970127,None,122.33045871998183,None,125.33110034512356,None,125.33110034512356,None,n,1.0578165524057113,125.33110034512356,None,None,None,126.4980385802337,None,126.4980385802337,None,left,0.5228927683783695,126.4980385802337,None,127.04845311731333,129.39928553497884,None,None,,,,,,,,001,2019_Jul_19_1235,Test,3.1.2,59.98979420568922,
Pictures\IA50_L30.bmp,Pictures\IA50_L30.bmp,"Advisor 1 says:

"Take a leap, I think you should gamble."",Pictures\IA50.bmp,"Advisor 2 says:

"Hold back, stay with the safe choice."","

"Take a leap, I think you should gamble."",1,25,0,0,0,0,0,9,9,17,,,,,,,,,,,,,,,,,,,,,,,,,129.4159612574149,None,131.43575491098454,133.41710392863024,133.43379426875617,None,135.43437400180846,None,138.4848807550734,None,138.4848807550734,None,n,1.1757648572674952,138.4848807550734,None,None,None,139.76863177714404,None,139.76863177714404,None,right,0.4518698723404668,139.76863177714404,None,None,None,140.25248431466753,142.66981528472388,,,,,,,,001,2019_Jul_19_1235,Test,3.1.2,59.98979420568922,
Pictures\IA50_L20.bmp,Pictures\IA50_L20.bmp,"Advisor 1 says:

"Certainty is boring, take a risk!"",Pictures\IA50.bmp,"Advisor 2 says:

"You'd have a lot to lose, don't gamble."","

"Certainty is boring, take a risk!"",1,20,0,0,0,0,0,10,10,10,,,,,,,,,,,,,,,,,,,,,,,,,142.68651962053264,None,144.70870591700077,146.68769899161998,146.7043688047561,None,148.70483346201945,None,151.7387661949615,None,151.7387661949615,None,n,1.1054740919498727,151.7387661949615,None,None,None,152.95579784357687,None,152.95579784357687,None,right,0.6645258427597582,152.95579784357687,None,None,None,153.63968596130144,155.85700529936003,,,,,,,,001,2019_Jul_19_1235,Test,3.1.2,59.98979420568922,
Pictures\IA50_L10.bmp,Pictures\IA50_L10.bmp,"Advisor 1 says:

"Play it safe, don’t gamble!"",Pictures\IA50.bmp,"Advisor 2 says:

"It would probably be best to play it safe."","

"Play it safe, don’t gamble!"",0,100,0,0,0,0,0,11,11,12,,,,,,,,,,,,,,,,,,,,,,,,,155.87373855966143,None,157.8944484651438,159.8749042460695,159.89156286261277,None,161.89214259566506,None,164.92626442603068,None,164.92626442603068,None,n,1.1177520540659316,164.92626442603068,None,None,None,166.12903663230827,None,166.12903663230827,None,right,0.4912229847977869,166.12903663230827,None,None,None,166.6435587273445,169.04425751714734,,,,,,,,001,2019_Jul_19_1235,Test,3.1.2,59.98979420568922,
Pictures\IA75_L45.bmp,Pictures\IA75_L45.bmp,"Advisor 1 says:

"Don't gamble for this one, play it safe."",Pictures\IA75.bmp,"Advisor 2 says:

"Go ahead and gamble!"","

"Don't gamble for this one, play it safe."",0,85,0,0,0,0,0,12,12,4,,,,,,,,,,,,,,,,,,,,,,,,,169.06093106244225,None,171.08249688282376,173.0621169648366,173.07872675196268,None,175.07916497287806,None,178.11322771036066,None,178.11322771036066,None,n,0.9865647489205003,178.11322771036066,None,None,None,179.2136558854836,None,179.2136558854836,None,left,0.4061925690039061,179.2136558854836,None,179.64737737661926,182.1147756348946,None,None,,,,,,,,001,2019_Jul_19_1235,Test,3.1.2,59.98979420568922,
Pictures\IA75_G15.bmp,Pictures\IA75_G15.bmp,"Advisor 1 says:

"Take a chance!"",Pictures\IA75.bmp,"Advisor 2 says:

"I don't think you should gamble."","

"Take a chance!"",1,80,0,0,0,0,0,13,13,13,,,,,,,,,,,,,,,,,,,,,,,,,182.13130673504202,None,184.15302526409505,186.1326241970528,186.14915405312786,None,188.18320497201057,None,191.1673266935395,None,191.1673266935395,None,n,0.6443412425578572,191.1673266935395,None,None,None,191.90214361267863,None,191.90214361267863,None,left,0.7254699678742327,191.90214361267863,None,192.6512022462557,194.81847326800926,None,None,,,,,,,,001,2019_Jul_19_1235,Test,3.1.2,59.98979420568922,
Pictures\IA25_L5.bmp,Pictures\IA25_L5.bmp,"Advisor 1 says:

"It would be smarter to choose the safe option."",Pictures\IA25.bmp,"Advisor 2 says:

"Certainty is boring, take a risk!"","

"It would be smarter to choose the safe option."",0,55,0,0,0,0,0,14,14,8,,,,,,,,,,,,,,,,,,,,,,,,,194.83518973347964,None,196.85785934817977,198.83635759697063,198.8529950644588,None,200.85342239990132,None,203.88744594936725,None,203.88744594936725,None,n,1.195965008228086,203.88744594936725,None,None,None,205.18780489242636,None,205.18780489242636,None,right,0.5034801088040695,205.18780489242636,None,None,None,205.72172098601004,208.0890518472297,,,,,,,,001,2019_Jul_19_1235,Test,3.1.2,59.98979420568922,
Pictures\IA75_G60.bmp,Pictures\IA75_G60.bmp,"Advisor 1 says:

"Make it exciting, take a chance!"",Pictures\IA75.bmp,"Advisor 2 says:

"Let's stay with the certain option."","

"Make it exciting, take a chance!"",1,95,0,0,0,0,0,15,15,18,,,,,,,,,,,,,,,,,,,,,,,,,208.105749962735,None,210.1255386400735,212.10691284999484,212.12352916842792,None,214.15748740464915,None,217.15969717031112,None,217.15969717031112,None,n,2.011456569947768,217.15969717031112,None,None,None,219.25932759052375,None,219.25932759052375,None,right,0.5438378016697243,219.25932759052375,None,None,None,219.82585771096637,222.1765028972295,,,,,,,,001,2019_Jul_19_1235,Test,3.1.2,59.98979420568922,
Pictures\IA75_L60.bmp,Pictures\IA75_L60.bmp,"Advisor 1 says:

"Why not take the gamble?"",Pictures\IA75.bmp,"Advisor 2 says:

"It would be smarter to choose the safe option."","

"Why not take the gamble?"",1,90,0,0,0,0,0,16,16,7,,,,,,,,,,,,,,,,,,,,,,,,,222.1931652459898,None,224.21577514568344,226.1944093083148,226.21098954894114,None,228.21146073751152,None,231.2456500583212,None,231.2456500583212,None,n,0.613302509591449,231.2456500583212,None,None,None,231.948843846214,None,231.948843846214,None,right,0.8141660133260302,231.948843846214,None,None,None,232.77966038964223,234.86351703258697,,,,,,,,001,2019_Jul_19_1235,Test,3.1.2,59.98979420568922,
Pictures\IA25_G5.bmp,Pictures\IA25_G5.bmp,"Advisor 1 says:

"Let's stay with the certain option."",Pictures\IA25.bmp,"Advisor 2 says:

"Take a chance!"","

"Let's stay with the certain option."",0,60,0,0,0,0,0,17,17,6,,,,,,,,,,,,,,,,,,,,,,,,,234.8802947680815,None,236.9030887890258,238.881439616438,238.89813462184975,None,240.93191246897914,None,243.93276465166127,None,243.93276465166127,None,n,1.0938256253721192,243.93276465166127,None,None,None,245.11920076457318,None,245.11920076457318,None,right,0.47542277129832655,245.11920076457318,None,None,None,245.61673736566445,248.03416692762403,,,,,,,,001,2019_Jul_19_1235,Test,3.1.2,59.98979420568922,
Pictures\IA100_L20.bmp,Pictures\IA100_L20.bmp,"Advisor 1 says:

"Try to win as much money as you can, gamble!"",Pictures\IA100.bmp,"Advisor 2 says:

"I wouldn't gamble for this one. "","

"Try to win as much money as you can, gamble!"",1,35,0,0,0,0,0,18,18,1,,,,,,,,,,,,,,,,,,,,,,,,,248.05078946636058,None,250.07369296479737,252.05193991301348,252.0686787715531,None,254.06911823659902,None,257.1031144167064,None,257.1031144167064,None,n,1.3872115991543978,257.1031144167064,None,None,None,258.58888281026157,None,258.58888281026157,None,right,0.4135381350060925,258.58888281026157,None,None,None,259.0207257673028,261.5047789099044,,,,,,,,001,2019_Jul_19_1235,Test,3.1.2,59.98979420568922,
Pictures\IA25_G15.bmp,Pictures\IA25_G15.bmp,"Advisor 1 says:

"I think you should take a gamble."",Pictures\IA25.bmp,"Advisor 2 says:

"Think of the payoff, gamble!"","

"I think you should take a gamble."",1,70,0,0,0,0,0,19,19,11,,,,,,,,,,,,,,,,,,,,,,,,,261.5214375264477,None,263.54411833768245,265.52262964914553,265.53919869323727,None,267.56159865739755,None,270.57374288275605,None,270.57374288275605,None,n,0.9244841728941537,270.57374288275605,None,None,None,271.607521974016,None,271.607521974016,None,left,0.3707218640483916,271.607521974016,None,272.0078630959033,274.50860377948266,None,None,,,,,,,,001,2019_Jul_19_1235,Test,3.1.2,59.98979420568922,
,,,,,,,,0,0,0,0,,,,,,,,,,,,,,,,,,,,,,,,,,,,,,,,,,,,,,,,,,,,,,,,,,,,,,,,,,,274.94168333447305,None,return,19.891991753072944,274.94168333447305,None,,001,2019_Jul_19_1235,Test,3.1.2,59.98979420568922,
Pictures\IA75_L60.bmp,Pictures\IA75_L60.bmp,"Advisor 1 says:

"Why not take the gamble?"",Pictures\IA75.bmp,"Advisor 2 says:

"It would be smarter to choose the safe option."","

"Why not take the gamble?"",1,90,1,0,1,0,0,0,0,13,,,,,,,294.9642751952633,None,294.9642751952633,None,294.9642751952633,None,left,1.501428961113561,294.9642751952633,None,294.9642751952633,None,294.9642751952633,None,return,1.9893253232585266,294.9642751952633,None,297.01503200503066,None,299.04899179632775,301.01639549736865,301.0330388741568,None,303.03346309938934,None,306.06747825141065,None,306.06747825141065,None,n,1.182064477878157,306.06747825141065,None,None,None,307.3374375986168,None,307.3374375986168,None,left,0.4641745817498304,307.3374375986168,None,307.8183892938541,310.25242491072277,None,None,,,,,,,,001,2019_Jul_19_1235,Test,3.1.2,59.98979420568922,
Pictures\IA100_G80.bmp,Pictures\IA100_G80.bmp,"Advisor 1 says:

"Why not gamble?"",Pictures\IA100.bmp,"Advisor 2 says:

"That gamble doesn't sound too good, play it safe."","

"Why not gamble?"",1,55,1,0,1,0,0,1,1,1,,,,,,,,,,,,,,,,,,,,,,,,,310.26904122915585,None,312.29008765349863,314.2702930668602,314.2869666121551,None,316.32079950906336,None,319.3049644617713,None,319.3049644617713,None,n,1.2803217642358504,319.3049644617713,None,None,None,320.68845133832656,None,320.68845133832656,None,right,0.6648325041169301,320.68845133832656,None,None,None,321.37237833300605,323.5896575500374,,,,,,,,001,2019_Jul_19_1235,Test,3.1.2,59.98979420568922,
Pictures\IA75_L30.bmp,Pictures\IA75_L30.bmp,"Advisor 1 says:

"Hold back, stay with the safe choice."",Pictures\IA75.bmp,"Advisor 2 says:

"Try to win as much money as you can, gamble!"","

"Hold back, stay with the safe choice."",0,80,1,0,1,0,0,2,2,10,,,,,,,,,,,,,,,,,,,,,,,,,323.60637028329074,None,325.62494848802453,327.6075341036194,327.6242169793695,None,329.62479422427714,None,332.675465815817,None,332.675465815817,None,n,0.46146688010776415,332.675465815817,None,None,None,333.2275486405124,None,333.2275486405124,None,left,0.5894550789380446,333.2275486405124,None,333.8426481981296,336.143371651473,None,None,,,,,,,,001,2019_Jul_19_1235,Test,3.1.2,59.98979420568922,
Pictures\IA75_G30.bmp,Pictures\IA75_G30.bmp,"Advisor 1 says:

"Be bold, gamble!"",Pictures\IA75.bmp,"Advisor 2 says:

"Dont be afraid to take the risk!"","

"Be bold, gamble!"",1,85,1,0,1,0,0,3,3,14,,,,,,,,,,,,,,,,,,,,,,,,,336.16006136959186,None,338.1810303510283,340.16124944906915,340.1779323248775,None,342.19951058586594,None,345.17901279299986,None,345.17901279299986,None,n,1.2937818965874612,345.17901279299986,None,None,None,346.5794002562179,None,346.5794002562179,None,left,0.6133889719494618,346.5794002562179,None,347.2132982175681,349.48064347880427,None,None,,,,,,,,001,2019_Jul_19_1235,Test,3.1.2,59.98979420568922,
Pictures\IA100_G60.bmp,Pictures\IA100_G60.bmp,"Advisor 1 says:

"Be cautious, don't gamble for this one."",Pictures\IA100.bmp,"Advisor 2 says:

"Why not take the gamble?"","

"Be cautious, don't gamble for this one."",0,50,1,0,1,0,0,4,4,5,,,,,,,,,,,,,,,,,,,,,,,,,349.49731764610624,None,351.51832301641116,353.49850043834886,353.51514630328165,None,355.5157272803481,None,358.54987057083054,None,358.54987057083054,None,n,0.8347253872780129,358.54987057083054,None,None,None,359.48442636127584,None,359.48442636127584,None,left,0.7320669193286449,359.48442636127584,None,360.23379849857884,362.401117416739,None,None,,,,,,,,001,2019_Jul_19_1235,Test,3.1.2,59.98979420568922,
Pictures\IA50_G20.bmp,Pictures\IA50_G20.bmp,"Advisor 1 says:

"Let's venture and take a risk!"",Pictures\IA50.bmp,"Advisor 2 says:

"Don't gamble for this one."","

"Let's venture and take a risk!"",1,25,1,0,1,0,0,5,5,0,,,,,,,,,,,,,,,,,,,,,,,,,362.4177300030133,None,364.4383226556238,366.4189606916625,366.4356158870505,None,368.436201218341,None,371.47028354980284,None,371.47028354980284,None,n,1.1300157093792222,371.47028354980284,None,None,None,372.7037237584009,None,372.7037237584009,None,right,0.6725531548727304,372.7037237584009,None,None,None,373.4043227433576,375.604951119225,,,,,,,,001,2019_Jul_19_1235,Test,3.1.2,59.98979420568922,
Pictures\IA75_G60.bmp,Pictures\IA75_G60.bmp,"Advisor 1 says:

"Make it exciting, take a chance!"",Pictures\IA75.bmp,"Advisor 2 says:

"Let's stay with the certain option."","

"Make it exciting, take a chance!"",1,95,1,0,1,0,0,6,6,16,,,,,,,,,,,,,,,,,,,,,,,,,375.62163586105453,None,377.6411890996387,379.62279377208324,379.6395065053366,None,381.6400607351097,None,384.6746562422486,None,384.6746562422486,None,n,3.1012760036392137,384.6746562422486,None,None,None,387.8917348542018,None,387.8917348542018,None,right,0.7881965232663788,387.8917348542018,None,None,None,388.7088356105378,390.79277995985467,,,,,,,,001,2019_Jul_19_1235,Test,3.1.2,59.98979420568922,
Pictures\IA50_L10.bmp,Pictures\IA50_L10.bmp,"Advisor 1 says:

"Play it safe, don’t gamble!"",Pictures\IA50.bmp,"Advisor 2 says:

"It would probably be best to play it safe."","

"Play it safe, don’t gamble!"",0,100,1,0,1,0,0,7,7,4,,,,,,,,,,,,,,,,,,,,,,,,,390.80945039499784,None,392.83010089653544,394.8106279000058,394.82720814063214,None,396.827865005529,None,399.8619230777258,None,399.8619230777258,None,n,1.0739097426412627,399.8619230777258,None,None,None,401.0287194897537,None,401.0287194897537,None,right,0.5630703831557184,401.0287194897537,None,None,None,401.6125557611813,403.9465749875526,,,,,,,,001,2019_Jul_19_1235,Test,3.1.2,59.98979420568922,
Pictures\IA100_G20.bmp,Pictures\IA100_G20.bmp,"Advisor 1 says:

"Go ahead and gamble!"",Pictures\IA100.bmp,"Advisor 2 says:

"Be cautious, don't gamble for this one."","

"Go ahead and gamble!"",1,40,1,0,1,0,0,8,8,2,,,,,,,,,,,,,,,,,,,,,,,,,403.96328305557836,None,405.9848610055633,407.96450596884824,407.9811717387638,None,409.9815981410793,None,413.0157787534408,None,413.0157787534408,None,n,0.5758319744491018,413.0157787534408,None,None,None,413.6856801895192,None,413.6856801895192,None,right,0.6337082418613136,413.6856801895192,None,None,None,414.3496829040232,416.60037172579905,,,,,,,,001,2019_Jul_19_1235,Test,3.1.2,59.98979420568922,
Pictures\IA50_L40.bmp,Pictures\IA50_L40.bmp,"Advisor 1 says:

"That gamble doesn't sound too good, play it safe."",Pictures\IA50.bmp,"Advisor 2 says:

"Let's venture and take a risk!"","

"That gamble doesn't sound too good, play it safe."",0,30,1,0,1,0,0,9,9,18,,,,,,,,,,,,,,,,,,,,,,,,,416.61705149139743,None,418.6381103564054,420.6182146896608,420.6348779714899,None,422.63526052061934,None,425.66928282601293,None,425.66928282601293,None,n,0.9780799328582361,425.66928282601293,None,None,None,426.73735138506163,None,426.73735138506163,None,left,0.4219196938793175,426.73735138506163,None,427.18680684344145,429.65420541272033,None,None,,,,,,,,001,2019_Jul_19_1235,Test,3.1.2,59.98979420568922,
Pictures\IA75_G15.bmp,Pictures\IA75_G15.bmp,"Advisor 1 says:

"Take a chance!"",Pictures\IA75.bmp,"Advisor 2 says:

"I don't think you should gamble."","

"Take a chance!"",1,80,1,0,1,0,0,10,10,19,,,,,,,,,,,,,,,,,,,,,,,,,429.67084505729144,None,431.69156367122196,433.67202038515825,433.6886734034633,None,435.689122509968,None,438.70670422073454,None,438.70670422073454,None,n,1.2844175284844823,438.70670422073454,None,None,None,440.09020540397614,None,440.09020540397614,None,right,0.5248117344453931,440.09020540397614,None,None,None,440.64077513787197,442.99142903258326,,,,,,,,001,2019_Jul_19_1235,Test,3.1.2,59.98979420568922,
Pictures\IA50_G30.bmp,Pictures\IA50_G30.bmp,"Advisor 1 says:

"I think you should gamble."",Pictures\IA50.bmp,"Advisor 2 says:

"Don't be tempted to gamble."","

"I think you should gamble."",1,30,1,0,1,0,0,11,11,3,,,,,,,,,,,,,,,,,,,,,,,,,443.0081417658366,None,445.03012465813663,447.00931989285164,447.025993127143,None,449.02653180615744,None,452.06041570962407,None,452.06041570962407,None,n,0.9303785401862115,452.06041570962407,None,None,None,453.07754582579946,None,453.07754582579946,None,left,0.4491030777571723,453.07754582579946,None,453.54453385446686,455.9952582564438,None,None,,,,,,,,001,2019_Jul_19_1235,Test,3.1.2,59.98979420568922,
Pictures\IA25_G10.bmp,Pictures\IA25_G10.bmp,"Advisor 1 says:

"What's life without a little risk?"",Pictures\IA25.bmp,"Advisor 2 says:

"Don't gamble for this one, play it safe."","

"What's life without a little risk?"",1,65,1,0,1,0,0,12,12,9,,,,,,,,,,,,,,,,,,,,,,,,,456.01195543893846,None,458.0337548319949,460.0130716738058,460.0297346445732,None,462.0302064552088,None,465.0642200522125,None,465.0642200522125,None,n,0.40647217200603336,465.0642200522125,None,None,None,465.58104428456863,None,465.58104428456863,None,left,0.6895022600074299,465.58104428456863,None,466.2983012640034,468.48224116582423,None,None,,,,,,,,001,2019_Jul_19_1235,Test,3.1.2,59.98979420568922,
Pictures\IA25_L20.bmp,Pictures\IA25_L20.bmp,"Advisor 1 says:

"Don't be tempted to gamble."",Pictures\IA25.bmp,"Advisor 2 says:

"Take a leap, I think you should gamble."","

"Don't be tempted to gamble."",0,70,1,0,1,0,0,13,13,8,,,,,,,,,,,,,,,,,,,,,,,,,468.4989759812015,None,470.51942463358864,472.50014073454076,472.5168061933946,None,474.5173392741126,None,477.55123064195504,None,477.55123064195504,None,n,0.8790836734697223,477.55123064195504,None,None,None,478.51999254804105,None,478.51999254804105,None,right,0.5023290402023122,478.51999254804105,None,None,None,479.05207644886104,481.43609205191024,,,,,,,,001,2019_Jul_19_1235,Test,3.1.2,59.98979420568922,
Pictures\IA100_L60.bmp,Pictures\IA100_L60.bmp,"Advisor 1 says:

"You'd have a lot to lose, don't gamble."",Pictures\IA100.bmp,"Advisor 2 says:

"Make it exciting, take a chance!"","

"You'd have a lot to lose, don't gamble."",0,45,1,0,1,0,0,14,14,6,,,,,,,,,,,,,,,,,,,,,,,,,481.45275191246765,None,483.474616618827,485.45392257516505,485.47048228874337,None,487.4710019957856,None,490.505037674855,None,490.505037674855,None,n,1.0931015810929239,490.505037674855,None,None,None,491.68954829027643,None,491.68954829027643,None,left,0.5725383194512688,491.68954829027643,None,492.28926097409567,494.60663029231364,None,None,,,,,,,,001,2019_Jul_19_1235,Test,3.1.2,59.98979420568922,
Pictures\IA100_L40.bmp,Pictures\IA100_L40.bmp,"Advisor 1 says:

"Think of the payoff, gamble!"",Pictures\IA100.bmp,"Advisor 2 says:

"I think you should take a gamble."","

"Think of the payoff, gamble!"",1,40,1,0,1,0,0,15,15,7,,,,,,,,,,,,,,,,,,,,,,,,,494.6232842436293,None,496.64487774443114,498.62447263416834,498.64106065017404,None,500.6415747589781,None,503.69226376729785,None,503.69226376729785,None,n,1.0895874160341918,503.69226376729785,None,None,None,504.87597071850905,None,504.87597071850905,None,left,0.32978599332273006,504.87597071850905,None,505.22642151999753,507.7937910715118,None,None,,,,,,,,001,2019_Jul_19_1235,Test,3.1.2,59.98979420568922,
Pictures\IA75_G45.bmp,Pictures\IA75_G45.bmp,"Advisor 1 says:

"Don't gamble for this one."",Pictures\IA75.bmp,"Advisor 2 says:

"Trust me, gamble!"","

"Don't gamble for this one."",0,90,1,0,1,0,0,16,16,12,,,,,,,,,,,,,,,,,,,,,,,,,507.81051531236153,None,509.83338615414687,511.8117012147559,511.82836138637504,None,513.8287346051075,None,516.8490535640158,None,516.8490535640158,None,n,0.7244865366374142,516.8490535640158,None,None,None,517.6634590593167,None,517.6634590593167,None,right,0.6301775930332951,517.6634590593167,None,None,None,518.3136380643118,520.5809422714519,,,,,,,,001,2019_Jul_19_1235,Test,3.1.2,59.98979420568922,
Pictures\IA75_L45.bmp,Pictures\IA75_L45.bmp,"Advisor 1 says:

"Don't gamble for this one, play it safe."",Pictures\IA75.bmp,"Advisor 2 says:

"Go ahead and gamble!"","

"Don't gamble for this one, play it safe."",0,85,1,0,1,0,0,17,17,11,,,,,,,,,,,,,,,,,,,,,,,,,520.5976120845298,None,522.6210387111641,524.5987752828514,524.6153169575264,None,526.6158400857239,None,529.6498698554933,None,529.6498698554933,None,n,1.1555659503792413,529.6498698554933,None,None,None,530.9041026998311,None,530.9041026998311,None,right,0.6532325560110621,530.9041026998311,None,None,None,531.58415226324,533.8181610084139,,,,,,,,001,2019_Jul_19_1235,Test,3.1.2,59.98979420568922,
Pictures\IA50_G10.bmp,Pictures\IA50_G10.bmp,"Advisor 1 says:

"Go with the safe option here!"",Pictures\IA50.bmp,"Advisor 2 says:

"Try your luck and gamble!"","

"Go with the safe option here!"",0,20,1,0,1,0,0,18,18,17,,,,,,,,,,,,,,,,,,,,,,,,,533.8348267782712,None,535.855936338834,537.8360002400586,537.8526473490638,None,539.8532491641818,None,542.8890921548009,None,542.8890921548009,None,n,1.0199410750064999,542.8890921548009,None,None,None,544.0044714710093,None,544.0044714710093,None,left,0.36857710062758997,544.0044714710093,None,544.4046135428944,546.9220056897029,None,None,,,,,,,,001,2019_Jul_19_1235,Test,3.1.2,59.98979420568922,
Pictures\IA100_L80.bmp,Pictures\IA100_L80.bmp,"Advisor 1 says:

"Go all in!"",Pictures\IA100.bmp,"Advisor 2 says:

"There's not much on the line here, gamble!"","

"Go all in!"",1,50,1,0,1,0,0,19,19,15,,,,,,,,,,,,,,,,,,,,,,,,,546.9386860773084,None,548.9610589831718,550.9398480315576,550.9565131794079,None,552.9569324284093,None,555.9744967223378,None,555.9744967223378,None,n,1.1663715647300705,555.9744967223378,None,None,None,557.2246456210269,None,557.2246456210269,None,left,0.4361511448514648,557.2246456210269,None,557.6918470064411,560.1425648770528,None,None,,,,,,,,001,2019_Jul_19_1235,Test,3.1.2,59.98979420568922,
