Choice,Choice2,AdviceVar,Amount,AdviceVar2,AdviceVar1,GambleAdvice,Not_GamblePercent,trials_2.thisRepN,trials_2.thisTrialN,trials_2.thisN,trials_2.thisIndex,trials.thisRepN,trials.thisTrialN,trials.thisN,trials.thisIndex,space.keys,space.rt,key_resp_3.keys,key_resp_3.rt,enter.keys,enter.rt,response.keys,response.rt,resp.keys,resp.rt,key_resp_2.keys,key_resp_2.rt,participant,session,date,expName,psychopyVersion,frameRate,
,,,,,,,,,,,,,,,,space,1.4948886999918614,,,,,,,,,,,,001,2019_Jul_18_1618,Test,3.0.7,60.312721458236645,
Pictures\IA50_G40.bmp,Pictures\IA50_G40.bmp,"Advisor 1 says:

"It would probably be best to play it safe."",Pictures\IA50.bmp,"Advisor 2 says:

"What's life without a little risk?"","

"It would probably be best to play it safe."",0,35,0,0,0,0,0,0,0,3,,,left,0.9543119999871124,return,1.6212167000048794,n,2.090636800014181,left,1.2030679000017699,,,,001,2019_Jul_18_1618,Test,3.0.7,60.312721458236645,
Pictures\IA75_L15.bmp,Pictures\IA75_L15.bmp,"Advisor 1 says:

"Take a chance!"",Pictures\IA75.bmp,"Advisor 2 says:

"I don't think you should gamble."","

"Take a chance!"",1,80,0,0,0,0,0,1,1,12,,,,,,,n,1.3643398999993224,right,0.9359247999964282,,,,001,2019_Jul_18_1618,Test,3.0.7,60.312721458236645,
Pictures\IA100_L40.bmp,Pictures\IA100_L40.bmp,"Advisor 1 says:

"Think of the payoff, gamble!"",Pictures\IA100.bmp,"Advisor 2 says:

"I think you should take a gamble."","

"Think of the payoff, gamble!"",1,40,0,0,0,0,0,2,2,21,,,,,,,y,0.4545648999919649,right,0.530221499997424,,,,001,2019_Jul_18_1618,Test,3.0.7,60.312721458236645,
Pictures\IA75_L15.bmp,Pictures\IA75_L15.bmp,"Advisor 1 says:

"Trust me, gamble!"",Pictures\IA75.bmp,"Advisor 2 says:

"Play it safe, don’t gamble!"","

"Trust me, gamble!"",1,75,0,0,0,0,0,3,3,28,,,,,,,n,0.5559211999934632,left,0.8033985999936704,,,,001,2019_Jul_18_1618,Test,3.0.7,60.312721458236645,
Pictures\IA75_L30.bmp,Pictures\IA75_L30.bmp,"Advisor 1 says:

"Hold back, stay with the safe choice."",Pictures\IA75.bmp,"Advisor 2 says:

"Try to win as much money as you can, gamble!"","

"Hold back, stay with the safe choice."",0,80,0,0,0,0,0,4,4,29,,,,,,,n,1.3521242999995593,right,0.7867034000228159,,,,001,2019_Jul_18_1618,Test,3.0.7,60.312721458236645,
Pictures\IA100_L60.bmp,Pictures\IA100_L60.bmp,"Advisor 1 says:

"Be cautious, don't gamble for this one."",Pictures\IA100.bmp,"Advisor 2 says:

"Why not take the gamble?"","

"Be cautious, don't gamble for this one."",0,50,0,0,0,0,0,5,5,6,,,,,,,n,0.4157435999950394,right,0.7977398999792058,,,,001,2019_Jul_18_1618,Test,3.0.7,60.312721458236645,
Pictures\IA50_G20.bmp,Pictures\IA50_G20.bmp,"Advisor 1 says:

"Let's venture and take a risk!"",Pictures\IA50.bmp,"Advisor 2 says:

"Don't gamble for this one."","

"Let's venture and take a risk!"",1,25,0,0,0,0,0,6,6,1,,,,,,,n,0.4254801000060979,left,0.7510498999909032,,,,001,2019_Jul_18_1618,Test,3.0.7,60.312721458236645,
Pictures\IA75_L45.bmp,Pictures\IA75_L45.bmp,"Advisor 1 says:

"Don't gamble for this one."",Pictures\IA75.bmp,"Advisor 2 says:

"Trust me, gamble!"","

"Don't gamble for this one."",0,90,0,0,0,0,0,7,7,14,,,,,,,n,0.4098422999959439,right,0.7945261000131723,,,,001,2019_Jul_18_1618,Test,3.0.7,60.312721458236645,
Pictures\IA50_L20.bmp,Pictures\IA50_L20.bmp,"Advisor 1 says:

"Certainty is boring, take a risk!"",Pictures\IA50.bmp,"Advisor 2 says:

"You'd have a lot to lose, don't gamble."","

"Certainty is boring, take a risk!"",1,20,0,0,0,0,0,8,8,17,,,,,,,n,1.464971199980937,right,0.70216860002256,,,,001,2019_Jul_18_1618,Test,3.0.7,60.312721458236645,
Pictures\IA75_L30.bmp,Pictures\IA75_L30.bmp,"Advisor 1 says:

"Be bold, gamble!"",Pictures\IA75.bmp,"Advisor 2 says:

"Dont be afraid to take the risk!"","

"Be bold, gamble!"",1,85,0,0,0,0,0,9,9,13,,,,,,,n,0.5102401999756694,right,0.6573326000070665,,,,001,2019_Jul_18_1618,Test,3.0.7,60.312721458236645,
Pictures\IA75_L60.bmp,Pictures\IA75_L60.bmp,"Advisor 1 says:

"Make it exciting, take a chance!"",Pictures\IA75.bmp,"Advisor 2 says:

"Let's stay with the certain option."","

"Make it exciting, take a chance!"",1,95,0,0,0,0,0,10,10,15,,,,,,,n,0.5992342999961693,right,1.0030173000122886,,,,001,2019_Jul_18_1618,Test,3.0.7,60.312721458236645,
Pictures\IA100_L80.bmp,Pictures\IA100_L80.bmp,"Advisor 1 says:

"Why not gamble?"",Pictures\IA100.bmp,"Advisor 2 says:

"That gamble doesn't sound too good, play it safe."","

"Why not gamble?"",1,55,0,0,0,0,0,11,11,7,,,,,,,n,0.4430276000057347,left,0.8039733000041451,,,,001,2019_Jul_18_1618,Test,3.0.7,60.312721458236645,
Pictures\IA50_L10.bmp,Pictures\IA50_L10.bmp,"Advisor 1 says:

"Play it safe, don’t gamble!"",Pictures\IA50.bmp,"Advisor 2 says:

"It would probably be best to play it safe."","

"Play it safe, don’t gamble!"",0,100,0,0,0,0,0,12,12,16,,,,,,,n,0.4533641000161879,left,0.7381050999974832,,,,001,2019_Jul_18_1618,Test,3.0.7,60.312721458236645,
Pictures\IA25_L10.bmp,Pictures\IA25_L10.bmp,"Advisor 1 says:

"Dont be afraid to take the risk!"",Pictures\IA25.bmp,"Advisor 2 says:

"Be bold, gamble!"","

"Dont be afraid to take the risk!"",1,60,0,0,0,0,0,13,13,25,,,,,,,n,0.48942519997945055,right,0.7595610999851488,,,,001,2019_Jul_18_1618,Test,3.0.7,60.312721458236645,
Pictures\IA75_L45.bmp,Pictures\IA75_L45.bmp,"Advisor 1 says:

"Don't gamble for this one, play it safe."",Pictures\IA75.bmp,"Advisor 2 says:

"Go ahead and gamble!"","

"Don't gamble for this one, play it safe."",0,85,0,0,0,0,0,14,14,30,,,,,,,n,0.4309161999844946,None,,,,,001,2019_Jul_18_1618,Test,3.0.7,60.312721458236645,
Pictures\IA25_L5.bmp,Pictures\IA25_L5.bmp,"Advisor 1 says:

"It would be smarter to choose the safe option."",Pictures\IA25.bmp,"Advisor 2 says:

"Certainty is boring, take a risk!"","

"It would be smarter to choose the safe option."",0,55,0,0,0,0,0,15,15,24,,,,,,,n,1.412556900002528,right,0.8115653000131715,,,,001,2019_Jul_18_1618,Test,3.0.7,60.312721458236645,
Pictures\IA100_L20.bmp,Pictures\IA100_L20.bmp,"Advisor 1 says:

"Go ahead and gamble!"",Pictures\IA100.bmp,"Advisor 2 says:

"Be cautious, don't gamble for this one."","

"Go ahead and gamble!"",1,40,0,0,0,0,0,16,16,4,,,,,,,n,0.6122754000243731,left,0.7673459000070579,,,,001,2019_Jul_18_1618,Test,3.0.7,60.312721458236645,
Pictures\IA100_L20.bmp,Pictures\IA100_L20.bmp,"Advisor 1 says:

"Try to win as much money as you can, gamble!"",Pictures\IA100.bmp,"Advisor 2 says:

"I wouldn't gamble for this one. "","

"Try to win as much money as you can, gamble!"",1,35,0,0,0,0,0,17,17,20,,,,,,,n,0.529626500006998,right,0.7874412999954075,,,,001,2019_Jul_18_1618,Test,3.0.7,60.312721458236645,
Pictures\IA50_G30.bmp,Pictures\IA50_G30.bmp,"Advisor 1 says:

"I think you should gamble."",Pictures\IA50.bmp,"Advisor 2 says:

"Don't be tempted to gamble."","

"I think you should gamble."",1,30,0,0,0,0,0,18,18,2,,,,,,,n,1.144860600004904,left,1.2979801000037696,,,,001,2019_Jul_18_1618,Test,3.0.7,60.312721458236645,
Pictures\IA100_L40.bmp,Pictures\IA100_L40.bmp,"Advisor 1 says:

"Try your luck and gamble!"",Pictures\IA100.bmp,"Advisor 2 says:

"Go with the safe option here!"","

"Try your luck and gamble!"",1,45,0,0,0,0,0,19,19,5,,,,,,,n,0.5423592999868561,right,0.7163697999785654,,,,001,2019_Jul_18_1618,Test,3.0.7,60.312721458236645,
Pictures\IA25_L15.bmp,Pictures\IA25_L15.bmp,"Advisor 1 says:

"There's not much on the line here, gamble!"",Pictures\IA25.bmp,"Advisor 2 says:

"Go all in!"","

"There's not much on the line here, gamble!"",1,65,0,0,0,0,0,20,20,26,,,,,,,n,0.46176989999366924,right,0.7846969999955036,,,,001,2019_Jul_18_1618,Test,3.0.7,60.312721458236645,
Pictures\IA25_L15.bmp,Pictures\IA25_L15.bmp,"Advisor 1 says:

"I think you should take a gamble."",Pictures\IA25.bmp,"Advisor 2 says:

"Think of the payoff, gamble!"","

"I think you should take a gamble."",1,70,0,0,0,0,0,21,21,10,,,,,,,n,0.7846212000004016,None,,,,,001,2019_Jul_18_1618,Test,3.0.7,60.312721458236645,
Pictures\IA50_L30.bmp,Pictures\IA50_L30.bmp,"Advisor 1 says:

"Take a leap, I think you should gamble."",Pictures\IA50.bmp,"Advisor 2 says:

"Hold back, stay with the safe choice."","

"Take a leap, I think you should gamble."",1,25,0,0,0,0,0,22,22,18,,,,,,,n,0.43326690001413226,left,0.6351665999973193,,,,001,2019_Jul_18_1618,Test,3.0.7,60.312721458236645,
Pictures\IA75_L60.bmp,Pictures\IA75_L60.bmp,"Advisor 1 says:

"Why not take the gamble?"",Pictures\IA75.bmp,"Advisor 2 says:

"It would be smarter to choose the safe option."","

"Why not take the gamble?"",1,90,0,0,0,0,0,23,23,31,,,,,,,n,0.3784927999950014,right,0.7061579000146594,,,,001,2019_Jul_18_1618,Test,3.0.7,60.312721458236645,
Pictures\IA25_L20.bmp,Pictures\IA25_L20.bmp,"Advisor 1 says:

"Don't be tempted to gamble."",Pictures\IA25.bmp,"Advisor 2 says:

"Take a leap, I think you should gamble."","

"Don't be tempted to gamble."",0,70,0,0,0,0,0,24,24,27,,,,,,,n,0.44543110000086017,left,1.1313240000163205,,,,001,2019_Jul_18_1618,Test,3.0.7,60.312721458236645,
Pictures\IA100_L60.bmp,Pictures\IA100_L60.bmp,"Advisor 1 says:

"You'd have a lot to lose, don't gamble."",Pictures\IA100.bmp,"Advisor 2 says:

"Make it exciting, take a chance!"","

"You'd have a lot to lose, don't gamble."",0,45,0,0,0,0,0,25,25,22,,,,,,,n,0.7283871000108775,left,0.8545791000069585,,,,001,2019_Jul_18_1618,Test,3.0.7,60.312721458236645,
Pictures\IA25_L10.bmp,Pictures\IA25_L10.bmp,"Advisor 1 says:

"What's life without a little risk?"",Pictures\IA25.bmp,"Advisor 2 says:

"Don't gamble for this one, play it safe."","

"What's life without a little risk?"",1,65,0,0,0,0,0,26,26,9,,,,,,,n,0.45958059999975376,left,0.8094458999985363,,,,001,2019_Jul_18_1618,Test,3.0.7,60.312721458236645,
Pictures\IA25_L20.bmp,Pictures\IA25_L20.bmp,"Advisor 1 says:

"I wouldn't gamble for this one. "",Pictures\IA25.bmp,"Advisor 2 says:

"Why not gamble?"","

"I wouldn't gamble for this one. "",0,75,0,0,0,0,0,27,27,11,,,,,,,n,0.6434820999857038,right,0.8191632999805734,,,,001,2019_Jul_18_1618,Test,3.0.7,60.312721458236645,
Pictures\IA50_L40.bmp,Pictures\IA50_L40.bmp,"Advisor 1 says:

"That gamble doesn't sound too good, play it safe."",Pictures\IA50.bmp,"Advisor 2 says:

"Let's venture and take a risk!"","

"That gamble doesn't sound too good, play it safe."",0,30,0,0,0,0,0,28,28,19,,,,,,,n,0.5060487000155263,left,0.6467914000095334,,,,001,2019_Jul_18_1618,Test,3.0.7,60.312721458236645,
Pictures\IA50_G10.bmp,Pictures\IA50_G10.bmp,"Advisor 1 says:

"Go with the safe option here!"",Pictures\IA50.bmp,"Advisor 2 says:

"Try your luck and gamble!"","

"Go with the safe option here!"",0,20,0,0,0,0,0,29,29,0,,,,,,,n,0.6252565000031609,left,0.5724522999953479,,,,001,2019_Jul_18_1618,Test,3.0.7,60.312721458236645,
Pictures\IA25_L5.bmp,Pictures\IA25_L5.bmp,"Advisor 1 says:

"Let's stay with the certain option."",Pictures\IA25.bmp,"Advisor 2 says:

"Take a chance!"","

"Let's stay with the certain option."",0,60,0,0,0,0,0,30,30,8,,,,,,,n,0.3601529000152368,right,0.5922227999835741,,,,001,2019_Jul_18_1618,Test,3.0.7,60.312721458236645,
Pictures\IA100_L80.bmp,Pictures\IA100_L80.bmp,"Advisor 1 says:

"Go all in!"",Pictures\IA100.bmp,"Advisor 2 says:

"There's not much on the line here, gamble!"","

"Go all in!"",1,50,0,0,0,0,0,31,31,23,,,,,,,n,1.0113719000073615,left,0.6283272000146098,,,,001,2019_Jul_18_1618,Test,3.0.7,60.312721458236645,
,,,,,,,,0,0,0,0,,,,,,,,,,,,,,,return,31.35975539998617,,001,2019_Jul_18_1618,Test,3.0.7,60.312721458236645,
