Choice,Choice2,Amount,AdviceVar1,GambleAdviceNum,GambleAdviceType,trials_2.thisRepN,trials_2.thisTrialN,trials_2.thisN,trials_2.thisIndex,trials.thisRepN,trials.thisTrialN,trials.thisN,trials.thisIndex,space.keys,space.rt,key_resp_3.keys,key_resp_3.rt,enter.keys,enter.rt,response.keys,response.rt,resp.keys,resp.rt,participant,session,date,expName,psychopyVersion,frameRate,
,,,,,,,,,,,,,,space,14.264162400009809,,,,,,,,,,001,2019_Jul_21_2054,Test,3.0.7,59.907502819204296,
Pictures\IA25_G5.bmp,Pictures\IA25_G5.bmp,Pictures\IA25.bmp,"

"Let's stay with the certain option."",0,safe,0,0,0,0,0,0,0,9,,,left,9.187733800004935,return,34.753163800007314,y,1.0265117999952054,left,1.3140602000057697,,001,2019_Jul_21_2054,Test,3.0.7,59.907502819204296,
Pictures\IA100_L80.bmp,Pictures\IA100_L80.bmp,Pictures\IA100.bmp,"

"Go all in!"",1,risk,0,0,0,0,0,1,1,3,,,,,,,n,1.6069233000016538,right,1.0442830999963917,,001,2019_Jul_21_2054,Test,3.0.7,59.907502819204296,
Pictures\IA75_G15.bmp,Pictures\IA75_G15.bmp,Pictures\IA75.bmp,"

"Take a chance!"",1,risk,0,0,0,0,0,2,2,1,,,,,,,y,1.4262756999960402,right,2.0957350000098813,,001,2019_Jul_21_2054,Test,3.0.7,59.907502819204296,
Pictures\IA75_G60.bmp,Pictures\IA75_G60.bmp,Pictures\IA75.bmp,"

"Make it exciting, take a chance!"",1,risk,0,0,0,0,0,3,3,13,,,,,,,y,1.6632897999952547,left,1.663762800002587,,001,2019_Jul_21_2054,Test,3.0.7,59.907502819204296,
Pictures\IA50_L20.bmp,Pictures\IA50_L20.bmp,Pictures\IA50.bmp,"

"Certainty is boring, take a risk!"",1,risk,0,0,0,0,0,4,4,2,,,,,,,n,1.4344907000049716,right,1.030236499995226,,001,2019_Jul_21_2054,Test,3.0.7,59.907502819204296,
Pictures\IA100_L40.bmp,Pictures\IA100_L40.bmp,Pictures\IA100.bmp,"

"Think of the payoff, gamble!"",1,risk,0,0,0,0,0,5,5,15,,,,,,,y,1.8992340999975568,left,0.3993241999996826,,001,2019_Jul_21_2054,Test,3.0.7,59.907502819204296,
Pictures\IA100_L60.bmp,Pictures\IA100_L60.bmp,Pictures\IA100.bmp,"

"You'd have a lot to lose, don't gamble."",0,safe,0,0,0,0,0,6,6,0,,,,,,,n,0.6341697000025306,left,1.065321000001859,,001,2019_Jul_21_2054,Test,3.0.7,59.907502819204296,
Pictures\IA25_L15.bmp,Pictures\IA25_L15.bmp,Pictures\IA25.bmp,"

"There's not much on the line here, gamble!"",1,risk,0,0,0,0,0,7,7,10,,,,,,,y,1.8081204000045545,right,0.46016729999973904,,001,2019_Jul_21_2054,Test,3.0.7,59.907502819204296,
Pictures\IA25_G15.bmp,Pictures\IA25_G15.bmp,Pictures\IA25.bmp,"

"I think you should take a gamble."",1,risk,0,0,0,0,0,8,8,14,,,,,,,y,1.5307942000072217,left,0.431022100005066,,001,2019_Jul_21_2054,Test,3.0.7,59.907502819204296,
Pictures\IA50_L10.bmp,Pictures\IA50_L10.bmp,Pictures\IA50.bmp,"

"Play it safe, don’t gamble!"",0,safe,0,0,0,0,0,9,9,6,,,,,,,n,1.0018836999952327,left,0.7295511000120314,,001,2019_Jul_21_2054,Test,3.0.7,59.907502819204296,
Pictures\IA75_L45.bmp,Pictures\IA75_L45.bmp,Pictures\IA75.bmp,"

"Don't gamble for this one, play it safe."",0,safe,0,0,0,0,0,10,10,4,,,,,,,y,1.3004763999924762,left,0.3466823999915505,,001,2019_Jul_21_2054,Test,3.0.7,59.907502819204296,
Pictures\IA50_G30.bmp,Pictures\IA50_G30.bmp,Pictures\IA50.bmp,"

"I think you should gamble."",1,risk,0,0,0,0,0,11,11,17,,,,,,,n,1.537928199992166,right,0.8824388000066392,,001,2019_Jul_21_2054,Test,3.0.7,59.907502819204296,
Pictures\IA100_G80.bmp,Pictures\IA100_G80.bmp,Pictures\IA100.bmp,"

"Why not gamble?"",1,risk,0,0,0,0,0,12,12,5,,,,,,,y,1.1701051999989431,left,0.5462527999916347,,001,2019_Jul_21_2054,Test,3.0.7,59.907502819204296,
Pictures\IA50_L30.bmp,Pictures\IA50_L30.bmp,Pictures\IA50.bmp,"

"Take a leap, I think you should gamble."",1,risk,0,0,0,0,0,13,13,7,,,,,,,n,1.3973453000071459,right,0.4986485999979777,,001,2019_Jul_21_2054,Test,3.0.7,59.907502819204296,
Pictures\IA75_L30.bmp,Pictures\IA75_L30.bmp,Pictures\IA75.bmp,"

"Hold back, stay with the safe choice."",0,safe,0,0,0,0,0,14,14,19,,,,,,,n,1.5501644000032684,right,0.8829475999955321,,001,2019_Jul_21_2054,Test,3.0.7,59.907502819204296,
Pictures\IA50_L40.bmp,Pictures\IA50_L40.bmp,Pictures\IA50.bmp,"

"That gamble doesn't sound too good, play it safe."",0,safe,0,0,0,0,0,15,15,8,,,,,,,y,1.1966937000106554,left,0.3814424999873154,,001,2019_Jul_21_2054,Test,3.0.7,59.907502819204296,
Pictures\IA25_G10.bmp,Pictures\IA25_G10.bmp,Pictures\IA25.bmp,"

"What's life without a little risk?"",1,risk,0,0,0,0,0,16,16,12,,,,,,,n,1.9149601999961305,right,1.1184934999910183,,001,2019_Jul_21_2054,Test,3.0.7,59.907502819204296,
Pictures\IA25_L10.bmp,Pictures\IA25_L10.bmp,Pictures\IA25.bmp,"

"Dont be afraid to take the risk!"",1,risk,0,0,0,0,0,17,17,11,,,,,,,y,1.7667834000021685,left,0.4800374000042211,,001,2019_Jul_21_2054,Test,3.0.7,59.907502819204296,
Pictures\IA25_G20.bmp,Pictures\IA25_G20.bmp,Pictures\IA25.bmp,"

"I wouldn't gamble for this one. "",0,safe,0,0,0,0,0,18,18,18,,,,,,,n,1.0541339000046719,right,0.46163910000177566,,001,2019_Jul_21_2054,Test,3.0.7,59.907502819204296,
Pictures\IA75_G30.bmp,Pictures\IA75_G30.bmp,Pictures\IA75.bmp,"

"Be bold, gamble!"",1,risk,0,0,0,0,0,19,19,16,,,,,,,n,0.4056391999911284,right,0.5833923999889521,,001,2019_Jul_21_2054,Test,3.0.7,59.907502819204296,
