Choice,Choice2,Amount,AdviceVar1,GambleAdviceNum,GambleAdviceType,trials_2.thisRepN,trials_2.thisTrialN,trials_2.thisN,trials_2.thisIndex,trials.thisRepN,trials.thisTrialN,trials.thisN,trials.thisIndex,instructions.started,instructions.stopped,space.keys,space.rt,space.started,space.stopped,chooseInst.started,chooseInst.stopped,Ad1.started,Ad1.stopped,Ad2.started,Ad2.stopped,key_resp_3.keys,key_resp_3.rt,key_resp_3.started,key_resp_3.stopped,Ad1pic.started,Ad1pic.stopped,Ad2pic.started,Ad2pic.stopped,enter.keys,enter.rt,enter.started,enter.stopped,iSi.started,iSi.stopped,receiveMoneyPicture.started,receiveMoneyPicture.stopped,ISI2.started,ISI2.stopped,ChoicePic.started,ChoicePic.stopped,response.keys,response.rt,response.started,response.stopped,yesNo.started,yesNo.stopped,ask.started,ask.stopped,getAdv.started,getAdv.stopped,textForCode.started,textForCode.stopped,blank.started,blank.stopped,ChoicePic2.started,ChoicePic2.stopped,resp.keys,resp.rt,resp.started,resp.stopped,checkL1.started,checkL1.stopped,checkR1.started,checkR1.stopped,participant,session,date,expName,psychopyVersion,frameRate,
,,,,,,,,,,,,,,13.283929234021343,None,space,7.293419252382591,13.283929234021343,None,,,,,,,,,,,,,,,,,,,,,,,,,,,,,,,,,,,,,,,,,,,,,,,,,,,,001,2019_Jul_22_1538,Test,3.1.2,59.83728988505948,
Pictures\IA50_G40.bmp,Pictures\IA50_G40.bmp,Pictures\IA50.bmp,"

"There's not much on the line here, gamble!"",1,risk,0,0,0,0,0,0,0,18,,,,,,,23.30229097197298,None,23.30229097197298,None,23.30229097197298,None,left,3.2988803749904037,23.30229097197298,None,23.30229097197298,None,23.30229097197298,None,return,3.5948182315332815,23.30229097197298,None,26.953398358426057,None,29.087428034981713,30.95471955265384,30.971265892498195,None,32.504964897292666,None,n,1.4263115449575707,34.83880217955448,None,34.83880217955448,None,34.83880217955448,None,None,None,None,None,36.773927750531584,None,36.773927750531584,None,right,0.4752361618448049,36.773927750531584,None,None,None,37.27325735636987,38.59032623365056,,001,2019_Jul_22_1538,Test,3.1.2,59.83728988505948,
Pictures\IA75_L30.bmp,Pictures\IA75_L30.bmp,Pictures\IA75.bmp,"

"Don't gamble for this one."",0,safe,0,0,0,0,0,1,1,9,,,,,,,,,,,,,,,,,,,,,,,,,38.60693944187369,None,40.62410408083815,42.60784076503478,42.624529550084844,None,44.125033861841075,None,y,1.6717121687252074,46.14514537341893,None,46.14514537341893,None,46.14514537341893,None,47.91191043506842,None,47.91191043506842,48.909920246340334,49.993420154438354,None,49.993420154438354,None,right,0.943441194598563,49.993420154438354,None,None,None,50.96059774712194,None,,001,2019_Jul_22_1538,Test,3.1.2,59.83728988505948,
Pictures\IA110_55_L95p.bmp,Pictures\IA110_55_L95p.bmp,Pictures\IA110.bmp,"

"Go all in!"",1,risk,0,0,0,0,0,2,2,0,,,,,,,,,,,,,,,,,,,,,,,,,51.91088999295607,None,53.93148575571831,55.912064387695864,55.92862099118065,None,57.44556247640867,None,n,0.9617497487924993,59.46276599226985,None,59.46276599226985,None,59.46276599226985,None,None,None,None,None,60.54788629151881,None,60.54788629151881,None,right,0.4446879004826769,60.54788629151881,None,None,None,61.013564322609454,62.463983307243325,,001,2019_Jul_22_1538,Test,3.1.2,59.83728988505948,
Pictures\IA75_G30.bmp,Pictures\IA75_G30.bmp,Pictures\IA75.bmp,"

"Be bold, gamble!"",1,risk,0,0,0,0,0,3,3,4,,,,,,,,,,,,,,,,,,,,,,,,,62.48061579850037,None,64.50251222844236,66.48184990824666,66.4984823995037,None,67.99875096150208,None,y,0.7757142239715904,70.03277202288155,None,70.03277202288155,None,70.03277202288155,None,70.88604233611841,None,70.88604233611841,71.88341083331034,72.9883198098978,None,72.9883198098978,None,right,0.6043723192997277,72.9883198098978,None,None,None,73.6172147745965,74.86764296540059,,001,2019_Jul_22_1538,Test,3.1.2,59.83728988505948,
Pictures\IA50_L30.bmp,Pictures\IA50_L30.bmp,Pictures\IA50.bmp,"

"Take a leap, I think you should gamble."",1,risk,0,0,0,0,0,4,4,17,,,,,,,,,,,,,,,,,,,,,,,,,74.88422351703048,None,76.90626239206176,78.8854725555284,78.90215605334379,None,80.40253191569354,None,y,1.3082739785313606,82.43621148192324,None,82.43621148192324,None,82.43621148192324,None,83.85606976458803,None,83.85606976458803,84.85383169644047,85.95382755994797,None,85.95382755994797,None,left,0.982344267424196,85.95382755994797,None,86.95450650691055,None,None,None,,001,2019_Jul_22_1538,Test,3.1.2,59.83728988505948,
Pictures\IA75_G45.bmp,Pictures\IA75_G45.bmp,Pictures\IA75.bmp,"

"I wouldn't gamble for this one. "",0,safe,0,0,0,0,0,5,5,19,,,,,,,,,,,,,,,,,,,,,,,,,87.8547666092636,None,89.87371834367514,91.85592172120232,91.87253213033546,None,93.37286787165795,None,y,1.1691682167584077,95.40666126960423,None,95.40666126960423,None,95.40666126960423,None,96.67365539411549,None,96.67365539411549,97.67426933895331,98.74274439527653,None,98.74274439527653,None,right,0.465081503149122,98.74274439527653,None,None,None,99.22478309005965,100.65854843438137,,001,2019_Jul_22_1538,Test,3.1.2,59.83728988505948,
Pictures\IA50_G40.bmp,Pictures\IA50_G40.bmp,Pictures\IA50.bmp,"

"It would probably be best to play it safe."",0,safe,0,0,0,0,0,6,6,13,,,,,,,,,,,,,,,,,,,,,,,,,100.67520176363178,None,102.69793140434194,104.67638455587439,104.69302886573132,None,106.1932541965507,None,n,0.3140986784128472,108.21377780369949,None,108.21377780369949,None,108.21377780369949,None,None,None,None,None,108.66055666189641,None,108.66055666189641,None,right,0.7150487689068541,108.66055666189641,None,None,None,109.39442716061603,110.59479024028406,,001,2019_Jul_22_1538,Test,3.1.2,59.83728988505948,
Pictures\IA20_10_L95p.bmp,Pictures\IA20_10_L95p.bmp,Pictures\IA20.bmp,"

"Go all in!"",1,risk,0,0,0,0,0,7,7,16,,,,,,,,,,,,,,,,,,,,,,,,,110.61143548309337,None,112.63348493271042,114.61265093204565,114.62930395023432,None,116.12976285372861,None,y,1.2364847401622683,118.13092294184025,None,118.13092294184025,None,118.13092294184025,None,119.44715829729103,None,119.44715829729103,120.44770723988768,121.54762534948532,None,121.54762534948532,None,right,0.49979550729040056,121.54762534948532,None,None,None,122.0648367961403,123.43189085344784,,001,2019_Jul_22_1538,Test,3.1.2,59.83728988505948,
Pictures\IA110_55_L95p.bmp,Pictures\IA110_55_L95p.bmp,Pictures\IA110.bmp,"

"Dont be afraid to take the risk!"",1,risk,0,0,0,0,0,8,8,6,,,,,,,,,,,,,,,,,,,,,,,,,123.44849753042217,None,125.47087168029975,127.44976398581639,127.46642415749375,None,128.96685258147772,None,y,1.2290813252329826,130.9861604287289,None,130.9861604287289,None,130.9861604287289,None,132.3009029093664,None,132.3009029093664,133.30146211537067,134.37397011078428,None,134.37397011078428,None,left,0.8975343618076295,134.37397011078428,None,135.30200141645037,None,None,None,,001,2019_Jul_22_1538,Test,3.1.2,59.83728988505948,
Pictures\IA50_L20.bmp,Pictures\IA50_L20.bmp,Pictures\IA50.bmp,"

"Certainty is boring, take a risk!"",1,risk,0,0,0,0,0,9,9,11,,,,,,,,,,,,,,,,,,,,,,,,,136.30228039738722,None,138.32166568748653,140.30353472323623,140.32019551692065,None,141.82048709399533,None,y,0.9605793971568346,143.85447114449926,None,143.85447114449926,None,143.85447114449926,None,144.90449240244925,None,144.90449240244925,145.8884903397411,146.97177844622638,None,146.97177844622638,None,right,0.3152404165593907,146.97177844622638,None,None,None,147.30556689901277,148.87263569852803,,001,2019_Jul_22_1538,Test,3.1.2,59.83728988505948,
Pictures\IA80_40_G95p.bmp,Pictures\IA80_40_G95p.bmp,Pictures\IA80.bmp,"

"I think you should not gamble."",0,safe,0,0,0,0,0,10,10,8,,,,,,,,,,,,,,,,,,,,,,,,,148.88936740369536,None,150.91187746741343,152.89057507715188,152.90722622931935,None,154.40766367281321,None,y,0.9493125467561185,156.4413451050641,None,156.4413451050641,None,156.4413451050641,None,157.4748352628667,None,157.4748352628667,158.4588720771717,159.54218973009847,None,159.54218973009847,None,left,0.6722943899221718,159.54218973009847,None,160.24230508576147,161.44308430422097,None,None,,001,2019_Jul_22_1538,Test,3.1.2,59.83728988505948,
Pictures\IA100_G60.bmp,Pictures\IA100_G60.bmp,Pictures\IA100.bmp,"

"Go with the safe option here!"",0,safe,0,0,0,0,0,11,11,12,,,,,,,,,,,,,,,,,,,,,,,,,161.45975318434648,None,163.4823400687892,165.46085542347282,165.47761574212927,None,166.97802488319576,None,y,1.1627647170098498,169.01176976272836,None,169.01176976272836,None,169.01176976272836,None,170.26192643679678,None,170.26192643679678,171.24591131147463,172.32925477868412,None,172.32925477868412,None,right,0.3013377090683207,172.32925477868412,None,None,None,172.66295365907717,174.23016397061292,,001,2019_Jul_22_1538,Test,3.1.2,59.83728988505948,
Pictures\IA100_L20.bmp,Pictures\IA100_L20.bmp,Pictures\IA100.bmp,"

"Go with the safe option here!"",0,safe,0,0,0,0,0,12,12,14,,,,,,,,,,,,,,,,,,,,,,,,,174.2468521335395,None,176.26820117607713,178.24801097763702,178.2645821988117,None,179.7816210319288,None,y,1.1354961149627343,181.79872471175622,None,181.79872471175622,None,181.79872471175622,None,183.01582789397798,None,183.01582789397798,183.98304094246123,185.05256723146886,None,185.05256723146886,None,right,0.4896682179532945,185.05256723146886,None,None,None,185.56674316618592,186.96722300106194,,001,2019_Jul_22_1538,Test,3.1.2,59.83728988505948,
Pictures\IA25_L20.bmp,Pictures\IA25_L20.bmp,Pictures\IA25.bmp,"

"Don't be tempted to gamble."",0,safe,0,0,0,0,0,13,13,1,,,,,,,,,,,,,,,,,,,,,,,,,186.98392329365015,None,189.00637022114825,190.9851082629757,191.00166113430168,None,192.50206374388654,None,y,1.116015653940849,194.52212238276843,None,194.52212238276843,None,194.52212238276843,None,195.73606129246764,None,195.73606129246764,196.7367050948087,197.82022895105183,None,197.82022895105183,None,left,0.5857070301426575,197.82022895105183,None,198.43727857642807,199.72096304118168,None,None,,001,2019_Jul_22_1538,Test,3.1.2,59.83728988505948,
Pictures\IA75_L30.bmp,Pictures\IA75_L30.bmp,Pictures\IA75.bmp,"

"Hold back, stay with the safe choice."",0,safe,0,0,0,0,0,14,14,2,,,,,,,,,,,,,,,,,,,,,,,,,199.73767764051445,None,201.75984807510395,203.73885234631598,203.75542823271826,None,205.25583301950246,None,y,1.0593713192502037,207.290506280493,None,207.290506280493,None,207.290506280493,None,208.44312971248291,None,208.44312971248291,209.44051749259233,210.5118221688317,None,210.5118221688317,None,right,0.254051833297126,210.5118221688317,None,None,None,210.79074871714693,212.42472629854456,,001,2019_Jul_22_1538,Test,3.1.2,59.83728988505948,
Pictures\IA25_L10.bmp,Pictures\IA25_L10.bmp,Pictures\IA25.bmp,"

"Dont be afraid to take the risk!"",1,risk,0,0,0,0,0,15,15,15,,,,,,,,,,,,,,,,,,,,,,,,,212.44141352851875,None,214.4607017817907,216.4425919665955,216.45924311876297,None,217.95948990958277,None,y,1.3003505456726998,219.99324287555646,None,219.99324287555646,None,219.99324287555646,None,221.37709332932718,None,221.37709332932718,222.36092300724704,223.44449724804144,None,223.44449724804144,None,right,0.5051306685199961,223.44449724804144,None,None,None,223.97812378616072,225.3451119081583,,001,2019_Jul_22_1538,Test,3.1.2,59.83728988505948,
Pictures\IA100_G60.bmp,Pictures\IA100_G60.bmp,Pictures\IA100.bmp,"

"Be cautious, don't gamble for this one."",0,safe,0,0,0,0,0,16,16,3,,,,,,,,,,,,,,,,,,,,,,,,,225.361792917829,None,227.38389119680505,229.36299872514792,229.3796859551221,None,230.8800611954648,None,y,0.9636568962596357,232.91374604892917,None,232.91374604892917,None,232.91374604892917,None,233.96789386158343,None,233.96789386158343,234.9646782715572,236.04797881864943,None,236.04797881864943,None,right,0.261314979987219,236.04797881864943,None,None,None,236.33177089481615,237.94887339277193,,001,2019_Jul_22_1538,Test,3.1.2,59.83728988505948,
Pictures\IA80_40_G95p.bmp,Pictures\IA80_40_G95p.bmp,Pictures\IA80.bmp,"

"I think you should gamble."",1,risk,0,0,0,0,0,17,17,5,,,,,,,,,,,,,,,,,,,,,,,,,237.96546451887116,None,239.999305191217,241.9667421709746,241.9834303339012,None,243.4837598549202,None,y,1.1916950753657147,245.517498203204,None,245.517498203204,None,245.517498203204,None,246.8179846626008,None,246.8179846626008,247.80176768824458,248.88525266759098,None,248.88525266759098,None,right,0.6478286603232846,248.88525266759098,None,None,None,249.5522601036355,250.78599515499081,,001,2019_Jul_22_1538,Test,3.1.2,59.83728988505948,
Pictures\IA40_20_G95p.bmp,Pictures\IA40_20_G95p.bmp,Pictures\IA40.bmp,"

"You'd have a lot to lose, don't gamble."",0,safe,0,0,0,0,0,18,18,10,,,,,,,,,,,,,,,,,,,,,,,,,250.80259281257167,None,252.8251274464419,254.80386175611056,254.82052752596792,None,256.320954394876,None,y,1.114251573686488,258.3546327170916,None,258.3546327170916,None,258.3546327170916,None,259.5548524184851,None,259.5548524184851,260.55554038495757,261.63898835342843,None,261.63898835342843,None,right,0.42186433309689164,261.63898835342843,None,None,None,262.0892384565668,263.53976443060674,,001,2019_Jul_22_1538,Test,3.1.2,59.83728988505948,
Pictures\IA75_G15.bmp,Pictures\IA75_G15.bmp,Pictures\IA75.bmp,"

"Trust me, gamble!"",1,risk,0,0,0,0,0,19,19,7,,,,,,,,,,,,,,,,,,,,,,,,,263.55638292618096,None,265.5775145688094,267.5575374159962,267.57427285343874,None,269.0746054846095,None,n,1.2692561409203336,271.0954730749363,None,271.0954730749363,None,271.0954730749363,None,None,None,None,None,272.47532169125043,None,272.47532169125043,None,left,0.7933705785544589,272.47532169125043,None,273.29261465510353,274.4096016108524,None,None,,001,2019_Jul_22_1538,Test,3.1.2,59.83728988505948,
