Choice,Choice2,Amount,AdviceVar1,GambleAdviceNum,GambleAdviceType,trials_2.thisRepN,trials_2.thisTrialN,trials_2.thisN,trials_2.thisIndex,trials.thisRepN,trials.thisTrialN,trials.thisN,trials.thisIndex,space.keys,space.rt,key_resp_3.keys,key_resp_3.rt,enter.keys,enter.rt,response.keys,response.rt,resp.keys,resp.rt,participant,session,date,expName,psychopyVersion,frameRate,
,,,,,,,,,,,,,,space,1.404089000003296,,,,,,,,,,001,2019_Jul_21_0934,Test,3.0.7,60.01511180668814,
Pictures\IA100_L60.bmp,Pictures\IA100_L60.bmp,Pictures\IA100.bmp,"

"You'd have a lot to lose, don't gamble."",0,safe,0,0,0,0,0,0,0,9,,,right,1.8281494000111707,return,2.4270225999935064,y,1.075148599993554,None,,,001,2019_Jul_21_0934,Test,3.0.7,60.01511180668814,
Pictures\IA75_L60.bmp,Pictures\IA75_L60.bmp,Pictures\IA75.bmp,"

"Why not take the gamble?"",1,risk,0,0,0,0,0,1,1,7,,,,,,,y,0.5593640000006417,right,0.47583250000025146,,001,2019_Jul_21_0934,Test,3.0.7,60.01511180668814,
Pictures\IA100_G60.bmp,Pictures\IA100_G60.bmp,Pictures\IA100.bmp,"

"Be cautious, don't gamble for this one."",0,safe,0,0,0,0,0,2,2,3,,,,,,,y,0.9973908999963896,left,0.3770867000130238,,001,2019_Jul_21_0934,Test,3.0.7,60.01511180668814,
Pictures\IA25_L15.bmp,Pictures\IA25_L15.bmp,Pictures\IA25.bmp,"

"There's not much on the line here, gamble!"",1,risk,0,0,0,0,0,3,3,14,,,,,,,n,0.9420998999994481,right,0.5003005999897141,,001,2019_Jul_21_0934,Test,3.0.7,60.01511180668814,
Pictures\IA100_L40.bmp,Pictures\IA100_L40.bmp,Pictures\IA100.bmp,"

"Think of the payoff, gamble!"",1,risk,0,0,0,0,0,4,4,6,,,,,,,y,1.2082783000078052,right,0.48850549999042414,,001,2019_Jul_21_0934,Test,3.0.7,60.01511180668814,
Pictures\IA75_L15.bmp,Pictures\IA75_L15.bmp,Pictures\IA75.bmp,"

"Trust me, gamble!"",1,risk,0,0,0,0,0,5,5,1,,,,,,,y,1.5397044999990612,left,0.8423379000014393,,001,2019_Jul_21_0934,Test,3.0.7,60.01511180668814,
Pictures\IA75_G60.bmp,Pictures\IA75_G60.bmp,Pictures\IA75.bmp,"

"Make it exciting, take a chance!"",1,risk,0,0,0,0,0,6,6,11,,,,,,,n,0.9646746999933384,right,0.34836259999428876,,001,2019_Jul_21_0934,Test,3.0.7,60.01511180668814,
Pictures\IA75_L45.bmp,Pictures\IA75_L45.bmp,Pictures\IA75.bmp,"

"Don't gamble for this one, play it safe."",0,safe,0,0,0,0,0,7,7,15,,,,,,,y,0.9240773000055924,left,0.783044299998437,,001,2019_Jul_21_0934,Test,3.0.7,60.01511180668814,
Pictures\IA25_L20.bmp,Pictures\IA25_L20.bmp,Pictures\IA25.bmp,"

"Don't be tempted to gamble."",0,safe,0,0,0,0,0,8,8,0,,,,,,,y,1.1467369000019971,right,0.8197130000044126,,001,2019_Jul_21_0934,Test,3.0.7,60.01511180668814,
Pictures\IA50_L40.bmp,Pictures\IA50_L40.bmp,Pictures\IA50.bmp,"

"That gamble doesn't sound too good, play it safe."",0,safe,0,0,0,0,0,9,9,16,,,,,,,y,0.8106129000079818,left,0.6778484999958891,,001,2019_Jul_21_0934,Test,3.0.7,60.01511180668814,
Pictures\IA50_G10.bmp,Pictures\IA50_G10.bmp,Pictures\IA50.bmp,"

"Go with the safe option here!"",0,safe,0,0,0,0,0,10,10,5,,,,,,,y,1.3287534000119194,left,0.9103778999997303,,001,2019_Jul_21_0934,Test,3.0.7,60.01511180668814,
Pictures\IA25_G5.bmp,Pictures\IA25_G5.bmp,Pictures\IA25.bmp,"

"Let's stay with the certain option."",0,safe,0,0,0,0,0,11,11,13,,,,,,,y,0.8914367999968817,left,1.064025900006527,,001,2019_Jul_21_0934,Test,3.0.7,60.01511180668814,
Pictures\IA50_L20.bmp,Pictures\IA50_L20.bmp,Pictures\IA50.bmp,"

"Certainty is boring, take a risk!"",1,risk,0,0,0,0,0,12,12,8,,,,,,,y,0.2216543999966234,right,0.6356075999938184,,001,2019_Jul_21_0934,Test,3.0.7,60.01511180668814,
Pictures\IA25_G10.bmp,Pictures\IA25_G10.bmp,Pictures\IA25.bmp,"

"What's life without a little risk?"",1,risk,0,0,0,0,0,13,13,12,,,,,,,n,0.9812046000006376,right,0.5131652999989456,,001,2019_Jul_21_0934,Test,3.0.7,60.01511180668814,
Pictures\IA100_L20.bmp,Pictures\IA100_L20.bmp,Pictures\IA100.bmp,"

"Try to win as much money as you can, gamble!"",1,risk,0,0,0,0,0,14,14,2,,,,,,,y,0.4700669000012567,left,0.9334301999915624,,001,2019_Jul_21_0934,Test,3.0.7,60.01511180668814,
Pictures\IA50_L30.bmp,Pictures\IA50_L30.bmp,Pictures\IA50.bmp,"

"Take a leap, I think you should gamble."",1,risk,0,0,0,0,0,15,15,17,,,,,,,y,0.48451070000010077,right,0.29340460000094026,,001,2019_Jul_21_0934,Test,3.0.7,60.01511180668814,
Pictures\IA100_G40.bmp,Pictures\IA100_G40.bmp,Pictures\IA100.bmp,"

"Try your luck and gamble!"",1,risk,0,0,0,0,0,16,16,19,,,,,,,y,1.0770101999951294,left,1.6114260000031209,,001,2019_Jul_21_0934,Test,3.0.7,60.01511180668814,
Pictures\IA75_G30.bmp,Pictures\IA75_G30.bmp,Pictures\IA75.bmp,"

"Be bold, gamble!"",1,risk,0,0,0,0,0,17,17,4,,,,,,,y,0.7548526999889873,left,0.7907930000073975,,001,2019_Jul_21_0934,Test,3.0.7,60.01511180668814,
Pictures\IA25_L5.bmp,Pictures\IA25_L5.bmp,Pictures\IA25.bmp,"

"It would be smarter to choose the safe option."",0,safe,0,0,0,0,0,18,18,10,,,,,,,n,0.8559166000050027,left,1.013727800003835,,001,2019_Jul_21_0934,Test,3.0.7,60.01511180668814,
Pictures\IA100_L80.bmp,Pictures\IA100_L80.bmp,Pictures\IA100.bmp,"

"Go all in!"",1,risk,0,0,0,0,0,19,19,18,,,,,,,y,0.34352229999785777,right,0.3611405999981798,,001,2019_Jul_21_0934,Test,3.0.7,60.01511180668814,
