Choice,Choice2,Amount,AdviceVar1,GambleAdviceNum,GambleAdviceType,trials_2.thisRepN,trials_2.thisTrialN,trials_2.thisN,trials_2.thisIndex,trials.thisRepN,trials.thisTrialN,trials.thisN,trials.thisIndex,space.keys,space.rt,key_resp_3.keys,key_resp_3.rt,enter.keys,enter.rt,response.keys,response.rt,resp.keys,resp.rt,participant,session,date,expName,psychopyVersion,frameRate,
,,,,,,,,,,,,,,space,1.1630591999855824,,,,,,,,,,001,2019_Jul_22_1922,Test,3.0.7,60.11916821630033,
Pictures\IA25_G5.bmp,Pictures\IA25_G5.bmp,Pictures\IA25.bmp,"

"Let's stay with the certain option."",0,safe,0,0,0,0,0,0,0,15,,,right,0.4379158999945503,return,2.0850684999895748,y,1.3004212999949232,left,0.5043287000153214,,001,2019_Jul_22_1922,Test,3.0.7,60.11916821630033,
Pictures\IA20_10_G95p.bmp,Pictures\IA20_10_G95p.bmp,Pictures\IA20.bmp,"

"Go with the safe option here!"",0,safe,0,0,0,0,0,1,1,18,,,,,,,y,0.44530110000050627,left,0.46206530000199564,,001,2019_Jul_22_1922,Test,3.0.7,60.11916821630033,
Pictures\IA50_L30.bmp,Pictures\IA50_L30.bmp,Pictures\IA50.bmp,"

"Certainty is boring, take a risk!"",1,risk,0,0,0,0,0,2,2,10,,,,,,,y,0.5174765999836382,right,0.6953075999917928,,001,2019_Jul_22_1922,Test,3.0.7,60.11916821630033,
Pictures\IA25_G5.bmp,Pictures\IA25_G5.bmp,Pictures\IA25.bmp,"

"Be cautious, don't gamble for this one."",0,safe,0,0,0,0,0,3,3,19,,,,,,,y,0.9028870000038296,right,0.42877510000835173,,001,2019_Jul_22_1922,Test,3.0.7,60.11916821630033,
Pictures\IA100_L40.bmp,Pictures\IA100_L40.bmp,Pictures\IA100.bmp,"

"It would probably be best to play it safe."",0,safe,0,0,0,0,0,4,4,5,,,,,,,y,1.0968237000051886,right,0.4196347999968566,,001,2019_Jul_22_1922,Test,3.0.7,60.11916821630033,
Pictures\IA100_L60.bmp,Pictures\IA100_L60.bmp,Pictures\IA100.bmp,"

"You'd have a lot to lose, don't gamble."",0,safe,0,0,0,0,0,5,5,7,,,,,,,y,1.0354459999944083,left,0.42383269997662865,,001,2019_Jul_22_1922,Test,3.0.7,60.11916821630033,
Pictures\IA80_40_G95p.bmp,Pictures\IA80_40_G95p.bmp,Pictures\IA80.bmp,"

"Try to win as much money as you can, gamble!"",1,risk,0,0,0,0,0,6,6,3,,,,,,,y,0.7019173000007868,right,1.495784700004151,,001,2019_Jul_22_1922,Test,3.0.7,60.11916821630033,
Pictures\IA100_G20.bmp,Pictures\IA100_G20.bmp,Pictures\IA100.bmp,"

"Go ahead and gamble!"",1,risk,0,0,0,0,0,7,7,17,,,,,,,y,0.655235200014431,right,0.9078547000244725,,001,2019_Jul_22_1922,Test,3.0.7,60.11916821630033,
Pictures\IA75_L45.bmp,Pictures\IA75_L45.bmp,Pictures\IA75.bmp,"

"Don't gamble for this one, play it safe."",0,safe,0,0,0,0,0,8,8,2,,,,,,,None,,right,1.4062776000064332,,001,2019_Jul_22_1922,Test,3.0.7,60.11916821630033,
Pictures\IA40_20_L95p.bmp,Pictures\IA40_20_L95p.bmp,Pictures\IA40.bmp,"

"Make it exciting, take a chance!"",1,risk,0,0,0,0,0,9,9,1,,,,,,,n,0.4756356999860145,left,0.7888949000043795,,001,2019_Jul_22_1922,Test,3.0.7,60.11916821630033,
Pictures\IA110_55_L95p.bmp,Pictures\IA110_55_L95p.bmp,Pictures\IA110.bmp,"

"Trust me, gamble!"",1,risk,0,0,0,0,0,10,10,9,,,,,,,y,0.6499193999916315,right,0.6602008999907412,,001,2019_Jul_22_1922,Test,3.0.7,60.11916821630033,
Pictures\IA80_40_G95p.bmp,Pictures\IA80_40_G95p.bmp,Pictures\IA80.bmp,"

"I think you should not gamble."",0,safe,0,0,0,0,0,11,11,8,,,,,,,n,0.5716619000013452,left,0.752197800000431,,001,2019_Jul_22_1922,Test,3.0.7,60.11916821630033,
Pictures\IA50_G40.bmp,Pictures\IA50_G40.bmp,Pictures\IA50.bmp,"

"There's not much on the line here, gamble!"",1,risk,0,0,0,0,0,12,12,6,,,,,,,y,0.42926360000274144,None,,,001,2019_Jul_22_1922,Test,3.0.7,60.11916821630033,
Pictures\IA40_20_L95p.bmp,Pictures\IA40_20_L95p.bmp,Pictures\IA40.bmp,"

"Be cautious, don't gamble for this one."",0,safe,0,0,0,0,0,13,13,11,,,,,,,y,0.6756659999955446,right,0.4613283000071533,,001,2019_Jul_22_1922,Test,3.0.7,60.11916821630033,
Pictures\IA75_G15.bmp,Pictures\IA75_G15.bmp,Pictures\IA75.bmp,"

"Trust me, gamble!"",1,risk,0,0,0,0,0,14,14,12,,,,,,,y,1.0509648000006564,right,0.3800377000006847,,001,2019_Jul_22_1922,Test,3.0.7,60.11916821630033,
Pictures\IA50_G10.bmp,Pictures\IA50_G10.bmp,Pictures\IA50.bmp,"

"Go with the safe option here!"",0,safe,0,0,0,0,0,15,15,0,,,,,,,y,0.6252322999935132,right,0.42955209998763166,,001,2019_Jul_22_1922,Test,3.0.7,60.11916821630033,
Pictures\IA75_G60.bmp,Pictures\IA75_G60.bmp,Pictures\IA75.bmp,"

"There's not much on the line here, gamble!"",1,risk,0,0,0,0,0,16,16,16,,,,,,,y,0.9592358999943826,right,0.378259999997681,,001,2019_Jul_22_1922,Test,3.0.7,60.11916821630033,
Pictures\IA100_L20.bmp,Pictures\IA100_L20.bmp,Pictures\IA100.bmp,"

"Try to win as much money as you can, gamble!"",1,risk,0,0,0,0,0,17,17,14,,,,,,,y,0.841955500014592,right,0.44416959999944083,,001,2019_Jul_22_1922,Test,3.0.7,60.11916821630033,
Pictures\IA100_L60.bmp,Pictures\IA100_L60.bmp,Pictures\IA100.bmp,"

"Be bold, gamble!"",1,risk,0,0,0,0,0,18,18,4,,,,,,,y,0.5321497999830171,right,0.6461683999805246,,001,2019_Jul_22_1922,Test,3.0.7,60.11916821630033,
Pictures\IA100_G80.bmp,Pictures\IA100_G80.bmp,Pictures\IA100.bmp,"

"Why not gamble?"",1,risk,0,0,0,0,0,19,19,13,,,,,,,y,0.6155970999971032,None,,,001,2019_Jul_22_1922,Test,3.0.7,60.11916821630033,
