Choice,Choice2,AdviceVar,Amount,AdviceVar2,AdviceVar1,GambleAdvice,GambleAdviceNum,trials_2.thisRepN,trials_2.thisTrialN,trials_2.thisN,trials_2.thisIndex,trials.thisRepN,trials.thisTrialN,trials.thisN,trials.thisIndex,instructions.started,instructions.stopped,space.keys,space.rt,space.started,space.stopped,chooseInst.started,chooseInst.stopped,Ad1.started,Ad1.stopped,Ad2.started,Ad2.stopped,key_resp_3.keys,key_resp_3.rt,key_resp_3.started,key_resp_3.stopped,Ad1pic.started,Ad1pic.stopped,Ad2pic.started,Ad2pic.stopped,enter.keys,enter.rt,enter.started,enter.stopped,iSi.started,iSi.stopped,receiveMoneyPicture.started,receiveMoneyPicture.stopped,ISI2.started,ISI2.stopped,ChoicePic.started,ChoicePic.stopped,text_3.started,text_3.stopped,ask.started,ask.stopped,response.keys,response.rt,response.started,response.stopped,Advice.started,Advice.stopped,blank.started,blank.stopped,ChoicePic2.started,ChoicePic2.stopped,resp.keys,resp.rt,resp.started,resp.stopped,checkL1.started,checkL1.stopped,checkR1.started,checkR1.stopped,endText.started,endText.stopped,key_resp_2.keys,key_resp_2.rt,key_resp_2.started,key_resp_2.stopped,participant,session,date,expName,psychopyVersion,frameRate,
,,,,,,,,,,,,,,,,5.682639390171971,None,space,1.2589014992117882,5.682639390171971,None,,,,,,,,,,,,,,,,,,,,,,,,,,,,,,,,,,,,,,,,,,,,,,,,,,,,,,,,001,2019_Jul_19_1629,Test,3.1.2,59.86971295708601,
Pictures\IA100_L40.bmp,Pictures\IA100_L40.bmp,"Advisor 1 says:

"Think of the payoff, gamble!"",Pictures\IA100.bmp,"Advisor 2 says:

"I think you should take a gamble."","

"Think of the payoff, gamble!"",risk,1,0,0,0,0,0,0,0,16,,,,,,,9.417261302529369,None,9.417261302529369,None,9.417261302529369,None,left,1.0039797553909011,9.417261302529369,None,9.417261302529369,None,9.417261302529369,None,return,1.3561557602952234,9.417261302529369,None,10.833768081269227,None,12.95309574023122,14.834818380884826,14.851504055783153,None,16.885272883519065,None,20.09024085983401,21.11961286026053,20.09024085983401,21.11961286026053,y,0.9312437855405733,20.09024085983401,None,21.10529525799211,24.054228987719398,25.037452807300724,None,25.037452807300724,None,right,0.36768572992878035,25.037452807300724,None,None,None,25.421260029892437,27.821967217081692,,,,,,,,001,2019_Jul_19_1629,Test,3.1.2,59.86971295708601,
Pictures\IA100_G80.bmp,Pictures\IA100_G80.bmp,"Advisor 1 says:

"Why not gamble?"",Pictures\IA100.bmp,"Advisor 2 says:

"That gamble doesn't sound too good, play it safe."","

"Why not gamble?"",risk,1,0,0,0,0,0,1,1,2,,,,,,,,,,,,,,,,,,,,,,,,,27.871794401318766,None,29.894409588247072,31.873138610622846,31.889832060900517,None,33.89035425608745,None,36.91104829980759,37.85810225136811,36.91104829980759,37.85810225136811,y,0.8779235852998681,36.91104829980759,None,37.84144923312124,40.80909086106112,41.97576317779021,None,41.97576317779021,None,right,0.461053540406283,41.97576317779021,None,None,None,42.45961384929251,44.860314505174756,,,,,,,,001,2019_Jul_19_1629,Test,3.1.2,59.86971295708601,
Pictures\IA100_L80.bmp,Pictures\IA100_L80.bmp,"Advisor 1 says:

"Go all in!"",Pictures\IA100.bmp,"Advisor 2 says:

"There's not much on the line here, gamble!"","

"Go all in!"",risk,1,0,0,0,0,0,2,2,17,,,,,,,,,,,,,,,,,,,,,,,,,44.877002357214224,None,46.896044908149634,48.87809713202296,48.894828526244964,None,50.895343256997876,None,53.91452203283552,55.27984591043787,53.91452203283552,55.27984591043787,y,1.2980328575940803,53.91452203283552,None,55.26321528531844,58.230911651975475,58.980942209251225,None,58.980942209251225,None,right,0.967675217660144,58.980942209251225,None,None,None,59.964694133319426,61.865225130168255,,,,,,,,001,2019_Jul_19_1629,Test,3.1.2,59.86971295708601,
Pictures\IA100_G20.bmp,Pictures\IA100_G20.bmp,"Advisor 1 says:

"Go ahead and gamble!"",Pictures\IA100.bmp,"Advisor 2 says:

"Be cautious, don't gamble for this one."","

"Go ahead and gamble!"",risk,1,0,0,0,0,0,3,3,3,,,,,,,,,,,,,,,,,,,,,,,,,61.881993846269324,None,63.901789676980115,65.88310510490555,65.89972453349037,None,67.90041063388344,None,70.9178262623609,72.08479653205723,70.9178262623609,72.08479653205723,y,1.0863963962183334,70.9178262623609,None,72.06817679246888,75.03585823037429,75.98594209575094,None,75.98594209575094,None,right,0.49018077162327245,75.98594209575094,None,None,None,76.5031494993018,78.87023123697145,,,,,,,,001,2019_Jul_19_1629,Test,3.1.2,59.86971295708601,
Pictures\IA25_G15.bmp,Pictures\IA25_G15.bmp,"Advisor 1 says:

"I think you should take a gamble."",Pictures\IA25.bmp,"Advisor 2 says:

"Think of the payoff, gamble!"","

"I think you should take a gamble."",risk,1,0,0,0,0,0,4,4,13,,,,,,,,,,,,,,,,,,,,,,,,,78.8869483244489,None,80.90993019880261,82.88816937163938,82.9046895862557,None,84.90516139689134,None,87.9395077805384,91.00699069723487,87.9395077805384,91.00699069723487,y,2.9765257879626006,87.9395077805384,92.89110566972522,90.99024188617477,None,94.04411942628212,None,94.04411942628212,None,left,0.3836753519717604,94.04411942628212,None,94.45823200704763,96.92559076630278,None,None,,,,,,,,001,2019_Jul_19_1629,Test,3.1.2,59.86971295708601,
Pictures\IA75_L60.bmp,Pictures\IA75_L60.bmp,"Advisor 1 says:

"Why not take the gamble?"",Pictures\IA75.bmp,"Advisor 2 says:

"It would be smarter to choose the safe option."","

"Why not take the gamble?"",risk,1,0,0,0,0,0,5,5,18,,,,,,,,,,,,,,,,,,,,,,,,,96.94229852332501,None,98.96399776940234,100.94347602833295,100.95999219972873,None,102.96052714652615,None,105.97875701379962,106.51155065215426,105.97875701379962,106.51155065215426,y,0.4569304068572819,105.97875701379962,None,106.49735901120584,109.46264625119511,111.01682127773529,None,111.01682127773529,None,right,0.29064623749582097,111.01682127773529,None,None,None,111.32973467570264,113.93053311493713,,,,,,,,001,2019_Jul_19_1629,Test,3.1.2,59.86971295708601,
Pictures\IA75_L15.bmp,Pictures\IA75_L15.bmp,"Advisor 1 says:

"Trust me, gamble!"",Pictures\IA75.bmp,"Advisor 2 says:

"Play it safe, don’t gamble!"","

"Trust me, gamble!"",risk,1,0,0,0,0,0,6,6,0,,,,,,,,,,,,,,,,,,,,,,,,,113.94714414607733,None,115.97041899710894,117.94847560377093,117.96514292876236,None,119.96558208280476,None,122.98318929685047,126.23406006273581,122.98318929685047,126.23406006273581,y,3.1801464447635226,122.98318929685047,127.95142185437726,126.21739398181671,None,129.24093288503354,None,129.24093288503354,None,right,0.7703439179458655,129.24093288503354,None,None,None,130.03528720577015,132.16904692078242,,,,,,,,001,2019_Jul_19_1629,Test,3.1.2,59.86971295708601,
Pictures\IA75_G15.bmp,Pictures\IA75_G15.bmp,"Advisor 1 says:

"Take a chance!"",Pictures\IA75.bmp,"Advisor 2 says:

"I don't think you should gamble."","

"Take a chance!"",risk,1,0,0,0,0,0,7,7,14,,,,,,,,,,,,,,,,,,,,,,,,,132.18568656535354,None,134.20381752966205,136.187174774881,136.20383494655835,None,138.20417892973637,None,141.22183279617457,142.63894916546997,141.22183279617457,142.63894916546997,y,1.3491579098044895,141.22183279617457,None,142.62277666624868,145.58989423292223,146.273096872319,None,146.273096872319,None,right,0.5218328272458166,146.273096872319,None,None,None,146.82358574221143,149.17419236252317,,,,,,,,001,2019_Jul_19_1629,Test,3.1.2,59.86971295708601,
Pictures\IA50_L40.bmp,Pictures\IA50_L40.bmp,"Advisor 1 says:

"That gamble doesn't sound too good, play it safe."",Pictures\IA50.bmp,"Advisor 2 says:

"Let's venture and take a risk!"","

"That gamble doesn't sound too good, play it safe."",safe,0,0,0,0,0,0,8,8,10,,,,,,,,,,,,,,,,,,,,,,,,,149.19087119511096,None,151.20804081024835,153.19192056165775,153.20865008974215,None,155.20939714915585,None,158.24709783587605,161.89434396394063,158.24709783587605,161.89434396394063,y,3.547823155298829,158.24709783587605,163.19510442815954,161.8789235004224,None,164.89711293566506,None,164.89711293566506,None,left,0.5374458094593138,164.89711293566506,None,165.46244284702698,167.81306470709387,None,None,,,,,,,,001,2019_Jul_19_1629,Test,3.1.2,59.86971295708601,
Pictures\IA50_L30.bmp,Pictures\IA50_L30.bmp,"Advisor 1 says:

"Take a leap, I think you should gamble."",Pictures\IA50.bmp,"Advisor 2 says:

"Hold back, stay with the safe choice."","

"Take a leap, I think you should gamble."",risk,1,0,0,0,0,0,9,9,19,,,,,,,,,,,,,,,,,,,,,,,,,167.82972954399884,None,169.85136503184913,171.8308989625657,171.8476256915019,None,173.84808754967526,None,176.88225447729928,None,176.88225447729928,None,n,1.0800753155490384,176.88225447729928,None,None,None,178.06574247352546,None,178.06574247352546,None,right,0.7125055943615735,178.06574247352546,None,None,None,178.79969694640022,180.96656986826565,,,,,,,,001,2019_Jul_19_1629,Test,3.1.2,59.86971295708601,
Pictures\IA100_G60.bmp,Pictures\IA100_G60.bmp,"Advisor 1 says:

"Be cautious, don't gamble for this one."",Pictures\IA100.bmp,"Advisor 2 says:

"Why not take the gamble?"","

"Be cautious, don't gamble for this one."",safe,0,0,0,0,0,0,10,10,8,,,,,,,,,,,,,,,,,,,,,,,,,180.98323128395714,None,183.0031748470501,184.98485634033568,185.00141947512748,None,187.00191087974235,None,190.03596832993207,190.55314089969033,190.03596832993207,190.55314089969033,y,0.43014916620450094,190.03596832993207,None,190.53629411873408,193.4873527068994,195.05816986615537,None,195.05816986615537,None,left,0.4078829386853613,195.05816986615537,None,195.48786526056938,197.97198496054625,None,None,,,,,,,,001,2019_Jul_19_1629,Test,3.1.2,59.86971295708601,
Pictures\IA50_G10.bmp,Pictures\IA50_G10.bmp,"Advisor 1 says:

"Go with the safe option here!"",Pictures\IA50.bmp,"Advisor 2 says:

"Try your luck and gamble!"","

"Go with the safe option here!"",safe,0,0,0,0,0,0,11,11,9,,,,,,,,,,,,,,,,,,,,,,,,,197.98866379307583,None,200.00892645819113,201.98984534130432,202.0065104891546,None,204.00702086574165,None,207.04119463573443,None,207.04119463573443,None,n,1.5045101924333721,207.04119463573443,None,None,None,208.64251869125292,None,208.64251869125292,None,left,1.3273127973661758,208.64251869125292,None,209.9922050164896,211.55923587206053,None,None,,,,,,,,001,2019_Jul_19_1629,Test,3.1.2,59.86971295708601,
Pictures\IA75_L45.bmp,Pictures\IA75_L45.bmp,"Advisor 1 says:

"Don't gamble for this one, play it safe."",Pictures\IA75.bmp,"Advisor 2 says:

"Go ahead and gamble!"","

"Don't gamble for this one, play it safe."",safe,0,0,0,0,0,0,12,12,15,,,,,,,,,,,,,,,,,,,,,,,,,211.5759293223382,None,213.59850749844918,215.5771836481872,215.5937072839588,None,217.59419215726666,None,220.64509483333677,None,220.64509483333677,None,n,0.47635084175271913,220.64509483333677,None,None,None,221.21176677691983,None,221.21176677691983,None,left,0.9336980094667524,221.21176677691983,None,222.16230441397056,224.12940642988542,None,None,,,,,,,,001,2019_Jul_19_1629,Test,3.1.2,59.86971295708601,
Pictures\IA75_G60.bmp,Pictures\IA75_G60.bmp,"Advisor 1 says:

"Make it exciting, take a chance!"",Pictures\IA75.bmp,"Advisor 2 says:

"Let's stay with the certain option."","

"Make it exciting, take a chance!"",risk,1,0,0,0,0,0,13,13,7,,,,,,,,,,,,,,,,,,,,,,,,,224.14617296884535,None,226.16906122746877,228.14752992981812,228.16415931092342,None,230.15364387410227,None,233.21554032893619,234.3156419377192,233.21554032893619,234.3156419377192,y,1.0336864085984416,233.21554032893619,None,234.299126699334,237.2668510574731,238.21953843423398,None,238.21953843423398,None,left,0.44559451093664393,238.21953843423398,None,238.68397240299964,241.13428222114453,None,None,,,,,,,,001,2019_Jul_19_1629,Test,3.1.2,59.86971295708601,
Pictures\IA25_G20.bmp,Pictures\IA25_G20.bmp,"Advisor 1 says:

"I wouldn't gamble for this one. "",Pictures\IA25.bmp,"Advisor 2 says:

"Why not gamble?"","

"I wouldn't gamble for this one. "",safe,0,0,0,0,0,0,14,14,4,,,,,,,,,,,,,,,,,,,,,,,,,241.15096789604286,None,243.17345587763702,245.1525239070179,245.16909481713083,None,247.1694786103908,None,250.20384614309296,251.6042242758558,250.20384614309296,251.6042242758558,y,1.3331496267928742,250.20384614309296,None,251.58772769838106,254.5551730755251,255.22421704162844,None,255.22421704162844,None,right,0.39261984906625,255.22421704162844,None,None,None,255.63884186506039,258.13955860049464,,,,,,,,001,2019_Jul_19_1629,Test,3.1.2,59.86971295708601,
Pictures\IA50_G30.bmp,Pictures\IA50_G30.bmp,"Advisor 1 says:

"I think you should gamble."",Pictures\IA50.bmp,"Advisor 2 says:

"Don't be tempted to gamble."","

"I think you should gamble."",risk,1,0,0,0,0,0,15,15,5,,,,,,,,,,,,,,,,,,,,,,,,,258.1563528198167,None,260.1734795148368,262.1574659445905,262.17410403408576,None,264.17458455316955,None,267.19570344418753,None,267.19570344418753,None,n,1.5249871472478844,267.19570344418753,None,None,None,268.8259507046896,None,268.8259507046896,None,right,0.5346902113524266,268.8259507046896,None,None,None,269.39294330531266,271.7270135381841,,,,,,,,001,2019_Jul_19_1629,Test,3.1.2,59.86971295708601,
Pictures\IA100_L20.bmp,Pictures\IA100_L20.bmp,"Advisor 1 says:

"Try to win as much money as you can, gamble!"",Pictures\IA100.bmp,"Advisor 2 says:

"I wouldn't gamble for this one. "","

"Try to win as much money as you can, gamble!"",risk,1,0,0,0,0,0,16,16,1,,,,,,,,,,,,,,,,,,,,,,,,,271.74351260374533,None,273.7775880928384,275.7448135819286,275.7615191618097,None,277.76185505866306,None,280.79612804262433,None,280.79612804262433,None,n,1.396338040358387,280.79612804262433,None,None,None,282.28254179348005,None,282.28254179348005,None,right,0.6138402555370703,282.28254179348005,None,None,None,282.9136508781812,285.19763049669564,,,,,,,,001,2019_Jul_19_1629,Test,3.1.2,59.86971295708601,
Pictures\IA50_L10.bmp,Pictures\IA50_L10.bmp,"Advisor 1 says:

"Play it safe, don’t gamble!"",Pictures\IA50.bmp,"Advisor 2 says:

"It would probably be best to play it safe."","

"Play it safe, don’t gamble!"",safe,0,0,0,0,0,0,17,17,11,,,,,,,,,,,,,,,,,,,,,,,,,285.21430497505935,None,287.2480097335647,289.2154327175231,289.2320521461079,None,291.23263343423605,None,294.2667748586391,295.0169316882384,294.2667748586391,295.0169316882384,y,0.6774672010797076,294.2667748586391,None,295.00344263145234,297.96806305408245,299.30152276338777,None,299.30152276338777,None,left,0.5545585087384097,299.30152276338777,None,299.88528003689134,302.2025299251545,None,None,,,,,,,,001,2019_Jul_19_1629,Test,3.1.2,59.86971295708601,
Pictures\IA25_G10.bmp,Pictures\IA25_G10.bmp,"Advisor 1 says:

"What's life without a little risk?"",Pictures\IA25.bmp,"Advisor 2 says:

"Don't gamble for this one, play it safe."","

"What's life without a little risk?"",risk,1,0,0,0,0,0,18,18,12,,,,,,,,,,,,,,,,,,,,,,,,,302.2191138979397,None,304.2531778794364,306.22045904037077,306.2370769138797,None,308.23768370522885,None,311.2716357211466,None,311.2716357211466,None,n,2.536226006282959,311.2716357211466,None,None,None,313.9103933009901,None,313.9103933009901,None,right,0.8574133518268354,313.9103933009901,None,None,None,314.7896100890939,316.8234992798534,,,,,,,,001,2019_Jul_19_1629,Test,3.1.2,59.86971295708601,
Pictures\IA50_G20.bmp,Pictures\IA50_G20.bmp,"Advisor 1 says:

"Let's venture and take a risk!"",Pictures\IA50.bmp,"Advisor 2 says:

"Don't gamble for this one."","

"Let's venture and take a risk!"",risk,1,0,0,0,0,0,19,19,6,,,,,,,,,,,,,,,,,,,,,,,,,316.84014638880035,None,318.86336339090485,320.84142652893206,320.8747708204319,None,322.8584667615942,None,325.8927192185656,327.1264996782411,325.8927192185656,327.1264996782411,y,1.1389135541394353,325.8927192185656,None,327.10982022364624,330.06081785279093,330.91364092566073,None,330.91364092566073,None,right,0.4460252675344236,330.91364092566073,None,None,None,331.37775641446933,333.828566656739,,,,,,,,001,2019_Jul_19_1629,Test,3.1.2,59.86971295708601,
,,,,,,,,0,0,0,0,,,,,,,,,,,,,,,,,,,,,,,,,,,,,,,,,,,,,,,,,,,,,,,,,,,,,,,,,,,334.945187236066,None,return,27.79781343601644,334.945187236066,None,,001,2019_Jul_19_1629,Test,3.1.2,59.86971295708601,
