Choice,Choice2,AdviceVar,Amount,AdviceVar2,AdviceVar1,trials_2.thisRepN,trials_2.thisTrialN,trials_2.thisN,trials_2.thisIndex,trials.thisRepN,trials.thisTrialN,trials.thisN,trials.thisIndex,instructions.started,instructions.stopped,space.keys,space.rt,space.started,space.stopped,chooseInst.started,chooseInst.stopped,Ad1.started,Ad1.stopped,Ad2.started,Ad2.stopped,key_resp_3.keys,key_resp_3.rt,key_resp_3.started,key_resp_3.stopped,Ad1pic.started,Ad1pic.stopped,Ad2pic.started,Ad2pic.stopped,enter.keys,enter.rt,enter.started,enter.stopped,iSi.started,iSi.stopped,receiveMoneyPicture.started,receiveMoneyPicture.stopped,ISI2.started,ISI2.stopped,ChoicePic.started,ChoicePic.stopped,text_3.started,text_3.stopped,ask.started,ask.stopped,response.keys,response.rt,response.started,response.stopped,Advice.started,Advice.stopped,blank.started,blank.stopped,ChoicePic2.started,ChoicePic2.stopped,resp.keys,resp.rt,resp.started,resp.stopped,checkL1.started,checkL1.stopped,checkR1.started,checkR1.stopped,nGamble,participant,session,date,expName,psychopyVersion,frameRate,
,,,,,,,,,,,,,,17.030720875016414,None,space,2.5308286419312935,17.030720875016414,None,,,,,,,,,,,,,,,,,,,,,,,,,,,,,,,,,,,,,,,,,,,,,,,,,,,001,2019_Jul_17_1131,Test,3.1.2,59.98184840829449,
,,,,,,,,,,,,,,,,,,,,19.6776040479308,None,19.6776040479308,None,19.6776040479308,None,left,1.21973406302277,19.6776040479308,None,,,,,,,,,,,,,,,,,,,,,,,,,,,,,,,,,,,,,,,,,001,2019_Jul_17_1131,Test,3.1.2,59.98184840829449,
,,,,,,,,,,,,,,,,,,,,,,,,,,,,,,19.6776040479308,None,19.6776040479308,None,return,2.9316866717126686,19.6776040479308,None,,,,,,,,,,,,,,,,,,,,,,,,,,,,,,,,,001,2019_Jul_17_1131,Test,3.1.2,59.98184840829449,
Pictures\IA25_L10.bmp,Pictures\IA25_L10.bmp,"Advisor 1 says:

"Dont be afraid to take the risk!"",Pictures\IA25.bmp,"Advisor 2 says:

"Be bold, gamble!"","

"Dont be afraid to take the risk!"",0,0,0,0,0,0,0,25,,,,,,,,,,,,,,,,,,,,,,,,,22.662091212783707,None,25.796395205019508,27.64699576055864,27.66368827779661,None,29.697598617582116,None,34.865498201863375,37.316111260210164,34.865498201863375,37.316111260210164,y,2.3435599403455853,34.865498201863375,37.63328619374079,37.29944424625137,None,40.41705416617333,None,40.41705416617333,None,right,1.9037643148913048,40.41705416617333,None,None,None,42.35134466030286,None,54,,001,2019_Jul_17_1131,Test,3.1.2,59.98184840829449,
Pictures\IA75_L30.bmp,Pictures\IA75_L30.bmp,"Advisor 1 says:

"Be bold, gamble!"",Pictures\IA75.bmp,"Advisor 2 says:

"Dont be afraid to take the risk!"","

"Be bold, gamble!"",0,0,0,0,0,1,1,13,,,,,,,,,,,,,,,,,,,,,,,,,43.23487803369062,None,46.268998309009476,48.236399210902164,48.25292253567022,None,50.25365031210822,None,54.288021888030926,None,54.288021888030926,None,n,1.8966464122931939,54.288021888030926,None,None,None,56.32203548500547,None,56.32203548500547,None,left,1.1506450618617237,56.32203548500547,None,57.4891298499424,59.189635219139745,None,None,0,,001,2019_Jul_17_1131,Test,3.1.2,59.98184840829449,
Pictures\IA100_L60.bmp,Pictures\IA100_L60.bmp,"Advisor 1 says:

"Be cautious, don't gamble for this one."",Pictures\IA100.bmp,"Advisor 2 says:

"Why not take the gamble?"","

"Be cautious, don't gamble for this one."",0,0,0,0,0,2,2,6,,,,,,,,,,,,,,,,,,,,,,,,,59.20627859592787,None,62.22844716452528,64.2077758249361,64.2244188907207,None,66.22499893477652,None,70.2591745708778,71.77627809520345,70.2591745708778,71.77627809520345,y,1.429223583836574,70.2591745708778,74.21071305609075,71.75958899912075,None,74.77844649582403,None,74.77844649582403,None,right,1.5017511732294224,74.77844649582403,None,None,None,76.31129642800079,77.69507752530626,85,,001,2019_Jul_17_1131,Test,3.1.2,59.98184840829449,
Pictures\IA50_G20.bmp,Pictures\IA50_G20.bmp,"Advisor 1 says:

"Let's venture and take a risk!"",Pictures\IA50.bmp,"Advisor 2 says:

"Don't gamble for this one."","

"Let's venture and take a risk!"",0,0,0,0,0,3,3,1,,,,,,,,,,,,,,,,,,,,,,,,,77.71173987403745,None,80.73059674870456,82.71321222180268,82.72987799168914,None,84.73046052388963,None,88.76475030268193,None,88.76475030268193,None,n,1.5152977678808384,88.76475030268193,None,None,None,90.38176789341378,None,90.38176789341378,None,right,1.2741449948225636,90.38176789341378,None,None,None,91.68245775709511,93.28289261905593,98,,001,2019_Jul_17_1131,Test,3.1.2,59.98184840829449,
Pictures\IA25_L20.bmp,Pictures\IA25_L20.bmp,"Advisor 1 says:

"I wouldn't gamble for this one. "",Pictures\IA25.bmp,"Advisor 2 says:

"Why not gamble?"","

"I wouldn't gamble for this one. "",0,0,0,0,0,4,4,11,,,,,,,,,,,,,,,,,,,,,,,,,93.29965076060034,None,96.32303384502302,98.3011178211018,98.31777457153657,None,100.31818075789488,None,104.35268980270484,None,104.35268980270484,None,n,0.5351184798346367,104.35268980270484,None,None,None,104.98856395710027,None,104.98856395710027,None,left,2.195175028668018,104.98856395710027,None,107.2037307563005,None,None,None,0,,001,2019_Jul_17_1131,Test,3.1.2,59.98184840829449,
Pictures\IA75_L30.bmp,Pictures\IA75_L30.bmp,"Advisor 1 says:

"Hold back, stay with the safe choice."",Pictures\IA75.bmp,"Advisor 2 says:

"Try to win as much money as you can, gamble!"","

"Hold back, stay with the safe choice."",0,0,0,0,0,5,5,29,,,,,,,,,,,,,,,,,,,,,,,,,107.92059616709594,None,110.93955381083651,112.92209495118004,112.93872961954912,None,114.93933796600322,None,118.97369710128987,None,118.97369710128987,None,n,1.2175037702836562,118.97369710128987,None,None,None,120.24637037041248,None,120.24637037041248,None,right,1.569148871669313,120.24637037041248,None,None,None,121.84138360878569,123.19177780547761,83,,001,2019_Jul_17_1131,Test,3.1.2,59.98184840829449,
Pictures\IA100_L60.bmp,Pictures\IA100_L60.bmp,"Advisor 1 says:

"You'd have a lot to lose, don't gamble."",Pictures\IA100.bmp,"Advisor 2 says:

"Make it exciting, take a chance!"","

"You'd have a lot to lose, don't gamble."",0,0,0,0,0,6,6,22,,,,,,,,,,,,,,,,,,,,,,,,,123.20845010672929,None,126.23181110902806,128.20991810027044,128.22943961524288,None,130.22699161159107,None,134.26469198727864,None,134.26469198727864,None,n,1.4146307327609975,134.26469198727864,None,None,None,135.76381601189496,None,135.76381601189496,None,left,1.1394158443144988,135.76381601189496,None,136.9291251473769,138.6796788328793,None,None,0,,001,2019_Jul_17_1131,Test,3.1.2,59.98184840829449,
Pictures\IA75_L60.bmp,Pictures\IA75_L60.bmp,"Advisor 1 says:

"Make it exciting, take a chance!"",Pictures\IA75.bmp,"Advisor 2 says:

"Let's stay with the certain option."","

"Make it exciting, take a chance!"",0,0,0,0,0,7,7,15,,,,,,,,,,,,,,,,,,,,,,,,,138.69633993753814,None,141.7168153373059,143.6977463499934,143.71444726467598,None,145.7150301078509,None,149.74939484143397,None,149.74939484143397,None,n,1.5295565882115625,149.74939484143397,None,None,None,151.36752524590702,None,151.36752524590702,None,right,1.7352405223355163,151.36752524590702,None,None,None,153.1339152227447,154.2842218996666,71,,001,2019_Jul_17_1131,Test,3.1.2,59.98184840829449,
Pictures\IA25_L5.bmp,Pictures\IA25_L5.bmp,"Advisor 1 says:

"Let's stay with the certain option."",Pictures\IA25.bmp,"Advisor 2 says:

"Take a chance!"","

"Let's stay with the certain option."",0,0,0,0,0,8,8,8,,,,,,,,,,,,,,,,,,,,,,,,,154.30085376885836,None,157.31933649181155,159.30240355950082,159.3190484913648,None,161.3195694424794,None,165.35376498356345,None,165.35376498356345,None,n,1.5488488846749533,165.35376498356345,None,None,None,166.99037282369682,None,166.99037282369682,None,left,0.9361886222613975,166.99037282369682,None,167.9548893671017,169.905513777514,None,None,0,,001,2019_Jul_17_1131,Test,3.1.2,59.98184840829449,
Pictures\IA75_L45.bmp,Pictures\IA75_L45.bmp,"Advisor 1 says:

"Don't gamble for this one, play it safe."",Pictures\IA75.bmp,"Advisor 2 says:

"Go ahead and gamble!"","

"Don't gamble for this one, play it safe."",0,0,0,0,0,9,9,30,,,,,,,,,,,,,,,,,,,,,,,,,169.92217861438985,None,172.9439864048909,174.92363945455872,174.94031859815004,None,176.94090330743347,None,180.97507863250212,None,180.97507863250212,None,n,1.199337350204587,180.97507863250212,None,None,None,182.2607312038599,None,182.2607312038599,None,right,2.785449944669381,182.2607312038599,None,None,None,185.07663081795909,None,8,,001,2019_Jul_17_1131,Test,3.1.2,59.98184840829449,
Pictures\IA50_L30.bmp,Pictures\IA50_L30.bmp,"Advisor 1 says:

"Take a leap, I think you should gamble."",Pictures\IA50.bmp,"Advisor 2 says:

"Hold back, stay with the safe choice."","

"Take a leap, I think you should gamble."",0,0,0,0,0,10,10,18,,,,,,,,,,,,,,,,,,,,,,,,,185.1933509222872,None,188.21358839512686,190.1948046091129,190.21136245661182,None,192.21203642740147,None,196.26291017900803,None,196.26291017900803,None,n,0.5029964795976412,196.26291017900803,None,None,None,196.83385112244287,None,196.83385112244287,None,left,1.668137666711118,196.83385112244287,None,198.5305888488947,199.78097567454097,None,None,0,,001,2019_Jul_17_1131,Test,3.1.2,59.98184840829449,
Pictures\IA25_L5.bmp,Pictures\IA25_L5.bmp,"Advisor 1 says:

"It would be smarter to choose the safe option."",Pictures\IA25.bmp,"Advisor 2 says:

"Certainty is boring, take a risk!"","

"It would be smarter to choose the safe option."",0,0,0,0,0,11,11,24,,,,,,,,,,,,,,,,,,,,,,,,,199.7976355351566,None,202.82017452328,204.79909046602552,204.81575530290138,None,206.8161571350356,None,210.8536335794779,None,210.8536335794779,None,n,0.6481692223169375,210.8536335794779,None,None,None,211.60071228788001,None,211.60071228788001,None,left,1.2050124515080824,211.60071228788001,None,212.83479194456595,214.5019449359388,None,None,0,,001,2019_Jul_17_1131,Test,3.1.2,59.98184840829449,
Pictures\IA25_L10.bmp,Pictures\IA25_L10.bmp,"Advisor 1 says:

"What's life without a little risk?"",Pictures\IA25.bmp,"Advisor 2 says:

"Don't gamble for this one, play it safe."","

"What's life without a little risk?"",0,0,0,0,0,12,12,9,,,,,,,,,,,,,,,,,,,,,,,,,214.51860293044592,None,217.55266162467888,219.51967935537687,219.53636254215962,None,221.5370837872906,None,225.5881920446409,None,225.5881920446409,None,n,0.5372601331037004,225.5881920446409,None,None,None,226.23834430234274,None,226.23834430234274,None,left,1.6471546895045321,226.23834430234274,None,227.9058409659192,229.1395912570879,None,None,0,,001,2019_Jul_17_1131,Test,3.1.2,59.98184840829449,
Pictures\IA100_L80.bmp,Pictures\IA100_L80.bmp,"Advisor 1 says:

"Why not gamble?"",Pictures\IA100.bmp,"Advisor 2 says:

"That gamble doesn't sound too good, play it safe."","

"Why not gamble?"",0,0,0,0,0,13,13,7,,,,,,,,,,,,,,,,,,,,,,,,,229.15625733803608,None,232.17905135892215,234.15772937476868,234.1743764837447,None,236.1747991539014,None,240.19287724557216,None,240.19287724557216,None,n,0.8362636702950113,240.19287724557216,None,None,None,241.12601884815376,None,241.12601884815376,None,right,1.1272153251047712,241.12601884815376,None,None,None,242.27674819526146,244.0439601862745,108,,001,2019_Jul_17_1131,Test,3.1.2,59.98184840829449,
Pictures\IA25_L15.bmp,Pictures\IA25_L15.bmp,"Advisor 1 says:

"There's not much on the line here, gamble!"",Pictures\IA25.bmp,"Advisor 2 says:

"Go all in!"","

"There's not much on the line here, gamble!"",0,0,0,0,0,14,14,26,,,,,,,,,,,,,,,,,,,,,,,,,244.060613515554,None,247.0789170935168,249.0621039022226,249.07870809102315,None,251.07935842461302,None,255.11368552531349,None,255.11368552531349,None,n,1.4673786642670166,255.11368552531349,None,None,None,256.66551362822065,None,256.66551362822065,None,right,0.6753924161603209,256.66551362822065,None,None,None,257.3645534920215,259.58185105898883,135,,001,2019_Jul_17_1131,Test,3.1.2,59.98184840829449,
Pictures\IA50_G30.bmp,Pictures\IA50_G30.bmp,"Advisor 1 says:

"I think you should gamble."",Pictures\IA50.bmp,"Advisor 2 says:

"Don't be tempted to gamble."","

"I think you should gamble."",0,0,0,0,0,15,15,2,,,,,,,,,,,,,,,,,,,,,,,,,259.5985305135837,None,262.6182725385879,264.6000000622007,264.61668231594376,None,266.6505425822397,None,270.65136801757035,None,270.65136801757035,None,n,0.3612918716389686,270.65136801757035,None,None,None,271.11842135954066,None,271.11842135954066,None,left,1.2782724825956393,271.11842135954066,None,272.4189485620591,274.01940675021615,None,None,0,,001,2019_Jul_17_1131,Test,3.1.2,59.98184840829449,
Pictures\IA25_L15.bmp,Pictures\IA25_L15.bmp,"Advisor 1 says:

"I think you should take a gamble."",Pictures\IA25.bmp,"Advisor 2 says:

"Think of the payoff, gamble!"","

"I think you should take a gamble."",0,0,0,0,0,16,16,10,,,,,,,,,,,,,,,,,,,,,,,,,274.0361148182419,None,277.07015422952827,279.03756788303144,279.0542501367745,None,281.05464854772436,None,285.0889572984888,None,285.0889572984888,None,n,1.41937994066393,285.0889572984888,None,None,None,286.61050803461694,None,286.61050803461694,None,left,1.8977862844185438,286.61050803461694,None,288.5403410534782,None,None,None,0,,001,2019_Jul_17_1131,Test,3.1.2,59.98184840829449,
Pictures\IA100_L40.bmp,Pictures\IA100_L40.bmp,"Advisor 1 says:

"Try your luck and gamble!"",Pictures\IA100.bmp,"Advisor 2 says:

"Go with the safe option here!"","

"Try your luck and gamble!"",0,0,0,0,0,17,17,5,,,,,,,,,,,,,,,,,,,,,,,,,289.54067166303867,None,292.5433523063257,294.5421589395264,294.5421589395264,None,296.55938204936683,None,300.58027452102397,None,300.58027452102397,None,n,1.7278629217471462,300.58027452102397,None,None,None,302.41074054987985,None,302.41074054987985,None,right,1.225294088566443,302.41074054987985,None,None,None,303.6615058814641,305.3119784851733,101,,001,2019_Jul_17_1131,Test,3.1.2,59.98184840829449,
Pictures\IA75_L15.bmp,Pictures\IA75_L15.bmp,"Advisor 1 says:

"Take a chance!"",Pictures\IA75.bmp,"Advisor 2 says:

"I don't think you should gamble."","

"Take a chance!"",0,0,0,0,0,18,18,12,,,,,,,,,,,,,,,,,,,,,,,,,305.328650786425,None,308.3500365287764,310.33012437823345,310.34675469237845,None,312.34717176426784,None,316.38151503776317,None,316.38151503776317,None,n,0.37447395603521727,316.38151503776317,None,None,None,316.86501021840377,None,316.86501021840377,None,right,2.1227824200177565,316.86501021840377,None,None,None,319.0160107710981,None,47,,001,2019_Jul_17_1131,Test,3.1.2,59.98184840829449,
Pictures\IA100_L20.bmp,Pictures\IA100_L20.bmp,"Advisor 1 says:

"Go ahead and gamble!"",Pictures\IA100.bmp,"Advisor 2 says:

"Be cautious, don't gamble for this one."","

"Go ahead and gamble!"",0,0,0,0,0,19,19,4,,,,,,,,,,,,,,,,,,,,,,,,,319.78289619574207,None,322.80451146760606,324.78433028858854,324.80103617950226,None,326.8015593077289,None,330.8221410748083,None,330.8221410748083,None,n,1.5734788305708207,330.8221410748083,None,None,None,332.5031037799781,None,332.5031037799781,None,right,1.71637338414439,332.5031037799781,None,None,None,334.23709650782985,335.40411902815686,72,,001,2019_Jul_17_1131,Test,3.1.2,59.98184840829449,
Pictures\IA100_L20.bmp,Pictures\IA100_L20.bmp,"Advisor 1 says:

"Try to win as much money as you can, gamble!"",Pictures\IA100.bmp,"Advisor 2 says:

"I wouldn't gamble for this one. "","

"Try to win as much money as you can, gamble!"",0,0,0,0,0,20,20,20,,,,,,,,,,,,,,,,,,,,,,,,,335.42081092335866,None,338.4420361816883,340.42231592774624,340.43896396976197,None,342.4393605146324,None,346.4737040991604,None,346.4737040991604,None,n,0.3776211226650048,346.4737040991604,None,None,None,346.9462431339489,None,346.9462431339489,None,left,0.8649330865300726,346.9462431339489,None,347.841151280154,349.8583678586583,None,None,0,,001,2019_Jul_17_1131,Test,3.1.2,59.98184840829449,
Pictures\IA50_G40.bmp,Pictures\IA50_G40.bmp,"Advisor 1 says:

"It would probably be best to play it safe."",Pictures\IA50.bmp,"Advisor 2 says:

"What's life without a little risk?"","

"It would probably be best to play it safe."",0,0,0,0,0,21,21,3,,,,,,,,,,,,,,,,,,,,,,,,,349.8750152786379,None,352.89667004946386,354.8765417431132,354.89321466637193,None,356.893634226406,None,360.92792649334297,None,360.92792649334297,None,n,0.31511725444579497,360.92792649334297,None,None,None,361.3285105183895,None,361.3285105183895,None,left,1.034469234815333,361.3285105183895,None,362.3954155681422,364.2459744475782,None,None,0,,001,2019_Jul_17_1131,Test,3.1.2,59.98184840829449,
Pictures\IA75_L15.bmp,Pictures\IA75_L15.bmp,"Advisor 1 says:

"Trust me, gamble!"",Pictures\IA75.bmp,"Advisor 2 says:

"Play it safe, don’t gamble!"","

"Trust me, gamble!"",0,0,0,0,0,22,22,28,,,,,,,,,,,,,,,,,,,,,,,,,364.262604139687,None,367.28255361207994,369.2641054118867,369.28071208883193,None,371.2813120378996,None,375.29974717542063,None,375.29974717542063,None,n,0.7750530048215296,375.29974717542063,None,None,None,376.1671145809232,None,376.1671145809232,None,right,1.3075732604775112,376.1671145809232,None,None,None,377.4998275418475,379.083648573549,97,,001,2019_Jul_17_1131,Test,3.1.2,59.98184840829449,
Pictures\IA100_L80.bmp,Pictures\IA100_L80.bmp,"Advisor 1 says:

"Go all in!"",Pictures\IA100.bmp,"Advisor 2 says:

"There's not much on the line here, gamble!"","

"Go all in!"",0,0,0,0,0,23,23,23,,,,,,,,,,,,,,,,,,,,,,,,,379.10032709507504,None,382.12187829773757,384.1018125055125,384.11846801190404,None,386.11884869495407,None,390.13822994189104,None,390.13822994189104,None,n,1.304317238391377,390.13822994189104,None,None,None,391.5381303547183,None,391.5381303547183,None,left,1.3522189251380041,391.5381303547183,None,392.9210857056314,394.4548475354968,None,None,0,,001,2019_Jul_17_1131,Test,3.1.2,59.98184840829449,
Pictures\IA50_L40.bmp,Pictures\IA50_L40.bmp,"Advisor 1 says:

"That gamble doesn't sound too good, play it safe."",Pictures\IA50.bmp,"Advisor 2 says:

"Let's venture and take a risk!"","

"That gamble doesn't sound too good, play it safe."",0,0,0,0,0,24,24,19,,,,,,,,,,,,,,,,,,,,,,,,,394.4715045969642,None,397.49193925366853,399.47298969636904,399.48956869292306,None,401.49021560532856,None,405.52652232020046,None,405.52652232020046,None,n,0.7557165441394318,405.52652232020046,None,None,None,406.391314516688,None,406.391314516688,None,left,1.5148732315865345,406.391314516688,None,407.92546915923594,409.2925076657557,None,None,0,,001,2019_Jul_17_1131,Test,3.1.2,59.98184840829449,
Pictures\IA75_L45.bmp,Pictures\IA75_L45.bmp,"Advisor 1 says:

"Don't gamble for this one."",Pictures\IA75.bmp,"Advisor 2 says:

"Trust me, gamble!"","

"Don't gamble for this one."",0,0,0,0,0,25,25,14,,,,,,,,,,,,,,,,,,,,,,,,,409.30913953494746,None,412.330932396726,414.31069399084663,414.327338611678,None,416.3277522624121,None,420.36230889259605,None,420.36230889259605,None,n,1.447650323912967,420.36230889259605,None,None,None,421.89685012749396,None,421.89685012749396,None,left,1.0810578137461562,421.89685012749396,None,422.99652440089267,424.81376822435413,None,None,0,,001,2019_Jul_17_1131,Test,3.1.2,59.98184840829449,
Pictures\IA50_L20.bmp,Pictures\IA50_L20.bmp,"Advisor 1 says:

"Certainty is boring, take a risk!"",Pictures\IA50.bmp,"Advisor 2 says:

"You'd have a lot to lose, don't gamble."","

"Certainty is boring, take a risk!"",0,0,0,0,0,26,26,17,,,,,,,,,,,,,,,,,,,,,,,,,424.8304535882198,None,427.8499853667163,429.83190478692995,429.8485145740269,None,431.8491568212048,None,435.8835638528981,None,435.8835638528981,None,n,0.7021021232067142,435.8835638528981,None,None,None,436.6851663917769,None,436.6851663917769,None,left,1.6764731952862348,436.6851663917769,None,438.38442800968187,439.6014425524627,None,None,0,,001,2019_Jul_17_1131,Test,3.1.2,59.98184840829449,
Pictures\IA25_L20.bmp,Pictures\IA25_L20.bmp,"Advisor 1 says:

"Don't be tempted to gamble."",Pictures\IA25.bmp,"Advisor 2 says:

"Take a leap, I think you should gamble."","

"Don't be tempted to gamble."",0,0,0,0,0,27,27,27,,,,,,,,,,,,,,,,,,,,,,,,,439.6180884173664,None,442.63836445612833,444.6195865794143,444.6361266990425,None,446.6368258620496,None,450.67125404279795,None,450.67125404279795,None,n,1.2980916395026725,450.67125404279795,None,None,None,452.05493717017816,None,452.05493717017816,None,None,,452.05493717017816,None,None,None,None,None,0,,001,2019_Jul_17_1131,Test,3.1.2,59.98184840829449,
Pictures\IA75_L60.bmp,Pictures\IA75_L60.bmp,"Advisor 1 says:

"Why not take the gamble?"",Pictures\IA75.bmp,"Advisor 2 says:

"It would be smarter to choose the safe option."","

"Why not take the gamble?"",0,0,0,0,0,28,28,31,,,,,,,,,,,,,,,,,,,,,,,,,454.98930883940193,None,458.01042928546667,459.9908300166135,460.0074450909742,None,462.00800336393877,None,466.0283335194108,None,466.0283335194108,None,n,1.1566958699841052,466.0283335194108,None,None,None,467.2925051776401,None,467.2925051776401,None,None,,467.2925051776401,None,None,None,None,None,0,,001,2019_Jul_17_1131,Test,3.1.2,59.98184840829449,
Pictures\IA50_G10.bmp,Pictures\IA50_G10.bmp,"Advisor 1 says:

"Go with the safe option here!"",Pictures\IA50.bmp,"Advisor 2 says:

"Try your luck and gamble!"","

"Go with the safe option here!"",0,0,0,0,0,29,29,0,,,,,,,,,,,,,,,,,,,,,,,,,470.21044278354384,None,473.23227047905675,475.211921040609,475.2285917867557,None,477.2289786901383,None,481.26351230518776,481.8967997429718,481.26351230518776,481.8967997429718,y,0.5372029062418733,481.26351230518776,None,481.8801485908043,484.83139378833584,485.28334141455707,None,485.28334141455707,None,left,1.9733975933049805,485.28334141455707,None,487.28211819028365,None,None,None,0,,001,2019_Jul_17_1131,Test,3.1.2,59.98184840829449,
Pictures\IA50_L10.bmp,Pictures\IA50_L10.bmp,"Advisor 1 says:

"Play it safe, don’t gamble!"",Pictures\IA50.bmp,"Advisor 2 says:

"It would probably be best to play it safe."","

"Play it safe, don’t gamble!"",0,0,0,0,0,30,30,16,,,,,,,,,,,,,,,,,,,,,,,,,488.215738134837,None,491.23686760035343,493.21718218017486,493.2505277156888,None,495.2343147844658,None,499.285470005183,None,499.285470005183,None,n,1.3949953861010727,499.285470005183,None,None,None,500.7697819127643,None,500.7697819127643,None,right,0.9906281674921047,500.7697819127643,None,None,None,501.78636122032185,503.68696717199055,116,,001,2019_Jul_17_1131,Test,3.1.2,59.98184840829449,
Pictures\IA100_L40.bmp,Pictures\IA100_L40.bmp,"Advisor 1 says:

"Think of the payoff, gamble!"",Pictures\IA100.bmp,"Advisor 2 says:

"I think you should take a gamble."","

"Think of the payoff, gamble!"",0,0,0,0,0,31,31,21,,,,,,,,,,,,,,,,,,,,,,,,,503.70356793963583,None,506.7217396469787,508.705085695663,508.7216995259805,None,510.7223371079308,None,514.7566785153176,None,514.7566785153176,None,n,0.8994225373899098,514.7566785153176,None,None,None,515.742316437827,None,515.742316437827,None,right,0.8898780912277289,515.742316437827,None,None,None,516.6573482251843,518.6580137985293,122,,001,2019_Jul_17_1131,Test,3.1.2,59.98184840829449,
