Choice,Choice2,Amount,AdviceVar1,GambleAdviceNum,GambleAdviceType,trials_3.thisRepN,trials_3.thisTrialN,trials_3.thisN,trials_3.thisIndex,text.started,text.stopped,instructions.started,instructions.stopped,space.keys,space.rt,space.started,space.stopped,chooseInst.started,chooseInst.stopped,Ad1.started,Ad1.stopped,Ad2.started,Ad2.stopped,key_resp_3.keys,key_resp_3.rt,key_resp_3.started,key_resp_3.stopped,Ad1pic.started,Ad1pic.stopped,Ad2pic.started,Ad2pic.stopped,enter.keys,enter.rt,enter.started,enter.stopped,iSi.started,iSi.stopped,receiveMoneyPicture.started,receiveMoneyPicture.stopped,ISI2.started,ISI2.stopped,ChoicePic.started,ChoicePic.stopped,response.keys,response.started,response.stopped,yesNo.started,yesNo.stopped,ask.started,ask.stopped,getAdv.started,getAdv.stopped,textForCode.started,textForCode.stopped,blank.started,blank.stopped,ChoicePic2.started,ChoicePic2.stopped,resp.keys,resp.started,resp.stopped,checkL1.started,checkL1.stopped,checkR1.started,checkR1.stopped,response.rt,resp.rt,participant,session,date,expName,psychopyVersion,frameRate,
,,,,,,,,,,19.638019300007727,None,27.59968059998937,None,space,1.2400820000038948,27.59968059998937,None,,,,,,,,,,,,,,,,,,,,,,,,,,,,,,,,,,,,,,,,,,,,,,,,,,,,001,2019_Nov_18_2032,Test,3.1.2,60.07218272493143,
,,,,,,,,,,,,,,,,,,40.73941229999764,None,40.73941229999764,None,40.73941229999764,None,left,1.0305018999788444,40.73941229999764,None,,,,,,,,,,,,,,,,,,,,,,,,,,,,,,,,,,,,,,,,,,001,2019_Nov_18_2032,Test,3.1.2,60.07218272493143,
,,,,,,,,,,,,,,,,,,,,,,,,,,,,40.73941229999764,None,40.73941229999764,None,return,1.430318599974271,40.73941229999764,None,,,,,,,,,,,,,,,,,,,,,,,,,,,,,,,,,,001,2019_Nov_18_2032,Test,3.1.2,60.07218272493143,
Pictures/IA50_L10.bmp,Pictures/IA50_L10.bmp,Pictures/IA50.bmp,"

"Play it safe, don’t gamble!"",0,safe,0,0,0,16,,,,,,,,,,,,,,,,,,,,,,,,,,,42.22549660000368,None,44.57712490000995,45.713816800009226,45.713816800009226,None,47.24935490000644,None,None,50.978338199987775,None,50.978338199987775,None,50.978338199987775,None,None,None,None,None,53.98641780001344,None,53.98641780001344,None,None,53.98641780001344,None,None,None,None,None,,,,001,2019_Nov_18_2032,Test,3.1.2,60.07218272493143,
Pictures/IA75_G60.bmp,Pictures/IA75_G60.bmp,Pictures/IA75.bmp,"

"Make it exciting, take a chance!"",1,risk,0,1,1,15,,,,,,,,,,,,,,,,,,,,,,,,,,,55.43163820001064,None,57.49810080000316,58.93111450001015,58.95507900000666,None,60.48499470000388,None,2,62.5528508000134,None,62.5528508000134,None,62.5528508000134,None,64.12265129998559,None,64.12265129998559,65.07686430000467,66.2236181999906,None,66.2236181999906,None,right,66.2236181999906,None,None,None,67.1580673000135,None,1.2784802000096533,0.8980345000163652,,001,2019_Nov_18_2032,Test,3.1.2,60.07218272493143,
Pictures/IA50_G20.bmp,Pictures/IA50_G20.bmp,Pictures/IA50.bmp,"

"Let's venture and take a risk!"",1,risk,0,2,2,1,,,,,,,,,,,,,,,,,,,,,,,,,,,68.09355399999185,None,70.1289109000063,71.60922139999457,71.60922139999457,None,73.12756160000572,None,None,75.21268810000038,None,75.21268810000038,None,75.21268810000038,None,None,None,None,None,78.2449806999939,None,78.2449806999939,None,None,78.2449806999939,None,None,None,None,None,,,,001,2019_Nov_18_2032,Test,3.1.2,60.07218272493143,
Pictures/IA50_L30.bmp,Pictures/IA50_L30.bmp,Pictures/IA50.bmp,"

"Take a leap, I think you should gamble."",1,risk,0,3,3,18,,,,,,,,,,,,,,,,,,,,,,,,,,,80.18939479999244,None,82.22436630001175,83.69966849999037,83.69966849999037,None,85.22673970001051,None,None,87.26921420000144,None,87.26921420000144,None,87.26921420000144,None,None,None,None,None,90.41212550000637,None,90.41212550000637,None,None,90.41212550000637,None,None,None,None,None,,,,001,2019_Nov_18_2032,Test,3.1.2,60.07218272493143,
Pictures/IA40_20_L95p.bmp,Pictures/IA40_20_L95p.bmp,Pictures/IA40.bmp,"

"Trust me, gamble!"",1,risk,0,4,4,34,,,,,,,,,,,,,,,,,,,,,,,,,,,92.31225739998627,None,94.40717680001399,95.8182189000072,95.8182189000072,None,97.34518689999823,None,None,99.42240250000032,None,99.42240250000032,None,99.42240250000032,None,None,None,None,None,102.50683779999963,None,102.50683779999963,None,None,102.50683779999963,None,None,None,None,None,,,,001,2019_Nov_18_2032,Test,3.1.2,60.07218272493143,
Pictures/IA100_L60.bmp,Pictures/IA100_L60.bmp,Pictures/IA100.bmp,"

"You'd have a lot to lose, don't gamble."",0,safe,0,5,5,22,,,,,,,,,,,,,,,,,,,,,,,,,,,104.39166369999293,None,106.44183699999121,107.88843970000744,107.90764029999264,None,109.4536924000131,None,None,111.53427350000129,None,111.53427350000129,None,111.53427350000129,None,None,None,None,None,114.61046550000901,None,114.61046550000901,None,None,114.61046550000901,None,None,None,None,None,,,,001,2019_Nov_18_2032,Test,3.1.2,60.07218272493143,
Pictures/IA100_G40.bmp,Pictures/IA100_G40.bmp,Pictures/IA100.bmp,"

"Try your luck and gamble!"",1,risk,0,6,6,5,,,,,,,,,,,,,,,,,,,,,,,,,,,116.51233960001264,None,118.5588415999955,120.02092459998676,120.02092459998676,None,121.55152499998803,None,None,123.65291000000434,None,123.65291000000434,None,123.65291000000434,None,None,None,None,None,126.69048809999367,None,126.69048809999367,None,None,126.69048809999367,None,None,None,None,None,,,,001,2019_Nov_18_2032,Test,3.1.2,60.07218272493143,
Pictures/IA50_L40.bmp,Pictures/IA50_L40.bmp,Pictures/IA50.bmp,"

"That gamble doesn't sound too good, play it safe."",0,safe,0,7,7,19,,,,,,,,,,,,,,,,,,,,,,,,,,,128.6207832999935,None,130.6553133999987,132.10796620001202,132.1286817000073,None,133.65244909998728,None,None,135.69901469998877,None,135.69901469998877,None,135.69901469998877,None,None,None,None,None,138.79383459998644,None,138.79383459998644,None,None,138.79383459998644,None,None,None,None,None,,,,001,2019_Nov_18_2032,Test,3.1.2,60.07218272493143,
Pictures/IA100_L80.bmp,Pictures/IA100_L80.bmp,Pictures/IA100.bmp,"

"Go all in!"",1,risk,0,8,8,23,,,,,,,,,,,,,,,,,,,,,,,,,,,140.7255131000129,None,142.76981130000786,144.2403262000007,144.2403262000007,None,145.75812099999166,None,None,147.80808099999558,None,147.80808099999558,None,147.80808099999558,None,None,None,None,None,150.8439345000079,None,150.8439345000079,None,None,150.8439345000079,None,None,None,None,None,,,,001,2019_Nov_18_2032,Test,3.1.2,60.07218272493143,
Pictures/IA25_G20.bmp,Pictures/IA25_G20.bmp,Pictures/IA25.bmp,"

"I wouldn't gamble for this one. "",0,safe,0,9,9,11,,,,,,,,,,,,,,,,,,,,,,,,,,,152.78367539998726,None,154.826550400001,156.29170169998542,156.29170169998542,None,157.8225473999919,None,None,159.8514833000081,None,159.8514833000081,None,159.8514833000081,None,None,None,None,None,162.91442069999175,None,162.91442069999175,None,None,162.91442069999175,None,None,None,None,None,,,,001,2019_Nov_18_2032,Test,3.1.2,60.07218272493143,
Pictures/IA100_G20.bmp,Pictures/IA100_G20.bmp,Pictures/IA100.bmp,"

"Go ahead and gamble!"",1,risk,0,10,10,4,,,,,,,,,,,,,,,,,,,,,,,,,,,164.85418449999997,None,166.90738700001384,168.36561760000768,168.36561760000768,None,169.8975963999983,None,None,171.90062910001143,None,171.90062910001143,None,171.90062910001143,None,None,None,None,None,174.98340850000386,None,174.98340850000386,None,None,174.98340850000386,None,None,None,None,None,,,,001,2019_Nov_18_2032,Test,3.1.2,60.07218272493143,
Pictures/IA25_G5.bmp,Pictures/IA25_G5.bmp,Pictures/IA25.bmp,"

"Let's stay with the certain option."",0,safe,0,11,11,8,,,,,,,,,,,,,,,,,,,,,,,,,,,176.90848579999874,None,178.9592726000119,180.38860519998707,180.42246470000828,None,181.93931439999142,None,None,184.00142409998807,None,184.00142409998807,None,184.00142409998807,None,None,None,None,None,187.2076662000036,None,187.2076662000036,None,None,187.2076662000036,None,None,None,None,None,,,,001,2019_Nov_18_2032,Test,3.1.2,60.07218272493143,
Pictures/IA25_G10.bmp,Pictures/IA25_G10.bmp,Pictures/IA25.bmp,"

"What's life without a little risk?"",1,risk,0,12,12,9,,,,,,,,,,,,,,,,,,,,,,,,,,,189.0771764999954,None,191.12939049999113,192.56462550000288,192.58347069998854,None,194.1132290000096,None,None,196.15004219999537,None,196.15004219999537,None,196.15004219999537,None,None,None,None,None,199.30462790001184,None,199.30462790001184,None,None,199.30462790001184,None,None,None,None,None,,,,001,2019_Nov_18_2032,Test,3.1.2,60.07218272493143,
Pictures/IA25_G15.bmp,Pictures/IA25_G15.bmp,Pictures/IA25.bmp,"

"I think you should take a gamble."",1,risk,0,13,13,10,,,,,,,,,,,,,,,,,,,,,,,,,,,201.18013669998618,None,203.2454415000102,204.676251900004,204.69797810001182,None,206.2184760000091,None,None,208.26150930000586,None,208.26150930000586,None,208.26150930000586,None,None,None,None,None,211.35518340001,None,211.35518340001,None,None,211.35518340001,None,None,None,None,None,,,,001,2019_Nov_18_2032,Test,3.1.2,60.07218272493143,
Pictures/IA110_55_G95p.bmp,Pictures/IA110_55_G95p.bmp,Pictures/IA110.bmp,"

"Take a chance!"",1,risk,0,14,14,38,,,,,,,,,,,,,,,,,,,,,,,,,,,213.2589871000091,None,215.31408589999774,216.7723347999854,216.7723347999854,None,218.28658330001053,None,None,220.33640430000378,None,220.33640430000378,None,220.33640430000378,None,None,None,None,None,223.41086289999657,None,223.41086289999657,None,None,223.41086289999657,None,None,None,None,None,,,,001,2019_Nov_18_2032,Test,3.1.2,60.07218272493143,
Pictures/IA80_40_G95p.bmp,Pictures/IA80_40_G95p.bmp,Pictures/IA80.bmp,"

"Think of the payoff, gamble!"",1,risk,0,15,15,36,,,,,,,,,,,,,,,,,,,,,,,,,,,225.32712559998618,None,227.37547669999185,228.8209419999912,228.84018780000042,None,230.3687673000095,None,None,232.43047160000424,None,232.43047160000424,None,232.43047160000424,None,None,None,None,None,235.56129189999774,None,235.56129189999774,None,None,235.56129189999774,None,None,None,None,None,,,,001,2019_Nov_18_2032,Test,3.1.2,60.07218272493143,
Pictures/IA75_G15.bmp,Pictures/IA75_G15.bmp,Pictures/IA75.bmp,"

"Take a chance!"",1,risk,0,16,16,12,,,,,,,,,,,,,,,,,,,,,,,,,,,237.42759720000322,None,239.45510419999482,240.93736939999508,240.93736939999508,None,242.46143019999727,None,None,244.51371229998767,None,244.51371229998767,None,244.51371229998767,None,None,None,None,None,247.7167596000072,None,247.7167596000072,None,None,247.7167596000072,None,None,None,None,None,,,,001,2019_Nov_18_2032,Test,3.1.2,60.07218272493143,
Pictures/IA50_G40.bmp,Pictures/IA50_G40.bmp,Pictures/IA50.bmp,"

"It would probably be best to play it safe."",0,safe,0,17,17,3,,,,,,,,,,,,,,,,,,,,,,,,,,,249.52217010001186,None,251.57075089999125,253.02456069999607,253.02456069999607,None,254.55338989998563,None,None,256.60606990000815,None,256.60606990000815,None,256.60606990000815,None,None,None,None,None,259.693823300011,None,259.693823300011,None,None,259.693823300011,None,None,None,None,None,,,,001,2019_Nov_18_2032,Test,3.1.2,60.07218272493143,
Pictures/IA75_L30.bmp,Pictures/IA75_L30.bmp,Pictures/IA75.bmp,"

"Hold back, stay with the safe choice."",0,safe,0,18,18,29,,,,,,,,,,,,,,,,,,,,,,,,,,,261.5994500000088,None,263.6276982999989,265.1075473999954,265.1075473999954,None,266.6201946999936,None,None,268.7068536999868,None,268.7068536999868,None,268.7068536999868,None,None,None,None,None,271.7637916000094,None,271.7637916000094,None,None,271.7637916000094,None,None,None,None,None,,,,001,2019_Nov_18_2032,Test,3.1.2,60.07218272493143,
Pictures/IA25_L20.bmp,Pictures/IA25_L20.bmp,Pictures/IA25.bmp,"

"Don't be tempted to gamble."",0,safe,0,19,19,27,,,,,,,,,,,,,,,,,,,,,,,,,,,273.66758700000355,None,275.72870539998985,277.17605949999415,277.17605949999415,None,278.69434320001164,None,None,280.7437618999975,None,280.7437618999975,None,280.7437618999975,None,None,None,None,None,283.8397515999968,None,283.8397515999968,None,None,283.8397515999968,None,None,None,None,None,,,,001,2019_Nov_18_2032,Test,3.1.2,60.07218272493143,
Pictures/IA50_L20.bmp,Pictures/IA50_L20.bmp,Pictures/IA50.bmp,"

"Certainty is boring, take a risk!"",1,risk,0,20,20,17,,,,,,,,,,,,,,,,,,,,,,,,,,,285.7676220999856,None,287.8142763999931,289.2655046999862,289.28370080000605,None,290.81444550000015,None,None,292.86743109999225,None,292.86743109999225,None,292.86743109999225,None,None,None,None,None,295.95783420000225,None,295.95783420000225,None,None,295.95783420000225,None,None,None,None,None,,,,001,2019_Nov_18_2032,Test,3.1.2,60.07218272493143,
Pictures/IA100_L20.bmp,Pictures/IA100_L20.bmp,Pictures/IA100.bmp,"

"Try to win as much money as you can, gamble!"",1,risk,0,21,21,20,,,,,,,,,,,,,,,,,,,,,,,,,,,297.8430769999977,None,299.871578899998,301.3660444999987,301.3660444999987,None,302.88884609998786,None,None,304.9362475000089,None,304.9362475000089,None,304.9362475000089,None,None,None,None,None,308.05328739999095,None,308.05328739999095,None,None,308.05328739999095,None,None,None,None,None,,,,001,2019_Nov_18_2032,Test,3.1.2,60.07218272493143,
Pictures/IA20_10_G95p.bmp,Pictures/IA20_10_G95p.bmp,Pictures/IA20.bmp,"

"Take a leap, I think you should gamble."",1,risk,0,22,22,32,,,,,,,,,,,,,,,,,,,,,,,,,,,309.94139369999175,None,311.9842995000072,313.43237170000793,313.44756040000357,None,314.9755065999925,None,None,317.0199461999873,None,317.0199461999873,None,317.0199461999873,None,None,None,None,None,320.1892022000102,None,320.1892022000102,None,None,320.1892022000102,None,None,None,None,None,,,,001,2019_Nov_18_2032,Test,3.1.2,60.07218272493143,
Pictures/IA80_40_L95p.bmp,Pictures/IA80_40_L95p.bmp,Pictures/IA80.bmp,"

"Let's stay with the certain option."",0,safe,0,23,23,37,,,,,,,,,,,,,,,,,,,,,,,,,,,322.06994369998574,None,324.0926972999878,325.55925699998625,325.5791009000095,None,327.11720410001,None,None,329.1983451000124,None,329.1983451000124,None,329.1983451000124,None,None,None,None,None,332.32386340000085,None,332.32386340000085,None,None,332.32386340000085,None,None,None,None,None,,,,001,2019_Nov_18_2032,Test,3.1.2,60.07218272493143,
Pictures/IA40_20_G95p.bmp,Pictures/IA40_20_G95p.bmp,Pictures/IA40.bmp,"

"Hold back, stay with the safe choice."",0,safe,0,24,24,35,,,,,,,,,,,,,,,,,,,,,,,,,,,334.14365509999334,None,336.19321309999214,337.6408977000101,337.6687555999961,None,339.170345999999,None,None,341.20774390001316,None,341.20774390001316,None,341.20774390001316,None,None,None,None,None,344.3673670999997,None,344.3673670999997,None,None,344.3673670999997,None,None,None,None,None,,,,001,2019_Nov_18_2032,Test,3.1.2,60.07218272493143,
Pictures/IA50_G10.bmp,Pictures/IA50_G10.bmp,Pictures/IA50.bmp,"

"Go with the safe option here!"",0,safe,0,25,25,0,,,,,,,,,,,,,,,,,,,,,,,,,,,346.22364700000617,None,348.2838405999937,349.7193299999926,349.73789459999534,None,351.25600019999547,None,None,353.2780253000092,None,353.2780253000092,None,353.2780253000092,None,None,None,None,None,356.37082250000094,None,356.37082250000094,None,None,356.37082250000094,None,None,None,None,None,,,,001,2019_Nov_18_2032,Test,3.1.2,60.07218272493143,
Pictures/IA75_L45.bmp,Pictures/IA75_L45.bmp,Pictures/IA75.bmp,"

"Don't gamble for this one, play it safe."",0,safe,0,26,26,30,,,,,,,,,,,,,,,,,,,,,,,,,,,358.26740829998744,None,360.31460879999213,361.7653538000013,361.7827729000128,None,363.31117080000695,None,None,365.34970059999614,None,365.34970059999614,None,365.34970059999614,None,None,None,None,None,368.45093890000135,None,368.45093890000135,None,None,368.45093890000135,None,None,None,None,None,,,,001,2019_Nov_18_2032,Test,3.1.2,60.07218272493143,
Pictures/IA50_G30.bmp,Pictures/IA50_G30.bmp,Pictures/IA50.bmp,"

"I think you should gamble."",1,risk,0,27,27,2,,,,,,,,,,,,,,,,,,,,,,,,,,,370.34205440001097,None,372.40011369998683,373.8411638000107,373.85719459998654,None,375.38189829999465,None,None,377.4046917000087,None,377.4046917000087,None,377.4046917000087,None,None,None,None,None,380.5292006999953,None,380.5292006999953,None,None,380.5292006999953,None,None,None,None,None,,,,001,2019_Nov_18_2032,Test,3.1.2,60.07218272493143,
Pictures/IA25_L10.bmp,Pictures/IA25_L10.bmp,Pictures/IA25.bmp,"

"Dont be afraid to take the risk!"",1,risk,0,28,28,25,,,,,,,,,,,,,,,,,,,,,,,,,,,382.4300052000035,None,384.4747927999997,385.9119553999917,385.94626970001264,None,387.45860340000945,None,None,389.4791810000024,None,389.4791810000024,None,389.4791810000024,None,None,None,None,None,392.64413679999416,None,392.64413679999416,None,None,392.64413679999416,None,None,None,None,None,,,,001,2019_Nov_18_2032,Test,3.1.2,60.07218272493143,
Pictures/IA100_L40.bmp,Pictures/IA100_L40.bmp,Pictures/IA100.bmp,"

"Think of the payoff, gamble!"",1,risk,0,29,29,21,,,,,,,,,,,,,,,,,,,,,,,,,,,394.5450750000018,None,396.5874376000138,398.05505190000986,398.05505190000986,None,399.58414650001214,None,None,401.6490545000124,None,401.6490545000124,None,401.6490545000124,None,None,None,None,None,404.7746763000032,None,404.7746763000032,None,None,404.7746763000032,None,None,None,None,None,,,,001,2019_Nov_18_2032,Test,3.1.2,60.07218272493143,
Pictures/IA110_55_L95p.bmp,Pictures/IA110_55_L95p.bmp,Pictures/IA110.bmp,"

"Trust me, gamble!"",1,risk,0,30,30,39,,,,,,,,,,,,,,,,,,,,,,,,,,,406.6336704000132,None,408.6858923000109,410.1291981000104,410.1469947999867,None,411.67767679999815,None,None,413.72446769999806,None,413.72446769999806,None,413.72446769999806,None,None,None,None,None,416.8127655000135,None,416.8127655000135,None,None,416.8127655000135,None,None,None,None,None,,,,001,2019_Nov_18_2032,Test,3.1.2,60.07218272493143,
Pictures/IA75_G45.bmp,Pictures/IA75_G45.bmp,Pictures/IA75.bmp,"

"Don't gamble for this one."",0,safe,0,31,31,14,,,,,,,,,,,,,,,,,,,,,,,,,,,418.69204749999335,None,420.75567449998925,422.20861319999676,422.20861319999676,None,423.7374850999913,None,None,425.77641640001093,None,425.77641640001093,None,425.77641640001093,None,None,None,None,None,428.91120840000804,None,428.91120840000804,None,None,428.91120840000804,None,None,None,None,None,,,,001,2019_Nov_18_2032,Test,3.1.2,60.07218272493143,
Pictures/IA25_L15.bmp,Pictures/IA25_L15.bmp,Pictures/IA25.bmp,"

"There's not much on the line here, gamble!"",1,risk,0,32,32,26,,,,,,,,,,,,,,,,,,,,,,,,,,,430.7700618999952,None,432.8713463000022,434.286227900011,434.286227900011,None,435.80945800000336,None,None,437.8833838000137,None,437.8833838000137,None,437.8833838000137,None,None,None,None,None,440.9639703000139,None,440.9639703000139,None,None,440.9639703000139,None,None,None,None,None,,,,001,2019_Nov_18_2032,Test,3.1.2,60.07218272493143,
Pictures/IA25_L5.bmp,Pictures/IA25_L5.bmp,Pictures/IA25.bmp,"

"It would be smarter to choose the safe option."",0,safe,0,33,33,24,,,,,,,,,,,,,,,,,,,,,,,,,,,442.86016939999536,None,444.9522227999987,446.3554603999946,446.37873799999943,None,447.92038769999635,None,None,449.9774729000055,None,449.9774729000055,None,449.9774729000055,None,None,None,None,None,453.3078869000019,None,453.3078869000019,None,None,453.3078869000019,None,None,None,None,None,,,,001,2019_Nov_18_2032,Test,3.1.2,60.07218272493143,
Pictures/IA100_G80.bmp,Pictures/IA100_G80.bmp,Pictures/IA100.bmp,"

"Why not gamble?"",1,risk,0,34,34,7,,,,,,,,,,,,,,,,,,,,,,,,,,,455.07956230000127,None,457.1498082999897,458.57254439999815,458.5962371999922,None,460.13354270000127,None,None,462.181585000013,None,462.181585000013,None,462.181585000013,None,None,None,None,None,465.28471499998705,None,465.28471499998705,None,None,465.28471499998705,None,None,None,None,None,,,,001,2019_Nov_18_2032,Test,3.1.2,60.07218272493143,
Pictures/IA100_G60.bmp,Pictures/IA100_G60.bmp,Pictures/IA100.bmp,"

"Be cautious, don't gamble for this one."",0,safe,0,35,35,6,,,,,,,,,,,,,,,,,,,,,,,,,,,467.17147070000647,None,469.2328785000136,470.68494159998954,470.68494159998954,None,472.20647229999304,None,None,474.2879336999904,None,474.2879336999904,None,474.2879336999904,None,None,None,None,None,477.3736566999869,None,477.3736566999869,None,None,477.3736566999869,None,None,None,None,None,,,,001,2019_Nov_18_2032,Test,3.1.2,60.07218272493143,
,,,,,,,,,,,,,,,,,,,,,,,,,,,,,,,,,,,,479.2961694000114,None,481.36273910000455,482.80552250001347,482.80552250001347,None,484.329493600002,None,None,486.3730238999997,None,486.3730238999997,None,486.3730238999997,None,None,None,None,None,,,,,,,,,,,,,,,,,,,,
