Choice,Choice2,Amount,AdviceVar1,GambleAdviceNum,GambleAdviceType,trials_2.thisRepN,trials_2.thisTrialN,trials_2.thisN,trials_2.thisIndex,trials.thisRepN,trials.thisTrialN,trials.thisN,trials.thisIndex,space.keys,space.rt,key_resp_3.keys,key_resp_3.rt,enter.keys,enter.rt,response.keys,response.rt,resp.keys,resp.rt,participant,session,date,expName,psychopyVersion,frameRate,
,,,,,,,,,,,,,,space,0.8083144999982323,,,,,,,,,,001,2019_Jul_21_0931,Test,3.0.7,60.00319216968167,
Pictures\IA50_G30.bmp,Pictures\IA50_G30.bmp,Pictures\IA50.bmp,"

"I think you should gamble."",1,risk,0,0,0,0,0,0,0,14,,,right,0.918625600010273,return,1.3856720000039786,y,1.6912177999911364,left,1.9559736999945017,,001,2019_Jul_21_0931,Test,3.0.7,60.00319216968167,
Pictures\IA75_G45.bmp,Pictures\IA75_G45.bmp,Pictures\IA75.bmp,"

"Don't gamble for this one."",0,safe,0,0,0,0,0,1,1,15,,,,,,,y,0.8555965999985347,right,0.3900359999970533,,001,2019_Jul_21_0931,Test,3.0.7,60.00319216968167,
Pictures\IA25_L5.bmp,Pictures\IA25_L5.bmp,Pictures\IA25.bmp,"

"It would be smarter to choose the safe option."",0,safe,0,0,0,0,0,2,2,2,,,,,,,y,0.9825064000033308,left,1.136523599998327,,001,2019_Jul_21_0931,Test,3.0.7,60.00319216968167,
Pictures\IA75_L45.bmp,Pictures\IA75_L45.bmp,Pictures\IA75.bmp,"

"Don't gamble for this one, play it safe."",0,safe,0,0,0,0,0,3,3,16,,,,,,,n,0.34351219999371096,right,0.7429174999997485,,001,2019_Jul_21_0931,Test,3.0.7,60.00319216968167,
Pictures\IA50_L30.bmp,Pictures\IA50_L30.bmp,Pictures\IA50.bmp,"

"Take a leap, I think you should gamble."",1,risk,0,0,0,0,0,4,4,9,,,,,,,y,0.44379839999601245,left,0.33182599999418017,,001,2019_Jul_21_0931,Test,3.0.7,60.00319216968167,
Pictures\IA75_L15.bmp,Pictures\IA75_L15.bmp,Pictures\IA75.bmp,"

"Trust me, gamble!"",1,risk,0,0,0,0,0,5,5,10,,,,,,,y,0.8359092999889981,None,,,001,2019_Jul_21_0931,Test,3.0.7,60.00319216968167,
