Choice,Choice2,Amount,AdviceVar1,GambleAdviceNum,GambleAdviceType,trials_3.thisRepN,trials_3.thisTrialN,trials_3.thisN,trials_3.thisIndex,text.started,text.stopped,instructions.started,instructions.stopped,space.keys,space.rt,space.started,space.stopped,chooseInst.started,chooseInst.stopped,Ad1.started,Ad1.stopped,Ad2.started,Ad2.stopped,key_resp_3.keys,key_resp_3.rt,key_resp_3.started,key_resp_3.stopped,Ad1pic.started,Ad1pic.stopped,Ad2pic.started,Ad2pic.stopped,enter.keys,enter.rt,enter.started,enter.stopped,iSi.started,iSi.stopped,receiveMoneyPicture.started,receiveMoneyPicture.stopped,ISI2.started,ISI2.stopped,ChoicePic.started,ChoicePic.stopped,response.keys,response.started,response.stopped,yesNo.started,yesNo.stopped,ask.started,ask.stopped,getAdv.started,getAdv.stopped,textForCode.started,textForCode.stopped,blank.started,blank.stopped,ChoicePic2.started,ChoicePic2.stopped,resp.keys,resp.started,resp.stopped,checkL1.started,checkL1.stopped,checkR1.started,checkR1.stopped,response.rt,resp.rt,participant,session,date,expName,psychopyVersion,frameRate,
,,,,,,,,,,12.507802800013451,None,20.484350700018695,None,space,3.0120879000169225,20.484350700018695,None,,,,,,,,,,,,,,,,,,,,,,,,,,,,,,,,,,,,,,,,,,,,,,,,,,,k,001,2019_Nov_18_1359,Test,3.1.2,59.91292256139037,
,,,,,,,,,,,,,,,,,,33.14999540001736,None,33.14999540001736,None,33.14999540001736,None,left,1.5265502000111155,33.14999540001736,None,,,,,,,,,,,,,,,,,,,,,,,,,,,,,,,,,,,,,,,,,k,001,2019_Nov_18_1359,Test,3.1.2,59.91292256139037,
,,,,,,,,,,,,,,,,,,,,,,,,,,,,33.14999540001736,None,33.14999540001736,None,return,2.0860872000048403,33.14999540001736,None,,,,,,,,,,,,,,,,,,,,,,,,,,,,,,,,,k,001,2019_Nov_18_1359,Test,3.1.2,59.91292256139037,
Pictures/IA25_L20.bmp,Pictures/IA25_L20.bmp,Pictures/IA25.bmp,"

"Don't be tempted to gamble."",0,safe,0,0,0,27,,,,,,,,,,,,,,,,,,,,,,,,,,,35.36284820002038,None,37.72071510000387,38.82563200002187,38.84733580000466,None,40.3928070999973,None,None,44.06604220002191,None,44.06604220002191,None,44.06604220002191,None,None,None,None,None,46.63253000000259,None,46.63253000000259,None,None,46.63253000000259,None,None,None,None,None,,,k,001,2019_Nov_18_1359,Test,3.1.2,59.91292256139037,
Pictures/IA25_G20.bmp,Pictures/IA25_G20.bmp,Pictures/IA25.bmp,"

"I wouldn't gamble for this one. "",0,safe,0,1,1,11,,,,,,,,,,,,,,,,,,,,,,,,,,,48.27891950000776,None,50.32235729999957,51.768039400019916,51.790256200009026,None,53.32937089999905,None,1,55.39572280002176,None,55.39572280002176,None,55.39572280002176,None,56.996655299997656,None,56.996655299997656,57.904403000022285,59.03236040001502,None,59.03236040001502,None,left,59.03236040001502,None,59.85652690002462,60.888629900000524,None,None,1.2118203999998514,0.7853076999890618,k,001,2019_Nov_18_1359,Test,3.1.2,59.91292256139037,
Pictures/IA75_G30.bmp,Pictures/IA75_G30.bmp,Pictures/IA75.bmp,"

"Be bold, gamble!"",1,risk,0,2,2,13,,,,,,,,,,,,,,,,,,,,,,,,,,,60.907915999996476,None,62.948888400016585,64.41516510001384,64.41516510001384,None,65.96718269999838,None,1,68.01458280000952,None,68.01458280000952,None,68.01458280000952,None,69.43030310000177,None,69.43030310000177,70.37737410000409,71.52996210000128,None,71.52996210000128,None,left,71.52996210000128,None,72.58734900000854,None,None,None,1.2229484999843407,1.027539100003196,k,001,2019_Nov_18_1359,Test,3.1.2,59.91292256139037,
Pictures/IA100_G40.bmp,Pictures/IA100_G40.bmp,Pictures/IA100.bmp,"

"Try your luck and gamble!"",1,risk,0,3,3,5,,,,,,,,,,,,,,,,,,,,,,,,,,,73.383863199997,None,75.43860419999692,76.8695634000178,76.89080540000577,None,78.44689570000628,None,1,80.45594660000643,None,80.45594660000643,None,80.45594660000643,None,81.65492729999823,None,81.65492729999823,82.58914510000614,83.71344540000428,None,83.71344540000428,None,right,83.71344540000428,None,None,None,83.76526490002288,85.56686069999705,0.992183299997123,0.003755099984118715,k,001,2019_Nov_18_1359,Test,3.1.2,59.91292256139037,
Pictures/IA25_G10.bmp,Pictures/IA25_G10.bmp,Pictures/IA25.bmp,"

"What's life without a little risk?"",1,risk,0,4,4,9,,,,,,,,,,,,,,,,,,,,,,,,,,,85.5868451000133,None,87.63056459999643,89.08091760001844,89.10249310001382,None,90.62088940001559,None,2,92.69822390002082,None,92.69822390002082,None,92.69822390002082,None,92.83339850002085,None,92.83339850002085,93.7780819000036,94.93085570001858,None,94.93085570001858,None,right,94.93085570001858,None,None,None,94.93085570001858,96.75851410001633,-0.059866499999770895,0.2879040999978315,k,001,2019_Nov_18_1359,Test,3.1.2,59.91292256139037,
Pictures/IA50_L10.bmp,Pictures/IA50_L10.bmp,Pictures/IA50.bmp,"

"Play it safe, don’t gamble!"",0,safe,0,5,5,16,,,,,,,,,,,,,,,,,,,,,,,,,,,96.77851850001025,None,98.83648570001242,100.2795388000086,100.29808249999769,None,101.81661900001927,None,1,103.94114720000653,None,103.94114720000653,None,103.94114720000653,None,104.96702480001841,None,104.96702480001841,105.93518980001681,107.08098480000626,None,107.08098480000626,None,left,107.08098480000626,None,108.11647890001768,None,None,None,0.8173808999999892,0.9975766999996267,k,001,2019_Nov_18_1359,Test,3.1.2,59.91292256139037,
